TrialNumber	stim0	stim1	stim2	stim3	stim.probe	ttl.stims	corr.num	trial.type	stim.corr	block	match	Subject	stim.pos0	stim.pos1	stim.pos2	stim.pos3	ran	resp	RT
1	M	B	B	N	N	4	3	shapes	N	Practice	True	10	(7.5606287490295117, 7.8276744570423631)	(-6.5886353126556898, 1.9923035813391632)	(7.5365509937902111, -2.2903223595470328)	(-5.399487742800428, -6.6867585701883918)	1.0	slash	2.59126
2	M	B	N	M	A	4	1	shapes	B	Practice	False	10	(-1.579171180349805, -0.30233115519339471)	(1.3082177118768623, -5.9331492279336793)	(5.2759012145035964, 7.7950380615864923)	(-1.9560865593790639, 5.6121851943007748)	1.0	z	1.4586
3	N	A	N	B	A	8	6	shapes	A	Practice	True	10	(6.9494490563101774, 5.056834818043713)	(-6.0164095671012126, 7.3010798777500838)	(-4.2680308996087923, -5.3851338606596979)	(-0.43217753245470014, 1.6123818621976813)	1.0	slash	2.01036
4	N	B	B	A	M	4	1	shapes	B	Practice	False	10	(6.5520165251686979, -1.9065318503778732)	(-2.8972234623401434, -6.0648654540402678)	(-8.5307525918887137, 5.6460587447241526)	(0.44282607233300375, 7.6968183596598543)	1.0	z	2.65777
5	M	B	M	A	M	8	3	shapes	A	Practice	False	10	(-6.3343925002659685, 0.10421060914326752)	(8.2965451631164129, 3.8063519391665679)	(1.8709771092467058, 6.0492247432075388)	(-2.7943195830038681, -4.897675781952552)	1.0	z	3.60334
6	M	B	B	N	M	8	5	shapes	M	Practice	True	10	(6.9582452213176094, -5.7135636205972862)	(1.0689702898767539, -4.9130424450343551)	(-4.2363924495130991, 2.7670783883081249)	(-8.0040241881734975, -6.4844097110624768)	1.0	slash	3.8567
7	M	A	A	A	B	8	2	shapes	A	Practice	False	10	(4.4234660941769217, 4.3757621043848776)	(-6.2921807389084474, -3.1466769588143544)	(-5.4691250517508498, 2.7430096966278992)	(-2.016202639480916, -5.2643740428941532)	1.0	slash	1.59409
8	M	A	B	B	B	4	2	shapes	B	Practice	True	10	(-5.692608344878904, -7.7822632411353068)	(6.1417700098045103, -3.4494278050590967)	(6.8562777237062065, 2.3284198854375937)	(-7.3913985281810675, 6.428708631631558)	1.0	slash	1.67773
1	M	A	N	N	N	8	2	shapes	N	0	True	10	(-7.1497099803586277, -5.0356918589384465)	(-7.7546125396775603, 7.3522354539986878)	(7.8855224888261084, 7.4397886511708222)	(-3.9860061964339817, 1.8581580670114271)	1.0	z	1.88179
2	M	A	M	N	N	8	3	shapes	N	0	True	10	(-5.5993973052080763, 7.2502996071507759)	(5.350129835272682, -0.80995274859760968)	(7.3522008790869613, 8.1642702594297027)	(-3.2539085056402968, 3.4518863352634135)	1.0	slash	1.86132
3	M	A	N	B	A	4	1	shapes	A	0	True	10	(8.0830271829843383, -3.8961152000145356)	(-2.6944935903983609, 8.0436830211383814)	(-8.6972406388395438, -5.6622671876419384)	(2.0825293958184456, 0.11661711097676175)	1.0	slash	3.09072
4	N	A	N	N	M	8	5	shapes	M	0	True	10	(6.298400316549408, -2.4793477207761878)	(3.6178025817597579, -7.7128833433454247)	(-4.6455097231167501, 5.3968382485743547)	(-3.7371990345539157, -4.9985453280068359)	1.0	slash	2.62237
5	M	A	B	N	A	4	1	shapes	A	0	True	10	(7.7482234818251001, 8.1027624803450031)	(-3.8757521139282929, 1.368153719363006)	(2.3072573334197486, -7.6613219108776249)	(-7.1290514146839499, -7.2078938269564912)	1.0	slash	1.56377
6	M	B	B	M	M	4	2	shapes	B	0	False	10	(7.5744161160643309, -6.1583640804168436)	(-8.2506040377297776, -5.9919040315510443)	(-5.0300465309570246, 3.3608546746679728)	(6.1496061695325839, 7.4475462745384853)	1.0	z	0.925613
7	N	B	B	B	A	8	4	shapes	A	0	True	10	(0.96621323509745416, -3.1049916900724908)	(2.2924323197442771, 0.86151399991739375)	(-8.3776714736600155, 2.6405459127174851)	(8.7473077271627417, -7.9444313307101488)	1.0	z	1.60913
8	N	B	N	N	B	8	0	shapes	N	0	False	10	(-0.32207092321702824, -8.7275616535821303)	(-4.3728561730161033, 1.6292597360595664)	(4.6489232596168062, 1.3711187697474028)	(8.1758564567815242, 7.9183435413655268)	1.0	slash	1.51663
9	M	A	A	N	A	8	1	shapes	A	0	True	10	(-5.8232577763974946, 4.450740152381611)	(-7.2776470030877221, -0.29279952631769923)	(2.2357788485533518, 2.472023492729587)	(-7.7531218226219965, -7.8690314463002071)	1.0	z	2.3143
10	N	A	B	M	A	4	1	shapes	A	0	True	10	(1.3868276905952399, 5.7108460809577242)	(3.4643961243859529, -6.0083511068261224)	(-6.8248892058986517, 8.5237169205534542)	(-4.1449013605543819, -7.2000796234953155)	1.0	z	2.50181
11	N	B	A	N	A	4	3	shapes	N	0	False	10	(4.2697111902910176, -7.2582253492935269)	(2.0032552955072997, 2.488373716258705)	(-4.534235715817478, -4.061578799434157)	(-6.691117601200002, 4.4745167945000475)	1.0	slash	1.26732
12	N	A	A	N	N	4	0	shapes	N	0	True	10	(-1.7835348353964768, -0.82224200216767951)	(3.2372080474508742, 7.5726380423397721)	(-1.9166251179881639, 6.3375074734074825)	(1.94428155944507, -4.6205630955869683)	1.0	z	2.17686
13	M	B	M	N	B	8	7	shapes	B	0	True	10	(-7.9654883013377695, -4.0519313376498465)	(-0.25532366522244843, 5.6284595691858907)	(4.0502803021805853, -5.6347339410023638)	(6.8140573788658685, 1.5866050028781498)	1.0	z	1.58644
14	N	A	N	N	N	4	3	shapes	N	0	True	10	(-2.6715040884802059, 5.0873987004702617)	(5.9344039673092048, 0.40813194220861959)	(1.2555941554461238, -7.7746920135812525)	(-4.0817277767818032, -2.0401072050141273)	1.0	z	1.19218
15	M	B	A	N	B	8	0	shapes	M	0	False	10	(-8.2547284196347501, 2.8721534199417693)	(-2.5958949650879388, -7.3646563850875628)	(7.4130828432677625, 5.4480776996898719)	(8.6981365155343866, -7.6813265633858325)	1.0	slash	1.41378
16	M	A	M	A	N	4	1	shapes	A	0	False	10	(-8.2015390079933201, 2.0172939487532116)	(8.587566655084288, 3.8580027482597075)	(8.4192969257140007, -3.038223262233986)	(-7.1328298284257725, -2.7386099821011305)	1.0	slash	2.8532
17	N	A	B	B	M	8	6	shapes	M	0	True	10	(7.0406357732341238, 2.6722033924575701)	(6.4664219438046029, 8.317809541849531)	(2.4883199539514749, -3.7629244971424702)	(-7.8221049946323919, -6.1776958386779715)	1.0	z	1.68883
18	M	A	B	B	M	4	0	shapes	M	0	True	10	(-1.6287093403918096, 1.2133222329305102)	(8.058262845180888, 4.30066815407449)	(2.7775599689568722, -6.1321583312457433)	(-6.3900688153227092, -8.7370897920764712)	1.0	z	3.61646
19	N	A	B	B	B	4	0	shapes	N	0	False	10	(6.4135090382149631, -7.3474813301555564)	(5.3940298886236651, 1.2605523528142015)	(-4.3557905907450056, -2.5860862294414666)	(-8.358514328688571, 6.1722955531425558)	1.0	slash	1.90983
20	M	B	A	B	A	8	0	shapes	M	0	False	10	(1.1003967899239306, 3.5778276587306426)	(7.0962815618047479, -7.303354969878006)	(-7.4413118286283169, -6.2485068959943408)	(2.4177079000498107, -5.4080913030478257)	1.0	slash	2.08538
21	M	B	N	A	B	4	1	shapes	B	0	True	10	(-4.3778129961136987, 3.0798252911912805)	(7.1610348111712696, -1.1652347752552883)	(4.6338386581915305, 6.9319142316118914)	(-3.0043925491695491, -8.5614316137626432)	1.0	z	1.08688
22	M	A	N	N	A	8	5	shapes	B	0	False	10	(2.0412793823737054, 2.126793389186723)	(-4.448695147619544, -4.491044247769171)	(1.4958926298161561, -3.4674501173069183)	(-3.900587468642339, 1.703248371025051)	1.0	z	2.05064
23	M	A	B	B	M	4	1	shapes	A	0	False	10	(1.7853450152923109, 6.8558724039717198)	(2.3240212165653311, -6.9253056144264535)	(-5.1015049823672332, 7.1145076572198409)	(-3.342817802473327, -5.0634187156090089)	1.0	slash	1.25016
24	M	B	A	M	B	4	2	shapes	A	0	False	10	(-3.005203751374915, 2.9399487084989442)	(4.8518820442060893, 0.34733656913506117)	(7.9687354098770946, -6.7485285280632636)	(-5.7407517437910025, -3.6961759030203334)	1.0	z	1.00981
25	N	B	N	B	N	4	1	shapes	B	0	False	10	(6.2627474012011959, -3.3127866434639639)	(4.1202893985811819, 6.8141948397115666)	(-0.82464900954221676, 0.91017754699367437)	(-6.6435620381051734, -1.4864221957863926)	1.0	slash	1.16139
26	M	B	M	B	A	8	7	shapes	A	0	True	10	(3.9249018536777776, 2.2835719431572734)	(-5.8470077060563241, 3.2371877416036021)	(-3.8647951152560047, 8.5830101268870962)	(-3.4513223190438165, -5.9899750344097118)	1.0	z	1.66908
27	N	B	M	A	B	4	1	shapes	B	0	True	10	(2.8097075166924093, 1.2701968379178563)	(0.98082154277405209, -6.4193149815121906)	(-4.5398903192388627, 5.5499371731435847)	(-1.6804572393060795, -2.0144007405887603)	1.0	z	1.32878
28	N	A	B	M	N	8	3	shapes	M	0	False	10	(-7.3223772268425797, -1.7705752874607645)	(-1.9445617682822292, 2.8871916939262263)	(-7.4114268050175127, 7.1338139460742447)	(0.71510125341840691, -6.4322857475016075)	1.0	slash	1.22019
29	N	B	M	A	M	8	7	shapes	A	0	False	10	(-6.7103559906566694, -5.3282877403422093)	(4.056830240371184, -1.8835944370917348)	(-8.1949231720791893, 8.1684856645803272)	(-2.3669283760588105, -7.0436552324347588)	1.0	z	1.08597
30	N	B	A	A	M	8	3	shapes	A	0	False	10	(2.350288929345016, 8.2910883687511685)	(7.3479171903105112, -6.6066625940368802)	(-0.91490711108451173, -2.1660766381957073)	(6.1483866519731585, 0.31984916721107481)	1.0	slash	1.24152
31	N	A	N	A	M	4	3	shapes	A	0	False	10	(0.37146218071880988, -7.9815704577963507)	(-4.9984283559847462, -3.1666383343981046)	(-5.1264167887569698, 0.975450575777014)	(1.8886952324440127, 4.5262009761852209)	1.0	slash	1.21114
32	M	B	B	A	M	8	7	shapes	N	0	False	10	(-6.2005860452285564, 5.6695102962993875)	(7.7274176895834188, -0.57314103170014974)	(-4.5942656725447124, -7.2577827350202657)	(-1.2224326655006683, -2.9099900409888564)	1.0	z	1.49267
1	P	D	D	P	D	4	1	shapes	D	1	True	10	(5.1824518660593597, 2.4513771307880337)	(-5.0706480189024656, 4.1721899198643762)	(7.8034009239120259, -2.5908326548902423)	(-5.9643182041026925, -1.8407719787231507)	1.0	z	1.42442
2	P	C	C	P	D	8	5	shapes	P	1	False	10	(0.90241787780735194, -0.081899307112038855)	(7.2576862858261464, 5.8760030980069526)	(-8.0421090979537162, 1.0542112217424826)	(-7.0525754165081462, -3.4538506278374097)	1.0	slash	1.30787
3	P	D	O	P	O	4	0	shapes	P	1	False	10	(2.4006121017238939, 2.3878113354792099)	(-3.4255622723646937, 5.8710422791481918)	(-3.1425998194596501, -4.3046689306743939)	(4.8672476007816066, -7.2165206223747163)	1.0	z	1.63955
4	P	C	P	P	P	4	0	shapes	P	1	True	10	(3.1680558932983729, 4.5669079656837663)	(5.8133107307240568, -5.6000352817726951)	(-1.9914331335423672, -6.926574009642481)	(-5.0827077732775781, 0.96532370589629224)	1.0	z	1.7692
5	O	D	D	P	D	4	1	shapes	D	1	True	10	(3.4145895680714258, -0.79463899148716077)	(-7.2521273442765573, 6.2462137919118401)	(3.2468748905975424, 6.9853218547779896)	(-4.5018753947237506, -3.2407720696952227)	1.0	z	2.10487
6	P	C	D	O	D	4	2	shapes	D	1	True	10	(-7.7574050824895489, 1.5338246449044739)	(4.2618515011857863, -3.5097668280968648)	(4.9698874247314286, 8.0481933140334476)	(-1.0288227484241519, -7.3046168758732009)	1.0	slash	2.50197
7	O	C	D	O	O	8	7	shapes	D	1	False	10	(5.7783445878613922, 6.5538981628669291)	(-0.16482934602621846, 8.6490755532380739)	(0.86373415868758485, 2.9163957253562209)	(-3.1352567605409325, -1.1730105547521994)	1.0	slash	1.21381
8	P	D	P	O	D	4	2	shapes	P	1	False	10	(-6.272288637554162, -4.6259718847937368)	(6.4140603865693429, 1.767033573207339)	(-2.2660287153987611, 4.1638831612511051)	(1.1147646366775383, -3.1298503783631384)	1.0	slash	1.75739
9	O	D	D	C	O	8	1	shapes	D	1	False	10	(-5.8889725857714073, 5.407004957480483)	(2.0036925888668247, 1.9820142130446126)	(8.2868514635953758, -7.1921759159895515)	(7.3294235943355304, -2.2484618938944356)	1.0	slash	2.61105
10	P	D	D	O	D	8	1	shapes	D	1	True	10	(2.2350436173647168, -3.3856788822404509)	(-2.7680720507471852, 4.2936698769245965)	(7.1106745753127374, 6.8366469385228061)	(2.3417193018056217, 0.68745095458142025)	1.0	slash	15.7643
11	O	D	O	C	P	4	3	shapes	C	1	False	10	(-5.8632235210429426, -4.3796547096487277)	(0.47880038944760805, -5.6129875952879029)	(0.17918961732066485, 6.6092062076559959)	(-2.9370151748346744, 0.064788505360997561)	1.0	slash	2.97312
12	P	D	O	O	C	8	1	shapes	D	1	False	10	(8.6081847708880908, 8.3789160844754491)	(-7.1453069759664887, -4.7361355314455658)	(-1.3665194000649468, -3.7356964816538722)	(2.5424817897720366, 1.3690403024603697)	1.0	z	1.2704
13	O	D	C	P	O	4	0	shapes	O	1	True	10	(-2.0810619469201317, 3.5099710577647549)	(8.5290040096318407, -7.255836361680382)	(4.499087392150054, 3.5965597121154662)	(-0.61074617460653968, -2.5644284010767944)	1.0	z	1.20213
14	P	D	C	P	O	8	4	shapes	O	1	True	10	(0.52696997145078583, -7.8797368685580889)	(8.5296383685407662, -4.2262250630203804)	(-8.4675708726820176, 1.8624732322132012)	(-0.13491229740314914, 2.600499058870378)	1.0	z	1.98177
15	O	C	O	D	P	4	1	shapes	C	1	False	10	(6.2834745041300568, -4.1864287900567216)	(8.2012252893974562, 7.7708382766417579)	(-4.5838756899593873, 5.1800957316602503)	(-5.4541998135442844, -4.9723373711475665)	1.0	slash	13.1469
16	O	D	D	O	D	4	1	shapes	D	1	True	10	(-5.1700484312766957, -6.0880590994155153)	(-1.7638457231675186, 2.0122344653346644)	(4.7409079757284669, 3.6460935826703853)	(8.1375674805303646, -0.0044612087147033463)	1.0	z	6.73594
17	O	C	P	D	O	4	0	shapes	O	1	True	10	(8.3911717379011179, -5.7542739012979469)	(-8.2193093324763566, 8.5221729508294182)	(-1.6207029681078389, -4.2315244421146057)	(8.0048826940087139, 1.7104481070271085)	1.0	z	7.71093
18	P	C	O	O	O	8	7	shapes	O	1	True	10	(-5.2630742090486358, -4.9275759394130247)	(-7.6455259889915475, 4.5730726103167729)	(6.6958318381627162, 4.1844236060386599)	(2.9772662484594754, 0.71215893812259523)	1.0	z	1.07831
19	P	D	D	P	O	8	2	shapes	D	1	False	10	(4.2695140032276697, -1.593115650293349)	(-8.6991882003239542, -4.7172973334791202)	(6.5288293692995758, 7.9037075807119734)	(-6.1287247085295604, -1.0666222325604693)	1.0	slash	2.13197
20	O	C	O	O	C	8	1	shapes	C	1	True	10	(-5.4983471084289004, -0.28763447586945823)	(4.989202211796071, -4.1830286735764721)	(-4.5970616901028345, 4.6018320473351721)	(5.8525806181184148, 6.3237986769937251)	1.0	z	1.49143
21	O	C	D	O	C	4	2	shapes	D	1	False	10	(0.63221271927977263, 5.7264648676775209)	(8.4252482464614289, -1.3360167784331551)	(-0.28329512549796299, -5.2095781222935358)	(-4.1819218841171022, 7.524574285466695)	1.0	z	1.29914
22	O	C	P	C	C	8	4	shapes	C	1	True	10	(4.8676470880365041, -2.1947530180471313)	(2.1522707951038758, 6.1694799707701478)	(3.3897230258526427, -7.5603816067342136)	(-7.2669807610706636, -1.6639047738186425)	1.0	z	1.3008
23	P	D	O	C	D	8	4	shapes	D	1	True	10	(3.896783855674002, 6.9317149358632442)	(-4.1613907616017807, -7.4022004542346043)	(0.0028469966536874836, 5.3293766452770228)	(-7.9165681809618729, 6.4951669354172274)	1.0	z	0.942376
24	O	D	D	C	C	4	2	shapes	D	1	False	10	(-7.549880190607225, -5.1118579821354331)	(2.890822925503242, 7.6580524992941896)	(-7.0570182806739581, 5.1336532547158011)	(8.0865130807136758, -8.170483908481291)	1.0	z	1.43582
25	O	D	P	O	P	8	6	shapes	O	1	False	10	(-3.8798801471791933, -4.1514142171824426)	(-0.44345457318205384, 3.0011845024500143)	(-4.1523202990930859, -8.6601919139053667)	(2.1242522952476737, -2.7159359044238878)	1.0	slash	1.08957
26	O	D	D	D	O	8	4	shapes	P	1	False	10	(0.72286409333380064, 0.70081390674529764)	(-5.7190902838438769, 3.3870043783940815)	(-2.5158211424861188, -2.0335882273254731)	(-6.6525473570314322, -1.3575480050575717)	1.0	slash	1.293
27	O	D	P	C	D	4	1	shapes	D	1	True	10	(0.78150090724649246, -2.5112756142312218)	(-1.064775787752124, 1.3511044172056828)	(1.186250282613809, 4.8865965901191917)	(-2.9686008186813799, -6.2680309262622904)	1.0	z	1.3328
28	O	C	D	P	O	8	0	shapes	O	1	True	10	(2.5397773378830539, -5.54740871844003)	(5.1298555819510927, 6.1741148515968458)	(-2.2385423692800073, -1.6371230060669797)	(-2.5590507880298734, -6.8204993070938196)	1.0	slash	1.40646
29	O	C	O	D	O	8	0	shapes	O	1	True	10	(4.8395570249517963, -1.9071759375413864)	(-6.4464929592172613, -5.7922310140014925)	(6.2520751099736334, -7.7863522050707346)	(1.3144351227186295, 1.8548787050742792)	1.0	z	1.41008
30	P	C	P	O	D	4	0	shapes	P	1	False	10	(3.6996077251761648, -8.6455604951538945)	(-3.9861390756549824, -4.531697610115665)	(-8.1435767584099636, 6.8279247435195938)	(7.7678349850543178, 2.9417099057853289)	1.0	slash	1.37767
31	O	D	C	O	C	4	3	shapes	O	1	False	10	(1.2171592029696363, -5.8344673088774526)	(-5.9907422331381124, 7.6228202286083615)	(-3.0391581022223013, -6.7932979559629842)	(1.9635504008163327, 8.3473724533058267)	1.0	slash	1.43932
32	O	C	C	P	C	8	3	shapes	P	1	False	10	(1.0818979622101565, 3.4698277788029639)	(-2.715167765505921, -0.37502864836363514)	(2.0038673885344522, -5.7006942727231742)	(-5.1103826189258275, -5.3483358653284174)	1.0	slash	1.02874
1	Q	E	E	E	F	8	4	shapes	E	2	False	10	(6.7067437382145769, -4.1663440383667476)	(-0.1817234144808797, 2.1039486979767652)	(-6.7211214688022665, -8.1953759607209875)	(-5.6764634012130237, 0.010191699040401403)	1.0	z	1.9124
2	R	E	E	R	E	4	2	shapes	E	2	True	10	(3.0920541205280205, -2.7524911263042009)	(-6.5692797692333009, 8.0058548033350014)	(7.908886050261561, 7.9140361161065194)	(-0.75553787304277442, -6.8203534494386657)	1.0	z	1.45994
3	R	F	R	F	E	4	1	shapes	F	2	False	10	(-1.4157270481129487, -3.1903224032619075)	(0.38737039974122922, 6.73065770388434)	(1.847235595923717, -8.148153050037779)	(-3.8939021946877439, 3.0793091515220645)	1.0	z	1.52962
4	R	F	E	F	F	4	1	shapes	F	2	True	10	(-4.8235203956684227, 4.8712112501201954)	(5.5520537261404446, -4.8406827370823304)	(-4.233904876648702, -0.060943431012672633)	(3.1609013586812207, 1.0803062138517667)	1.0	z	1.40909
5	Q	E	E	R	R	4	2	shapes	E	2	False	10	(3.157358405602503, 3.4978977953906405)	(-0.23117022225026673, 8.2773802654907058)	(7.9971478754274941, -0.57539598551101534)	(-2.854910901387651, -4.4954066650380744)	1.0	slash	1.1048
6	R	E	R	R	Q	4	0	shapes	R	2	False	10	(0.50273675525450123, 5.9910494529850506)	(-6.3714856138893525, 0.19326514002803385)	(2.1086102013712047, -7.1880149206042745)	(-3.4591633596163724, -2.9103649647245886)	1.0	slash	2.73448
7	R	E	E	E	F	8	2	shapes	E	2	False	10	(0.24349634648408092, -7.3857925769908022)	(7.2042196249433204, -5.2429194386038693)	(-6.2181532307629137, -7.4544537403328412)	(-3.1680857197372978, 4.2621467694773258)	1.0	z	1.53596
8	Q	F	E	Q	Q	4	0	shapes	Q	2	True	10	(-6.9328572542395639, -2.2212938392916488)	(1.2831554655501645, 1.1930168505210883)	(2.5718833305846669, -7.445999240325115)	(-7.9400136005137769, 2.6431261336790932)	1.0	z	1.11155
9	R	F	E	E	Q	8	4	shapes	R	2	False	10	(0.033718592156258609, 6.6180300964172787)	(0.99636885755673177, -3.3074446490197911)	(-0.24748909657817997, 0.69270448976797461)	(7.8205253590587525, -2.8202974713966729)	1.0	z	1.02315
10	R	E	Q	E	R	8	5	shapes	Q	2	False	10	(0.44704030551055318, 8.6145685528217832)	(-5.4072385302359551, 5.374702928802888)	(-3.0429766715895745, -4.435858020973356)	(-3.670388845257853, -0.16741252978484589)	1.0	slash	1.83881
11	R	F	E	F	F	8	3	shapes	F	2	True	10	(-4.2542879694663354, 3.7678271933860294)	(1.0982298511963293, 2.8232927176815785)	(-1.3280650379070078, 6.6805567397808421)	(8.6990148627320529, 4.6520910821958079)	1.0	slash	2.06832
12	R	F	Q	Q	R	4	0	shapes	R	2	True	10	(7.7341302215838468, 1.4639716348051124)	(-1.0522264256875706, 2.2451258598624033)	(1.0610093678307315, -2.4013115961279725)	(-7.60581447702892, -0.027434500231837688)	1.0	slash	1.46404
13	R	F	Q	R	F	4	2	shapes	Q	2	False	10	(-8.3458786516617884, -2.7466051061074301)	(3.7560466431929171, -0.6097307535126788)	(7.4340405882319658, 2.9192661395765889)	(-3.4839736917495019, 0.60386521075491828)	1.0	slash	1.52548
14	Q	F	R	E	Q	4	3	shapes	E	2	False	10	(-5.8703596827159323, -7.3664846011951273)	(-6.2521126250868235, 1.8313509233711578)	(4.1786209876677827, 0.039311982829733694)	(8.6083320275628132, -7.7507806916568782)	1.0	slash	0.999067
15	R	E	Q	Q	Q	4	2	shapes	Q	2	True	10	(-3.9994589451972589, -5.2892754143902074)	(4.4128940950743516, -6.8116195643414645)	(4.8995712431977765, 1.6971762873100946)	(-7.8802621430559237, 5.8235459439626496)	1.0	z	1.29683
16	R	E	Q	F	E	8	6	shapes	F	2	False	10	(-2.2907412339563962, 8.1084022181036062)	(4.0512228777543662, 5.4256528588589461)	(-6.3699759502014999, 1.0714064707337272)	(7.4603178322470214, -0.94801303947943172)	1.0	z	1.05852
17	R	E	F	E	Q	8	6	shapes	R	2	False	10	(1.8952154519524633, 0.1431179657706565)	(1.9519966691542407, -5.2505671123888398)	(-6.5520503454124199, 5.2382992490585956)	(-3.241305795686122, -5.5350277879007841)	1.0	z	2.28401
18	R	E	E	R	E	8	1	shapes	E	2	True	10	(4.9781129796714811, 8.6713162817744731)	(-0.15303230784162736, -8.524598400151179)	(5.0789871320788205, 3.9506511225230092)	(5.1793714865812994, -6.2705237634346283)	1.0	z	1.18371
19	Q	F	E	E	E	8	2	shapes	E	2	True	10	(5.8835941185907483, -2.9703402598593183)	(2.6726570609189384, 2.5010504097399462)	(-3.7435912974588206, 4.2818833912094476)	(0.46395579007935339, -1.4561737430991322)	1.0	z	1.1672
20	R	F	Q	R	R	4	2	shapes	Q	2	False	10	(1.8296075182213265, 6.7257055779488564)	(0.049241574797740384, -8.1315941954427728)	(-3.1570225233191636, 0.69593267144747983)	(-7.9574517702657648, -0.73636015675733901)	1.0	slash	1.00085
21	Q	F	R	F	Q	8	5	shapes	Q	2	True	10	(-3.9991221767322633, -2.1244320511948622)	(-7.7795187367815881, 5.9009227913139313)	(3.6472421292907935, -8.2636585239082958)	(-7.7722050927795125, -3.5369813641199164)	1.0	z	2.28651
22	R	E	F	R	R	8	0	shapes	R	2	True	10	(1.3993554505910666, -1.779156718700297)	(4.4851737660548441, -7.8769880534197689)	(-7.2923898900685407, -8.2447063510478547)	(5.6489662981910769, 8.3712742280387502)	1.0	z	1.69798
23	R	F	F	Q	Q	4	3	shapes	Q	2	True	10	(-0.51756438106507652, -0.50133375046653583)	(3.1972632291540783, -3.538514786227446)	(-1.4842267077566076, 4.5190621342000341)	(7.2215444105921325, 6.9488120318012072)	1.0	z	0.921636
24	R	E	E	F	E	8	1	shapes	E	2	True	10	(5.4230984461293854, -2.1745045734904682)	(-0.35562563653263446, 4.5160007265061566)	(5.3196600605607713, 3.6753844266350111)	(-5.6950734804417067, 6.2966644634334337)	1.0	slash	1.16725
25	Q	F	F	F	E	4	3	shapes	F	2	False	10	(-5.8963926989438118, -6.3042177311800494)	(1.3974293455242304, 1.0204858155122754)	(5.2881021661109759, -5.075505880719188)	(-7.328617906791723, 8.3227273790523526)	1.0	z	3.2492
26	Q	F	R	Q	E	4	2	shapes	R	2	False	10	(-8.3635929580644017, -5.4966195709195791)	(5.1342252084577069, 7.7716708416097831)	(-6.0035380876895523, 0.7449247386987512)	(6.023338077552971, -0.67172821977167452)	1.0	slash	1.11228
27	R	E	Q	F	E	8	0	shapes	R	2	False	10	(-6.5313660430695109, -4.4052677846387267)	(-6.6261298754732323, 2.5975876271106006)	(-1.7934412520688499, -0.23790112793034623)	(4.3560521809443742, -7.4506981578767784)	1.0	slash	3.182
28	R	F	F	Q	R	8	3	shapes	Q	2	False	10	(2.5341989503083493, -3.9513458474944363)	(2.5345859849224368, 2.1765148129435961)	(-7.9646362233678447, -3.9751161341713468)	(7.1336660051041694, 8.2913506018311658)	1.0	slash	4.12744
29	Q	F	Q	R	R	8	3	shapes	R	2	True	10	(-3.0377267123620904, 2.4659632628961869)	(0.051475006711068971, 6.3176018244340799)	(-7.5186610158659821, -5.9052537350311729)	(1.5872250352383137, -4.6797351531703386)	1.0	z	1.10686
30	R	E	E	E	E	8	3	shapes	E	2	True	10	(7.1725022828665086, 4.9498183710894352)	(6.2061979379119716, -6.1629118452497753)	(-1.6939820983148284, 6.6160093012760477)	(5.8334067096254714, 0.80757584318123143)	1.0	slash	1.75442
31	Q	F	E	E	Q	4	0	shapes	Q	2	True	10	(7.8715888419869167, 7.0126545105500959)	(3.3040669210370091, -5.6563373059584521)	(-4.2064922546013079, -2.5937780049064907)	(-7.8783444158394742, 4.4966496500297914)	1.0	z	1.18184
32	R	F	R	F	R	4	0	shapes	R	2	True	10	(-5.7021879407915188, 4.9041830712828975)	(8.0666406331998139, -3.9656754792475608)	(-0.44771154653432355, -0.30833392261429893)	(4.5063638228417489, 0.60603030343209241)	1.0	z	1.33964
1	N	B	B	M	M	8	0	shapes	N	3	False	10	(-3.7733471020663627, 8.4163732108178202)	(-0.88127599970603487, 0.41355464825346822)	(3.3198631454186938, 3.8811091597520644)	(7.9497674332894341, -8.5505861815544772)	1.0	slash	1.30921
2	N	B	N	A	N	4	1	shapes	B	3	False	10	(-2.2376005607671363, 4.7192693928330467)	(7.4512757321234382, -1.6669367387486886)	(-2.6294309103743192, -2.5604335218506407)	(7.4645984883690275, 4.5124741340404881)	1.0	slash	1.34491
3	N	A	N	M	N	4	0	shapes	N	3	True	10	(1.7463623682695868, -1.7853868427009481)	(2.6621115433714611, 3.8653094599003026)	(-8.5806430910821661, -0.1328043051071095)	(-2.8797561363379938, 7.1385919002464302)	1.0	z	1.12654
4	M	B	A	B	M	4	0	shapes	M	3	True	10	(-1.0999617340052685, 6.7307034073780088)	(2.3101464054708245, -4.8166460665713888)	(8.5808610098995253, 0.71608302076706565)	(-4.5126797430821091, -8.2850797423266318)	1.0	z	1.50406
5	N	B	B	M	B	4	0	shapes	N	3	False	10	(6.0401903633861735, 1.2820547888567635)	(-3.0605468876698652, 8.4512815193169253)	(6.9858274172330095, -5.5567000822816475)	(-0.55694503501617021, -7.6341670398556545)	1.0	slash	2.06971
6	M	A	M	N	M	8	6	shapes	N	3	False	10	(7.2640827902774596, -7.7288936251213229)	(5.2316764894601118, -1.7120031831456242)	(-6.6057199832851534, -2.1593993624314782)	(0.087820443307116136, 4.2585601020658075)	1.0	slash	2.85517
7	N	A	M	A	A	8	1	shapes	A	3	True	10	(-4.9235137533629469, 3.80118408644962)	(-3.1340088918456441, -3.0153594857491859)	(2.0960424677682035, -5.2615281901821467)	(4.9628954533874285, 2.1918102664921157)	1.0	z	1.33674
8	M	B	B	A	M	4	0	shapes	M	3	True	10	(5.1486552510493109, 7.1752955890335137)	(-8.5799434204574183, -6.3125513949446237)	(0.44705015103823698, -4.3602940675401358)	(-6.2041910857230498, 4.9917153894213531)	1.0	slash	3.30439
9	N	A	A	N	N	8	5	shapes	M	3	False	10	(-5.5014072296942933, 1.5974757935964465)	(0.8710449679449539, -0.65128200177097639)	(6.517837161326506, 1.8309823708261437)	(3.3221419803266627, 5.6353085671914265)	1.0	slash	1.27186
10	M	A	M	M	N	4	0	shapes	M	3	False	10	(1.2400142419383933, 2.4735087296961495)	(-6.0841044396227142, -1.7810938245928183)	(-3.0590999933812961, 2.2911907013593904)	(4.1963418278089861, -0.26291802174173284)	1.0	z	1.37934
11	N	B	B	B	M	4	0	shapes	N	3	False	10	(-8.0328014692268308, -1.9050816809226259)	(2.8175920802748937, -7.9426078714402228)	(6.1310689689840121, 8.6841352893738133)	(-2.207096276752428, 7.2029678977337301)	1.0	slash	11.0168
12	M	A	B	B	M	8	4	shapes	M	3	True	10	(-0.65914903692448767, -0.82490865096612342)	(0.88829372273911922, 4.1038373556205308)	(-5.6727048364093617, 7.6983438230046985)	(7.5422986136996428, -7.9096776525160619)	1.0	z	6.4419
13	N	B	A	A	N	4	0	shapes	N	3	True	10	(-6.431890133010528, 2.8239000283537266)	(-3.9820430329700409, -5.764359351375111)	(2.6304447968986473, 5.3313227669529031)	(8.3450500351079455, -8.0896478914644359)	1.0	slash	8.73106
14	N	B	N	B	A	8	6	shapes	M	3	False	10	(-3.6018948324909132, -1.7736500547524372)	(-4.69196204860412, 7.6619037352138086)	(-7.8884368809218284, -2.338821933706094)	(2.1903343586054298, -6.2607645883797005)	1.0	slash	0.846234
15	M	B	M	A	M	8	3	shapes	A	3	False	10	(6.2373471829844984, -5.4846026675491899)	(7.0269195739066923, 3.5500150263896089)	(-4.7470441767494496, -5.6098615905745239)	(-6.1391659952912248, -0.38628901141310301)	1.0	slash	1.44977
16	M	A	A	N	B	4	0	shapes	M	3	False	10	(-6.3532263118259404, 8.2109992240825811)	(-4.1316124251321042, -3.5059419661526654)	(1.1067110253494263, 5.1620011870425877)	(6.0442155069911205, -4.6275873350296139)	1.0	slash	2.01742
17	M	A	M	N	A	4	3	shapes	N	3	False	10	(3.7122726400883863, 6.6312143456719532)	(1.2641418205580539, -0.28835983385706498)	(-7.8500689607264755, 6.8178894568868103)	(-0.36102682891779025, -5.7704123491070831)	1.0	slash	1.92698
18	M	B	N	A	B	4	2	shapes	N	3	False	10	(-3.5330446658990375, -8.0877105118657688)	(5.4814275229503124, -6.6680903526414355)	(5.2384562196626039, 4.3059316603684561)	(-4.348040980202013, 1.908424792735719)	1.0	slash	1.02452
19	M	B	N	M	M	8	4	shapes	M	3	True	10	(-2.406489091459699, -0.14196522043147652)	(-2.2426930598133303, -5.4344434710883123)	(1.6647245771493502, 8.7011734047830664)	(-2.3708203739639178, 6.8498616889953787)	1.0	z	1.12826
20	N	A	M	M	B	8	6	shapes	B	3	True	10	(7.390480705494781, -7.9378677309383008)	(7.1332551034703897, 7.3697984187963108)	(-0.9538331676983729, 0.039453596158171678)	(-2.5642344380759976, 4.9565217228626786)	1.0	z	1.27596
21	M	B	N	B	M	4	0	shapes	M	3	True	10	(-4.8522526002481783, 1.3443311243271996)	(-7.3389108829024616, -7.4438881025323393)	(4.933077937769772, -6.0999718816349819)	(4.0892615900763829, 7.5819028274776663)	1.0	z	2.04743
22	M	A	A	M	B	4	1	shapes	A	3	False	10	(5.0137716868806308, -8.673693181252542)	(3.3985393251250215, 2.4335597466757228)	(-3.7932476678684939, 7.6619591970493879)	(-4.9400974643460849, -7.9911215212579609)	1.0	slash	1.27908
23	M	A	B	M	B	8	2	shapes	B	3	True	10	(-0.65461275449274758, -6.8831847394669508)	(-5.3136920263177885, 7.109770149619635)	(5.9730863930189493, -7.5695971331639118)	(7.9324158211479556, 0.1897721383562434)	1.0	z	1.39598
24	N	A	A	A	M	8	3	shapes	A	3	False	10	(8.4422964562457139, -7.2783841448219455)	(-6.3756187904354809, -8.3930797335117049)	(-4.1653736685200453, 4.3551805078742767)	(-4.4205931221501213, -0.59351762326621404)	1.0	slash	1.11412
25	M	B	A	B	A	8	7	shapes	A	3	True	10	(-2.96594916636516, -2.1041522860728614)	(-6.5279378710465501, -4.6991683707987848)	(-7.3258587110115325, 7.3156935025314667)	(5.7049439907919943, -4.0263672710818721)	1.0	z	1.77586
26	M	B	M	M	M	4	2	shapes	M	3	True	10	(1.6360939211349876, 8.4638141226604056)	(3.9250101131699076, -7.5280521023776226)	(-0.54231512498750156, -6.67630065014355)	(-5.7747746327285601, 0.31725811855338648)	1.0	z	1.87136
27	M	B	B	N	B	4	1	shapes	B	3	True	10	(5.9374543359691145, -5.147849460798243)	(-7.2458467322726996, -1.2323394942247319)	(4.7480408466911577, 5.7951632399387609)	(-3.0716634603948281, 5.1046095531732245)	1.0	z	1.09101
28	N	A	M	B	N	8	4	shapes	M	3	False	10	(0.64315218258752616, -6.6859239531378316)	(-4.9097025609937841, 4.9631781869187535)	(2.5180707651360432, 0.3615518680312455)	(-7.6563115742693295, -8.1518341405593713)	1.0	slash	1.08668
29	N	A	N	N	N	8	3	shapes	N	3	True	10	(-1.3805081709453599, -5.2464342520331115)	(-5.7486611787354915, 8.5895337610048692)	(8.4369026302133214, 1.0710710831721197)	(1.1989210524467282, 2.4115265992579893)	1.0	z	1.87417
30	M	A	M	A	A	8	1	shapes	A	3	True	10	(7.8441690396763946, -4.5929743274618389)	(0.65587694690370846, 8.4355599858753756)	(3.8333162889425818, -4.3012435987700934)	(7.1529984731705891, 8.6948309728307898)	1.0	slash	3.47175
31	M	B	M	M	M	4	0	shapes	M	3	True	10	(0.50438046225009181, -6.747916853303912)	(-4.7037052890016033, 1.5691346918186522)	(-2.545457813276971, -2.6226792298842598)	(7.8575954569350728, 4.1405478440188368)	1.0	z	0.971316
32	N	B	N	A	A	8	5	shapes	B	3	False	10	(5.1292819466828998, -4.3555609375661417)	(-2.8029720085785703, -1.7653296672153775)	(-1.2758171077340936, 6.0912158874677313)	(7.4991565013618633, 0.35213582751600114)	1.0	slash	1.64484
1	O	C	D	P	D	8	1	shapes	C	4	False	10	(-8.5086831652220702, 8.2021891141970933)	(-5.3355020973819993, 2.2899552292339536)	(8.3720729050302793, 2.6892179875805411)	(5.4791119308072513, 7.8272179429721369)	1.0	slash	1.38852
2	O	D	P	P	D	8	5	shapes	C	4	False	10	(-3.036394247361895, -2.8897489391918798)	(-0.0014312880734728139, -5.76923334544834)	(7.2515363324962365, -2.1493613041926221)	(8.6677537322594063, 6.9665331384953699)	1.0	z	1.01223
3	O	D	P	D	C	8	1	shapes	D	4	False	10	(-1.319307107905785, -4.6961382144054831)	(-4.8179873689835819, 7.9867796077188018)	(4.4481555005293707, 1.4473205811291514)	(-4.6101487932938614, -0.32773870811504047)	1.0	z	0.989774
4	O	D	P	P	O	4	1	shapes	D	4	False	10	(3.0134664669331581, 3.0165159338278968)	(-3.6656656159694263, -1.3624885561269338)	(0.18948892725453526, -6.6759992465423146)	(-2.4079018045140437, 3.5735313119786341)	1.0	slash	1.08123
5	P	C	O	O	D	4	1	shapes	C	4	False	10	(2.0096954607003976, 5.0237972561326156)	(0.69811922382133673, -7.417037128723587)	(-5.3751466603789542, 5.1134985591203694)	(-3.6640497013428641, -5.6577139600461326)	1.0	z	2.21908
6	P	D	P	O	D	4	2	shapes	P	4	False	10	(-2.3563555731526362, -0.67879423598479249)	(2.0886588546428406, 7.6030039983596325)	(0.52739259073107014, -4.8903035578537182)	(-3.6271233292112859, 7.655790164964948)	1.0	slash	1.17646
7	O	C	P	O	C	4	1	shapes	C	4	True	10	(4.4185427687291554, 7.9763767247232309)	(-6.6494018069470222, 0.034818322318983519)	(-0.62699209223604946, -1.4933088095917775)	(2.5903143459106825, -7.7712394704503716)	1.0	z	0.808199
8	P	D	C	C	P	4	1	shapes	D	4	False	10	(-8.6025512040244951, -0.87984349492757818)	(-2.9270959763828337, 3.0553261107578784)	(4.8585449979908528, 3.3885676830527789)	(6.2212711209767271, -2.0954810283675762)	1.0	slash	0.935887
9	P	D	C	C	P	8	6	shapes	C	4	False	10	(5.3230560341445852, 0.25034352929068859)	(-6.8442291244466009, 7.4085033917593854)	(2.0891892040811015, -5.3113872743643373)	(-7.3286399907400783, -2.635137852574803)	1.0	slash	1.08126
10	P	C	D	O	C	8	5	shapes	C	4	True	10	(1.703132396702042, 0.032049333541802838)	(-6.4406052990423355, -1.7567910604786761)	(-2.2493894583808132, -5.5812381971284557)	(8.4674767921954661, -4.7387017131205385)	1.0	slash	1.20512
11	P	C	O	C	O	8	5	shapes	O	4	True	10	(-1.2418389381681454, -7.7757710107157703)	(-2.5067451959978868, 7.5338984186255189)	(1.3398284386841119, 5.9959052548393892)	(6.1805013331652479, 1.43739777019257)	1.0	z	0.920606
12	O	D	C	O	C	4	2	shapes	C	4	True	10	(-3.937559678392403, -2.4969971491774734)	(4.7142826950647851, 2.9852254780999701)	(6.7474208584202149, -4.2476261461245954)	(-3.162340580545024, 4.8401879682932822)	1.0	z	1.83434
13	P	C	C	D	C	4	2	shapes	C	4	True	10	(-4.05328904509296, 1.3357134704484395)	(3.7846545762683448, 0.14688313811778464)	(-0.87315378389718035, -5.200379079167047)	(5.1032487228837962, -7.33408266512882)	1.0	z	0.917912
14	P	C	D	P	D	4	2	shapes	D	4	True	10	(1.7617821975048553, 3.4643695379575554)	(0.37722094507277681, -8.0792376928704162)	(-2.2482172293239477, 5.816303595148808)	(-6.8113911236829878, -5.6917841654719012)	1.0	z	1.49554
15	O	C	C	P	O	8	3	shapes	P	4	False	10	(5.5604298671401704, -4.0954213120329968)	(-2.2662407429856373, 3.8387044735825597)	(-0.38451241547905823, -7.1003464909968148)	(-4.146889999955178, -3.6034075891891328)	1.0	z	0.993035
16	P	C	C	O	C	8	6	shapes	C	4	True	10	(-2.9991073990681691, 3.0111671409485723)	(-2.9638902817701984, -1.2901839075499826)	(0.56969341245203431, 5.4135637290538643)	(6.1058361792910798, 2.4221299133537944)	1.0	z	0.974754
17	P	D	C	D	C	4	2	shapes	C	4	True	10	(-3.3230542740336979, 2.4511034625970751)	(1.4240921605948031, 7.9524695485442081)	(-7.2683047836059789, -0.70572257120314497)	(4.387311444047711, -8.0961653769049562)	1.0	z	0.990558
18	O	C	O	P	P	4	2	shapes	O	4	False	10	(-4.5178408027986077, -8.3828055602403708)	(-6.0824893753201845, 1.5882715942498429)	(3.7751990259447314, 1.7626375113776458)	(2.2548254592715544, -2.510454945919645)	1.0	z	1.94616
19	O	C	P	D	O	8	1	shapes	C	4	False	10	(-7.8239995904450277, -5.3149278781517859)	(-3.171156964597504, -3.6595000651696576)	(8.4476950303841249, -2.4000666066848364)	(3.4043995137176317, 8.0248187612860349)	1.0	slash	0.697768
20	O	C	P	P	P	4	2	shapes	P	4	True	10	(6.6903430518991254, 3.1339155800615952)	(-2.1887070585601416, 1.5230028546036625)	(2.2282358636140671, -8.1297652079718254)	(-3.4211652293952852, -5.1480230569148038)	1.0	z	1.84726
21	P	D	D	P	P	8	7	shapes	P	4	True	10	(8.7056331809471672, -4.1819988418360268)	(-0.85573414078870069, 4.8453096662024944)	(-3.0871676071704748, -2.4184789351609046)	(8.5344050609559545, 6.9009467202636632)	1.0	slash	1.34688
22	O	D	D	P	P	4	0	shapes	O	4	False	10	(-6.5650731879292907, -2.4471374150516718)	(3.277024489631259, 5.3456391489326496)	(8.2097793044455578, -8.5060527995084279)	(-2.4165305219894755, 2.9745150599664658)	1.0	z	2.16
23	P	C	C	P	C	8	2	shapes	C	4	True	10	(-1.2745434575211627, -6.8853589583352637)	(-1.3159409156365163, 7.8182025016549623)	(0.96799865246121719, 1.442092297446548)	(-7.4935195376289565, -7.740465571534263)	1.0	z	1.07013
24	P	C	O	P	P	8	0	shapes	P	4	True	10	(-8.6462332946686686, -3.6324775336444963)	(-4.1557392916308773, -7.008350012360542)	(8.2216999873144978, -8.5331165832574349)	(-0.79904649713267517, 8.4482575228156307)	1.0	z	0.789726
25	P	D	C	D	C	8	2	shapes	C	4	True	10	(-5.1546572706593476, 5.4014113621804469)	(2.3939108663249318, 4.4760589639604369)	(-5.0182623176728498, 0.4618178238048678)	(0.045631942326533448, -5.2171530711139393)	1.0	z	1.59741
26	O	D	D	O	O	8	5	shapes	C	4	False	10	(-5.9262381463516114, 7.3304774910209005)	(-0.99209110138131873, -0.20025437898633314)	(-6.7576232148523872, 2.9261567949109804)	(7.6167058139959032, -7.8829587737572631)	1.0	slash	1.32297
27	O	D	D	D	C	4	0	shapes	O	4	False	10	(-4.0144442857807121, -1.2085967580036794)	(4.4523965717018914, -4.5230314806557281)	(-6.2907296103532335, 6.1581479277194227)	(4.3793216327578417, 4.5929602164388879)	1.0	slash	1.0366
28	P	D	P	D	P	4	0	shapes	P	4	True	10	(4.5769319117134817, -4.9850123164865607)	(-7.2529760105466332, -4.5936890465531279)	(-2.3696201369081509, 3.7961963750538565)	(1.2601624318518923, 8.2985838070679421)	1.0	slash	1.42435
29	P	D	O	D	D	8	6	shapes	D	4	True	10	(0.047497505395998729, 1.6996790434933207)	(3.6701615709511017, 3.905210697472981)	(-7.2968533389453007, -4.382122247666568)	(3.7492288281826696, -8.0351286536235786)	1.0	z	1.39176
30	O	D	D	P	D	8	7	shapes	P	4	False	10	(-3.6362001096660972, -6.5999041388877391)	(7.4861205049168724, -0.15982192221441771)	(-3.5137415673747077, 4.2175502973890069)	(-0.75263704795353092, -0.39293039065627156)	1.0	slash	1.00544
31	P	D	D	D	O	4	3	shapes	D	4	False	10	(3.7141714327414661, -0.67337908216012821)	(-4.9716911557547832, 3.7739062324989181)	(7.0556390209021185, 2.2579277849636092)	(-0.25526311290476755, -6.0405591867604933)	1.0	slash	1.06311
32	O	D	C	O	C	4	2	shapes	C	4	True	10	(-6.78003869932272, -6.2574515428367574)	(0.29651448450711193, -1.8895468056031044)	(-2.3296012333761524, 5.4016912777114356)	(7.4536494495867558, 7.5365527851856058)	1.0	z	1.00477
1	Q	E	E	E	F	8	5	shapes	E	5	False	10	(-1.4226993960360144, 8.4150222356090794)	(-8.5934057040145113, 2.0926243895923271)	(0.04606471661917233, 2.3808742186271523)	(7.4250432637143113, 6.6225455741914701)	1.0	slash	5.72419
2	Q	F	E	R	Q	4	1	shapes	F	5	False	10	(-1.7750641891869678, 7.2607502464919378)	(5.485601666825902, 2.1110788627332635)	(-4.8370603048874994, -4.0916211877098672)	(1.2820936063766197, -5.6001316763773676)	1.0	slash	1.2935
3	Q	F	R	Q	F	8	4	shapes	E	5	False	10	(-2.9732981418054587, -8.4767027873993186)	(-5.5794334783477879, -4.3140657554285031)	(7.7806343638875965, 5.9382183596583449)	(2.623923857219788, -4.2649129660960554)	1.0	z	1.32712
4	R	E	R	F	F	4	3	shapes	F	5	True	10	(-4.1911662078587817, -2.7934164083857453)	(0.99946932605672067, 8.4420938034660793)	(-2.9899777008975486, 4.777335376137108)	(4.4385512464595287, -6.3177326627840102)	1.0	z	1.80087
5	R	F	R	R	F	8	3	shapes	R	5	False	10	(-6.8608633064844806, 2.8200229540686248)	(3.9412446940684873, -4.3184346997753345)	(-3.2522197661142656, -6.5052483616343348)	(2.2328718788233424, 8.6178744031826255)	1.0	slash	1.52619
6	R	F	Q	R	R	8	3	shapes	R	5	True	10	(4.5952452818893104, -2.7189458268699163)	(-5.0597273980954292, 1.2785919665984871)	(-3.1722202160939759, -5.9363213428897588)	(-0.74777683821390184, 7.6837727669122025)	1.0	z	1.83407
7	Q	E	E	R	Q	4	0	shapes	Q	5	True	10	(-5.8264070093176139, 7.1972582882617093)	(2.5093294151221226, -7.7516877708083154)	(-4.8255068637945238, -7.9629767609426878)	(2.2897334923357473, 5.1863456936979961)	1.0	slash	1.42154
8	Q	E	F	Q	F	8	5	shapes	F	5	True	10	(-6.4807962324941926, 1.5915601611913299)	(4.7085411982662908, 3.1619033926884637)	(8.6244668518563294, -8.1706768433013188)	(2.6141206413079168, -6.4673894983832119)	1.0	z	1.25516
9	R	F	R	F	F	4	3	shapes	F	5	True	10	(3.0374606910202946, -7.1957301063936034)	(4.3748275015917546, 8.5827366127633731)	(-0.87262696479397128, 3.0949154779695505)	(-3.2816974604399434, -0.96243481758436022)	1.0	z	1.03084
10	Q	F	E	R	F	4	1	shapes	F	5	True	10	(0.34530163453780283, -6.6900637862329368)	(5.6513219841752473, 6.573228958413937)	(-3.148067530361133, -1.3669013707955875)	(-0.39968598845098491, 3.5943147621161238)	1.0	z	2.07437
11	Q	F	E	F	Q	8	2	shapes	E	5	False	10	(-1.4449635623309947, 2.4483555105852659)	(6.4896914711415601, -3.7928789671497913)	(8.2066801700091894, 4.3420924467836954)	(-2.4723067807435966, -5.6551674114383292)	1.0	slash	1.03209
12	Q	F	E	Q	F	4	3	shapes	Q	5	False	10	(-1.5899817703879915, 6.3333433289675192)	(-2.2907949541218864, -8.0713432570805725)	(7.1056090593009866, 2.7918703290650555)	(3.646066929205622, -3.9120397885847371)	1.0	slash	2.04364
13	R	E	Q	E	F	4	0	shapes	R	5	False	10	(-6.6073281944340607, -3.3833339916782554)	(7.4635229761310669, 1.7954983925329433)	(-7.9202441197923079, 3.601150182518488)	(3.7196068955709745, -3.0177737777918479)	1.0	slash	0.869126
14	R	E	E	F	R	8	0	shapes	R	5	True	10	(4.1520311629581474, -1.2702229194454677)	(7.5789796237521827, 5.9784891232597044)	(-7.9006752878862674, 3.5586426048990631)	(5.2939219881019142, -5.5671437495846696)	1.0	slash	1.99477
15	R	E	E	E	E	4	1	shapes	E	5	True	10	(1.7837264306588665, 0.99550862841505428)	(5.3313789971137791, -3.8823621197329503)	(-6.559985373884281, -6.8428701568135217)	(-7.0517396369081471, 2.8884825898244291)	1.0	z	1.75845
16	R	E	Q	Q	F	8	6	shapes	Q	5	False	10	(0.91343116289840864, 8.5283252435133932)	(-2.6512157337224647, -3.2241770007180746)	(-7.5738076530064937, 7.4341699918647741)	(8.6062772528083364, 7.4297748565368771)	1.0	slash	2.09988
17	R	F	F	Q	E	8	7	shapes	E	5	True	10	(-5.3442570754592555, 8.395038695474458)	(-2.7147058263008077, -0.17540701934759007)	(2.5905401838667483, 5.4455118326376653)	(8.1611017022132692, -7.2894755400138536)	1.0	z	1.78168
18	R	E	Q	F	E	4	3	shapes	F	5	False	10	(2.1658454970736667, 6.7222084329612031)	(-8.4580204849035709, 2.7203633578851267)	(6.9480643448618302, -0.78642760548100554)	(-3.9388107231043845, -6.5403332860523697)	1.0	slash	4.30715
19	R	E	F	F	R	8	7	shapes	R	5	True	10	(1.6473520143792566, -0.82086478719620803)	(4.3178401033070255, -7.1217817834902331)	(6.9227106724968657, 8.5995609894255409)	(-4.1138779933766942, 4.5909768054099338)	1.0	slash	1.12861
20	Q	F	E	R	E	8	5	shapes	E	5	True	10	(1.4513790073414725, -6.4601665998041717)	(-7.2038369209364461, 1.7460877592549267)	(6.0364121803896733, -5.1907882344143879)	(2.56918169653067, 1.7310814277678901)	1.0	z	2.03615
21	Q	E	F	E	E	4	3	shapes	E	5	True	10	(8.5223687893308018, 2.9327116725444142)	(-5.146781252458795, -6.3402837259202407)	(-5.6880634478137573, 8.0766378279306252)	(3.5355036647634766, -5.7944405115740869)	1.0	z	1.2456
22	R	F	F	F	F	4	3	shapes	F	5	True	10	(0.082369412395792097, -1.7903937029281334)	(-0.099964960581083062, 2.6263765589394694)	(-3.1614795619225839, -6.2972444533815271)	(1.1055689818192551, 6.548159811568631)	1.0	z	0.999243
23	R	F	R	F	Q	4	2	shapes	R	5	False	10	(4.75778579949068, -4.43972314760813)	(-4.5545120024712666, -1.2480853458985051)	(-2.178520404826906, 3.0322527409621269)	(8.2437735751689019, 0.29661830484567275)	1.0	z	0.840967
24	R	E	R	F	F	8	7	shapes	R	5	False	10	(2.0077588569669054, -0.21583408844298191)	(-1.6381674804861053, 7.7457079696443927)	(-2.9433991744375136, -0.45319216274714691)	(-8.3410449339501085, 8.1082227490587044)	1.0	slash	1.02467
25	R	E	R	R	Q	4	3	shapes	R	5	False	10	(1.8829482603720891, -3.6183845184076642)	(3.2379745657680736, 3.0372686859641096)	(-3.1094846429721903, -1.9814280933024042)	(-3.5513200004005911, 4.3374228832352877)	1.0	z	1.11823
26	R	E	F	Q	F	4	3	shapes	Q	5	False	10	(0.78560837521820304, 8.612999671300031)	(-2.26547900894961, -7.5262229247844727)	(-6.5657174008431918, 5.0320785689115741)	(4.238742667102736, -5.4734295877645476)	1.0	slash	1.03175
27	R	F	R	E	R	8	0	shapes	R	5	True	10	(7.8165322936938857, -4.4822227630551907)	(-7.5000835219570572, -5.5740912999857457)	(1.5599361936545204, 6.8771238748546413)	(-1.3749018571607072, -5.3677211688918378)	1.0	z	2.1275
28	Q	F	R	R	F	4	1	shapes	F	5	True	10	(-2.7073414874265751, 4.9581395563342188)	(-2.8022152070088371, -6.9179598882801008)	(2.6397823377359, 3.1052442039843537)	(7.2102669187344031, -2.5269855102769041)	1.0	z	0.985105
29	Q	E	F	Q	F	8	1	shapes	E	5	False	10	(6.1920226867441563, 8.6851979495885736)	(1.3295050795739769, 3.9276419775410876)	(-1.4738313269087717, -6.8361745637756535)	(-3.6708223979345203, 7.4224686333735761)	1.0	z	1.00064
30	Q	F	R	Q	R	8	6	shapes	R	5	True	10	(7.8261001633280962, 2.4956581115551177)	(6.6804429387528224, -7.4019335345883484)	(2.6090907818231894, 7.0419314349004463)	(0.15581499634373053, -6.5604053204326478)	1.0	z	1.51019
31	Q	F	Q	R	F	8	7	shapes	Q	5	False	10	(1.755190522336358, 1.1266849584374885)	(3.9228518415214779, -2.5615557584329736)	(-6.0670806558571009, 6.63678674089347)	(7.0087745460727771, 5.6837223765928595)	1.0	slash	1.26784
32	Q	E	E	Q	E	4	3	shapes	Q	5	False	10	(3.8569390129342445, -3.1719600650293431)	(2.7151199253655545, 1.3809821667893036)	(-8.407545686061999, 3.0168453008660947)	(-3.1200064328616017, -8.5278872877457257)	1.0	slash	0.935391
1	N	B	M	A	N	4	0	shapes	N	6	True	10	(7.2315192756294699, -7.5795397631519545)	(-5.2980416182473924, 4.1930415163002355)	(-8.0132739274538078, -3.0840922546086755)	(5.0283549804810779, 2.1484346441831388)	1.0	slash	1.06524
2	N	A	A	N	M	4	3	shapes	N	6	False	10	(-3.2900747442519247, -8.7213125997240937)	(-2.5398120319583803, 2.9772831993487099)	(2.9143103238353589, 1.8148778242711572)	(8.2114687647654847, -1.3302526977491)	1.0	slash	1.47091
3	M	A	A	M	A	4	2	shapes	A	6	True	10	(1.2446349680679631, -5.7405973236443488)	(3.2701039703875683, 3.1619433998872193)	(-0.16445087886647336, 6.3894116826312626)	(-6.1978455829233505, -0.23755809133908379)	1.0	z	1.27451
4	N	A	N	B	M	8	6	shapes	M	6	True	10	(-5.5743830580548996, -6.0035294547450526)	(7.8904541704308819, -3.5033231266445517)	(8.4472752907866315, 8.119233578978811)	(-2.732838695328482, 0.51234159348991604)	1.0	slash	1.92794
5	M	B	B	M	M	8	6	shapes	B	6	False	10	(2.4800033829177757, 6.8129344601165496)	(7.2286091384657478, -1.7666323542332467)	(-2.6808647947491071, -4.5443979050405021)	(-8.6631956107255164, -1.1459871474236154)	1.0	slash	1.94756
6	N	B	B	A	M	4	3	shapes	A	6	False	10	(-4.6037831809095513, -0.36485835711513914)	(1.6723748745376454, -4.3693768190777149)	(3.9836573161688786, 3.0118168231196449)	(-4.7386327032646056, 7.9451214411520574)	1.0	slash	0.823296
7	N	A	M	M	N	8	2	shapes	M	6	False	10	(-3.0803487696858225, -8.6061147398335045)	(-2.0276304935469209, 6.6617317069257496)	(4.898040754858906, -0.25688074217454826)	(1.8864427041749483, 8.5387104075000337)	1.0	z	0.862654
8	M	A	B	B	B	8	2	shapes	B	6	True	10	(2.441299542509519, 2.0366234458252741)	(7.8053610589905951, 1.409310085361092)	(6.2151878302132957, -6.7401612108421443)	(-8.6133629165946957, 0.80663925144784443)	1.0	slash	1.16644
9	M	A	M	B	N	4	0	shapes	M	6	False	10	(-3.9779016419519531, 7.6897823421398606)	(4.8382762928824885, 0.72883335907556557)	(6.5666306273904382, -5.325646971080884)	(-3.6295123513012584, -3.785624043944221)	1.0	z	1.59219
10	M	A	A	N	M	4	3	shapes	N	6	False	10	(8.5362069063359307, -2.7439082364741019)	(2.5742083877851556, 0.2880611323458826)	(-3.6026408281692257, 0.83121181116008458)	(-0.10508618777263479, -6.0746628510578162)	1.0	slash	2.3718
11	N	A	B	M	M	4	3	shapes	M	6	True	10	(-6.6124054106763452, 2.2414672252607151)	(-5.6024769702136759, -7.5331744174229947)	(1.5790728258955102, 4.9187948243090869)	(7.3268090538985078, -4.4977628924128048)	1.0	z	1.15526
12	M	A	B	M	B	8	4	shapes	A	6	False	10	(6.5530113710423699, -4.1063675415216974)	(0.30263538457800365, 6.9426693319987596)	(-5.9034397447517186, -6.3100401444717367)	(5.0261000363481756, 4.4011317466486144)	1.0	z	1.75077
13	N	B	N	N	B	8	5	shapes	B	6	True	10	(-8.10147636293798, -7.4140174140937498)	(2.9634047720169185, -4.7927317196094164)	(6.5879564862529083, 1.8233436243504659)	(-0.8249311952617937, -0.96615959427600639)	1.0	z	0.964314
14	N	A	M	N	A	8	6	shapes	A	6	True	10	(-6.7804388646150784, -2.0573060636291718)	(0.0073118985907569822, 7.9717016041127664)	(8.3867377103965985, 2.0625473731503092)	(3.7254637213653048, -4.8624755501794965)	1.0	slash	0.936122
15	M	A	M	N	N	8	3	shapes	N	6	True	10	(5.9830921328905653, -4.080503797066152)	(-1.4100823374635238, 7.6404259416467966)	(1.9091208944878755, -7.2404019764844705)	(1.8622398567591567, 0.71569039017989056)	1.0	z	1.26569
16	N	A	B	N	M	8	1	shapes	A	6	False	10	(-6.830148412971818, -2.7079883512537855)	(-0.85657777722077721, -0.4472799424701428)	(-8.1681066109346236, 3.8401606542250075)	(5.6248827496963045, 7.4303431992266376)	1.0	slash	1.09736
17	N	B	B	B	M	4	2	shapes	B	6	False	10	(0.9426467551383535, -2.8592794216073409)	(7.454236457343935, 2.0377016657435885)	(-1.6259218277067662, 7.8032466019955464)	(-6.8780643433057955, -2.1082060191161673)	1.0	slash	0.721005
18	M	A	N	A	B	8	0	shapes	M	6	False	10	(1.9880840689851844, -6.3841612923066391)	(0.54790998119413814, 5.7391006719261224)	(-8.4838657062125442, -7.3329511111009351)	(8.2285424375708303, -6.5304238541881929)	1.0	slash	2.46856
19	M	B	B	M	M	4	3	shapes	M	6	True	10	(-0.87328002675545147, 8.6297282897462608)	(-2.5482393687593126, -8.0825934943379369)	(4.1964037659276006, -1.3536290590271385)	(6.9276496341803711, 4.2195298664827874)	1.0	z	5.01592
20	N	B	B	N	A	8	1	shapes	B	6	False	10	(3.6429460775375837, 7.5404360962887083)	(8.3641781232783217, -4.6651755882414463)	(0.25859514656451132, -7.8045310274131889)	(-4.8556611701642467, 6.4949925312519561)	1.0	slash	1.32142
21	N	B	B	B	M	8	7	shapes	M	6	True	10	(-1.0726147165634057, 2.2473531155615944)	(-2.7928560581992006, -8.1214071981218332)	(-2.1893708933701648, 6.9710542079070059)	(-3.5445871504473301, -2.9329489326299401)	1.0	slash	1.23698
22	N	B	N	A	B	8	6	shapes	M	6	False	10	(-6.643920869128177, -3.8186386506521703)	(8.3525788094236901, 8.3861566437162089)	(1.5551456457134378, -0.7269799237612844)	(-4.6203583971584994, 1.0583654561576044)	1.0	slash	1.18674
23	N	B	N	A	A	8	3	shapes	A	6	True	10	(4.9388045593600491, -3.698265705120269)	(-7.6890427173586078, 1.4090207944461657)	(6.2907133778132902, 6.0683694368945176)	(2.1377184301175394, -0.63052652906962869)	1.0	slash	1.14618
24	M	A	B	N	M	4	2	shapes	B	6	False	10	(1.8484861035012976, 6.2508086549281057)	(7.5509030880695462, -2.5178431272661754)	(-5.8524916739251296, 0.70551843330372499)	(-5.7587233837648792, -7.6684364734099306)	1.0	slash	0.73596
25	M	A	N	N	M	8	7	shapes	N	6	False	10	(1.3078417037543719, 6.7656088385566555)	(4.0850665655134915, -1.0723413038280842)	(-5.7733668585097533, 6.2870884993182585)	(-4.6028167573950567, 1.5828755169701871)	1.0	slash	0.889483
26	N	A	N	M	M	4	3	shapes	M	6	True	10	(-4.8085896897716118, -1.3832563278679553)	(-3.6364167006430765, 8.0799743890044127)	(7.5543339783755137, -0.00087639255646365655)	(2.1333011182332928, 2.4456319514786653)	1.0	z	0.713274
27	M	A	B	N	A	8	1	shapes	A	6	True	10	(5.8123788319656349, -7.5156175374570449)	(-8.3677474769979412, 0.97336536756290393)	(0.43849604286263499, 3.7799946279283532)	(-6.8295693037442531, 8.231525413862002)	1.0	z	1.59902
28	N	B	M	A	B	4	2	shapes	M	6	False	10	(-2.2023474208613294, 7.6779307573635229)	(6.4110246695466735, -3.7369344657884449)	(-6.0849211564304282, -8.6615325297065997)	(6.8935115986905, 6.743285153496112)	1.0	z	2.70438
29	N	A	N	M	A	4	3	shapes	M	6	False	10	(5.2048681484914407, 0.91266242615973603)	(-6.050490972845008, -1.7355903546510492)	(-8.1526664571685359, 8.3151440052791727)	(0.0090375579969741437, -8.6763550344962077)	1.0	slash	0.894036
30	M	A	N	N	N	4	3	shapes	N	6	True	10	(2.4761327133781705, 4.3063290985569864)	(6.713356629790475, -2.9618123061331412)	(-5.0141005602459341, -7.610502005165702)	(-3.8285229757673633, 0.88368917972256256)	1.0	z	1.86968
31	M	B	B	A	B	4	1	shapes	B	6	True	10	(3.1328802378588616, -2.3008553243325665)	(-3.1856165837036761, 6.8451403045089183)	(7.983230357938556, 6.5637719982682654)	(-8.6824565194897065, -2.5733494764097857)	1.0	z	1.35131
32	N	B	B	A	A	4	3	shapes	A	6	True	10	(-4.0956914029257216, -5.1478556590411397)	(3.5161106746947919, 8.7174431274331852)	(8.4753844646169938, -4.4493399550529533)	(-0.092275368161942595, 4.4854066635098082)	1.0	z	3.28845
1	O	D	D	O	D	8	5	shapes	D	7	True	10	(-3.756632319759694, 6.0358165864216868)	(4.0072381016628054, -0.75065656115227686)	(-8.632693918451583, -2.7427678356157497)	(3.9019977287239449, -8.0157243345300273)	1.0	slash	1.53032
2	P	C	P	P	P	8	6	shapes	D	7	False	10	(8.6250462567101316, -2.815408471863428)	(-4.7748937864015808, 4.8527447177646348)	(8.6257056551423901, -8.0933522578594577)	(-0.79592139340184698, 1.8561576737304737)	1.0	slash	1.1739
3	O	D	C	C	C	8	7	shapes	C	7	True	10	(8.1501148970461408, 1.7295277361774257)	(1.986611591982415, -1.5487293968075759)	(2.2447294832313585, -7.6019708403716493)	(-2.4397129744752046, -8.3589429579535164)	1.0	z	1.04758
4	O	C	P	D	P	8	2	shapes	P	7	True	10	(-1.6525925465774414, 4.0123394522845075)	(4.5461808921623827, 8.668412314054617)	(3.1330692719381847, -4.9082458454460713)	(-6.0022803341773656, -1.0225005046360307)	1.0	slash	1.94518
5	P	D	C	D	P	4	0	shapes	P	7	True	10	(6.6542774196910184, -5.1455374292397273)	(-4.0534190712335487, -1.4698065146384192)	(0.16432748650882978, 1.2446937206465893)	(-1.5510900991485226, 6.2315366910324919)	1.0	z	1.12663
6	P	D	O	O	P	4	0	shapes	P	7	True	10	(-5.3177657262485054, -5.5625543816736682)	(-6.2011041878870214, 2.0329863339706904)	(4.2216984785090474, -8.0915070804954432)	(5.2472880069138235, 2.9118866158619028)	1.0	slash	1.62433
7	P	D	D	O	P	8	4	shapes	C	7	False	10	(2.7878635161918659, 3.0116261836659053)	(-7.8782170590766203, -7.760745938563014)	(4.2359067403043991, -3.8101225935946053)	(-6.2999797448580033, 7.3438717486709422)	1.0	slash	1.86341
8	O	D	P	O	D	8	3	shapes	O	7	False	10	(6.8826536647532173, 2.0641130421541565)	(-5.12549194530924, 4.9582200863175458)	(-6.2751335496119296, -5.3998464709248664)	(5.357485497902827, -1.8556239779992252)	1.0	z	2.20744
9	O	D	P	C	C	8	1	shapes	D	7	False	10	(8.0120469786052517, 2.6727212438158201)	(-4.8573008289155348, 5.387201427156457)	(7.5700462230248782, -6.6505882896636441)	(-2.8218059137641731, -0.90005681828688022)	1.0	z	0.954959
10	O	C	C	O	O	4	3	shapes	O	7	True	10	(-4.9354333952127991, 6.081366902588659)	(7.7578309873054572, -0.61641871617342581)	(8.2796180035372196, 7.2668107719366226)	(-3.5904629378298809, -6.2567654952031955)	1.0	z	1.55875
11	O	C	O	P	D	4	3	shapes	P	7	False	10	(4.40205679255976, 0.53536288685647371)	(-2.5265385776680107, 5.6807317643195585)	(-1.4698021576684113, -2.103441880970605)	(7.4118623253531908, -6.0953446877612345)	1.0	slash	1.46435
12	O	C	C	O	P	8	7	shapes	D	7	False	10	(-2.4144141258401488, 8.2157892574828004)	(1.7541374131089391, -7.6555282860759295)	(2.0064884388587068, -1.6489504433860667)	(6.5498426286211568, 7.5736229938385264)	1.0	slash	1.19179
13	P	C	P	C	C	4	0	shapes	P	7	False	10	(-0.89589777017580197, 6.102839861105247)	(-1.3936167894567912, -7.2305717638772089)	(3.6651640956044833, -2.7793637752391414)	(6.3115391721029663, 4.7535652594880826)	1.0	slash	0.77948
14	P	C	C	O	O	4	0	shapes	P	7	False	10	(7.215797962159181, -4.1718274779827231)	(7.2776561914159217, 3.6154860852333908)	(-3.1802628757349245, 3.4558042897784969)	(-2.8394685716168242, -2.8142810232888165)	1.0	z	1.60119
15	P	C	C	O	D	4	1	shapes	C	7	False	10	(1.0288898839111056, 4.429341265913278)	(-4.5407821791663858, -2.7946853615090159)	(-7.9020843499616298, 6.0442393895243569)	(8.1637834859148697, -3.6954681521657466)	1.0	z	1.01081
16	O	D	C	O	O	4	0	shapes	O	7	True	10	(2.7475975315117633, -1.3212263462801008)	(-8.7201898270336251, 2.6453864061342394)	(-5.6443404847135588, -5.7766336330122883)	(1.0112352194724519, 3.1713869060034767)	1.0	z	1.55446
17	P	D	O	C	P	8	0	shapes	P	7	True	10	(1.7654547359755615, 5.8436596527390012)	(-0.7231611827812543, -2.677227295127163)	(-6.2247304663464131, -3.6017808093414896)	(-4.3656126638838924, 7.1584857702942042)	1.0	slash	1.75989
18	P	D	P	P	O	8	7	shapes	P	7	False	10	(-3.435407446800653, 0.97567780932505066)	(0.21142040620610381, 2.8242796989546122)	(6.995966980502633, -8.6106844682079924)	(3.7318100777781904, 6.9201532549234201)	1.0	slash	3.38952
19	P	C	O	C	C	8	5	shapes	C	7	True	10	(-7.9960919933240753, -3.4681224148947152)	(8.0475821887472172, -7.6173278312291668)	(-5.3886097375448809, 7.1873518955419993)	(8.599659637679764, -0.52933304282922045)	1.0	z	4.22891
20	P	D	O	D	P	4	2	shapes	O	7	False	10	(-7.8645404363915441, 4.4583740683501727)	(3.5384485610210792, -8.0295459306642343)	(5.0769169469517905, 8.1590946498602719)	(-6.4530877812760812, -0.42230860073080656)	1.0	z	2.45648
21	O	D	C	C	D	4	1	shapes	D	7	True	10	(5.9596466663671421, 1.5353179781422135)	(-5.9145829142709516, 1.5419177571883562)	(1.5630609768367307, -6.8171598566236282)	(-4.0712473498619142, -7.1730578774297573)	1.0	z	1.29586
22	O	D	O	O	C	8	5	shapes	C	7	True	10	(5.0840762522581304, -1.5557750104204242)	(6.2001208495145743, -6.7847016530960627)	(-6.9537331391173458, -4.0951597191373326)	(-7.1558476449052266, 4.068257475394855)	1.0	z	1.27336
23	P	D	C	O	D	4	2	shapes	C	7	False	10	(-8.1012931113856759, -5.5484530532791823)	(3.652668701144453, -1.0115295225304797)	(2.2479398812779152, 6.4257864438065546)	(-1.8382327981709867, 2.1287879471808591)	1.0	z	1.13316
24	P	D	P	O	P	8	2	shapes	P	7	True	10	(-1.2186551587920906, -2.1305030120844073)	(3.5666511392696467, -6.2327160975946576)	(6.8342589143517731, -0.032051737273185665)	(-8.3489580185146686, -1.1539000062229325)	1.0	slash	1.17474
25	O	D	D	O	D	8	1	shapes	D	7	True	10	(-7.3544459928917414, 3.7919215820884737)	(-4.3717688910283243, 0.80709150444039501)	(2.5847016073940257, 1.9520646830725923)	(4.1162812743834483, 6.4982023034421914)	1.0	z	4.03042
26	O	D	P	P	D	4	1	shapes	D	7	True	10	(1.0668897897801504, 4.3033757103337944)	(1.9894537149678975, -0.061328213655583497)	(-3.0518968742843215, 1.717356916518785)	(-1.3668746216298535, -3.4466060158660943)	1.0	z	1.14596
27	P	C	C	D	C	4	1	shapes	C	7	True	10	(2.6548219350695472, 6.4922485396151561)	(2.5056642103083746, -2.1586013165731597)	(-4.6388462162579298, -3.496321920070403)	(-8.4389067039619032, 5.656481745714947)	1.0	z	1.56749
28	O	C	P	D	O	4	0	shapes	O	7	True	10	(-0.75549869731355024, 8.6623232983515202)	(-6.7044804664514679, -4.0351127930511854)	(7.7549537607090002, 0.068637554887184038)	(4.410193119359894, -2.2911249116938404)	1.0	z	0.977132
29	P	D	O	C	C	8	1	shapes	D	7	False	10	(-3.3008826732474272, 5.1755788997046572)	(-6.3499511940848867, -5.35595377209403)	(7.3441597058995853, -7.2162839279754243)	(7.2557918664495027, 2.4359614788747965)	1.0	slash	2.77661
30	O	C	O	P	D	8	6	shapes	C	7	False	10	(-8.5885341602761578, -5.8528386578113381)	(-3.0960390703612113, 2.6863298426218893)	(5.9504991709130852, -0.4952881738640702)	(2.8001843285916461, -7.4320255295467499)	1.0	z	1.56015
31	P	C	O	P	D	4	2	shapes	O	7	False	10	(4.3918117008516848, 6.9979769414544553)	(5.1817244884762186, -6.5302821606213062)	(-5.5944164289151121, 0.23380673680809494)	(-7.6940750896710641, -8.1661492234580457)	1.0	slash	0.713708
32	O	C	D	P	P	4	2	shapes	D	7	False	10	(2.4919115400438088, -3.269653540644998)	(0.54923770539715555, 3.6951490913743008)	(-3.8076487302894328, -0.98502993272123884)	(-3.4819769116095669, 8.4365704124501839)	1.0	slash	1.14143
1	Q	E	Q	F	R	4	3	shapes	F	8	False	10	(-1.0572209730454034, -7.5144928429065718)	(-3.265171242953218, 2.6183689224383979)	(3.2405700659942198, -6.9797482304054652)	(4.3942686075860244, 0.30906125286023212)	1.0	slash	1.40715
2	R	E	F	E	F	8	7	shapes	F	8	True	10	(2.2914469830673614, 0.51136363065955237)	(7.8328444527762286, 6.2210553544916607)	(2.7458301434897692, -6.1543841763019751)	(-7.5669120623254722, -0.33076667618065336)	1.0	z	1.33675
3	Q	E	F	Q	E	8	5	shapes	E	8	True	10	(2.6037214632370844, 4.3300724586954811)	(6.1891245010346054, 7.5126304609005246)	(-2.378212112859444, -0.24346405782715763)	(-6.8997579614627575, 4.5180276730740658)	1.0	z	1.3143
4	R	F	R	F	F	4	3	shapes	F	8	True	10	(-6.9720116404271053, 4.6984399684667011)	(1.8802924138987862, 6.1289138094739002)	(-3.3449583268441563, -3.2079842437129136)	(2.8104331684779158, -6.8536795752914959)	1.0	slash	1.64586
5	Q	F	E	Q	F	8	5	shapes	F	8	True	10	(-0.26588849692664596, 2.1512588017167236)	(-0.70070110232144067, -4.8842337849959847)	(-4.8019625557546446, -7.5588653667895525)	(-8.2400007040675405, 0.59981205424967676)	1.0	slash	1.43935
6	Q	F	E	R	R	8	6	shapes	R	8	True	10	(-6.8304844903347295, -4.5389395112511037)	(-8.6323765529633487, -0.5526861584907774)	(-3.8747988458587264, 7.2732679361677661)	(7.8378322977522821, 8.5468803978567784)	1.0	slash	1.48511
7	R	F	R	F	R	8	2	shapes	R	8	True	10	(-5.5684988238031936, 0.24755104007332385)	(-1.9512316500933782, -3.7696787326220562)	(-1.0197607500496346, 7.2656354797555984)	(7.9363525273698308, 2.5905915456564266)	1.0	z	2.10463
8	Q	F	F	E	E	4	1	shapes	F	8	False	10	(5.6072497722089434, 6.0916462567862659)	(-8.5607578189033493, 0.85693323515883257)	(3.0199138892001756, -7.6299801268721348)	(-7.0096641731834746, -5.2714612452730378)	1.0	slash	1.06221
9	Q	F	R	Q	E	8	5	shapes	R	8	False	10	(0.43090232102435344, -6.0443641692792429)	(0.32908729936314529, -1.5770638213645141)	(-8.0937375364858308, -1.8101840808875593)	(0.27689877045412814, 3.9449215072038939)	1.0	slash	1.72384
10	Q	F	F	Q	F	4	2	shapes	F	8	True	10	(-2.0402776770806339, 6.8177379513175165)	(6.9890083062605406, 6.7542934858027266)	(-3.834726403647096, -3.1348924125959119)	(1.4926995784933617, -6.8166933059016097)	1.0	z	1.61338
11	Q	E	E	E	Q	8	4	shapes	F	8	False	10	(-5.5773823957950359, 7.8800889553964097)	(6.1472751052567567, 8.5374289253070863)	(1.9839064988102564, 8.7157386307656886)	(3.745306977207786, -7.5323998413141666)	1.0	slash	1.11916
12	R	E	Q	E	Q	8	5	shapes	F	8	False	10	(0.14764430521324101, 6.4959937348725898)	(4.1404528921580592, 0.71361668308646742)	(-8.2413980341619695, 8.4948515258383388)	(-7.9962846711230657, 2.9898584093838583)	1.0	slash	0.666731
13	Q	F	Q	Q	R	8	3	shapes	Q	8	False	10	(8.1558704434641918, 4.0889070034069999)	(3.7643795427678342, -1.5280603150604817)	(-6.7287916292964027, 5.1813745365255688)	(-3.308622956289601, -5.1801591382946928)	1.0	slash	2.62634
14	Q	E	E	F	E	4	3	shapes	F	8	False	10	(-2.1360689303619669, 8.1522927142649664)	(2.4828288090084509, -6.2225130599841796)	(1.3620609347898132, 1.0523620245229797)	(-6.558988206185651, -6.3413101746046152)	1.0	z	1.13581
15	Q	F	F	R	F	4	1	shapes	F	8	True	10	(6.082888337879595, 2.0752179462502909)	(-8.1523297875572887, 4.2531849709177418)	(0.51281416026991522, -4.7185220517800452)	(-5.9949463982231457, -5.5293086976887373)	1.0	z	1.43914
16	Q	E	F	R	E	4	1	shapes	E	8	True	10	(-0.77273081997505066, -2.3467117158912343)	(3.6611717038302469, 2.0187850601168531)	(5.2852991741986965, -3.1901458663958673)	(-1.0358105652169085, 3.0902665484007326)	1.0	z	1.00111
17	Q	E	Q	F	E	4	1	shapes	E	8	True	10	(-0.42949494222137297, -6.6796096626751957)	(5.284799367786766, 6.8771891565295054)	(-1.7754521253909132, 8.7336921411113195)	(7.7162331317590223, -1.7928126774495565)	1.0	z	1.30678
18	R	E	E	E	F	8	4	shapes	F	8	True	10	(-6.3203152597683889, -3.6270055697453225)	(-1.8671972074722714, 0.41714691414527216)	(4.0682326069635177, -4.9977269000631708)	(-2.1756382207043377, 4.5821241637706365)	1.0	z	2.05029
19	R	E	E	F	Q	8	5	shapes	F	8	False	10	(6.0679139212771869, 4.6735188417916973)	(-0.42419982668316258, 4.8509098322679787)	(3.472228771766618, 0.024726881920020816)	(-8.0509830676008693, -2.9953088796312173)	1.0	slash	0.835815
20	Q	F	R	F	F	4	1	shapes	F	8	True	10	(7.2346638414914555, -1.7641606318758809)	(5.9313632303058341, 7.6913548016347555)	(-3.4358900653073272, -6.5745590863384695)	(-6.8990922810757072, 1.4060967909693058)	1.0	z	0.919591
21	R	F	Q	F	Q	4	2	shapes	Q	8	True	10	(-8.3603485583392221, 4.1702480107555306)	(-6.3001799559291145, -3.2627212979520257)	(4.5561583347048202, -4.6401664599589152)	(0.99415073888932781, 5.1056591182614586)	1.0	z	2.99318
22	Q	F	E	F	E	8	5	shapes	R	8	False	10	(7.5979824815923536, 2.810482376302005)	(7.3787469235495209, -3.5442536388782209)	(2.4143211149789874, 0.36099793276887482)	(-2.3396438526270504, -0.062664541719790634)	1.0	slash	1.07883
23	R	F	E	F	F	4	0	shapes	R	8	False	10	(3.0871542530248242, -6.917400273685792)	(-5.4088881609459261, -4.8749343875402769)	(-6.8063509003451337, 6.4998932236455875)	(0.35024403651915392, 8.2214052486065441)	1.0	slash	1.19231
24	Q	E	R	E	R	8	1	shapes	E	8	False	10	(2.8134350337180081, -5.3861662143898439)	(-7.9528811909403565, -8.4545921468256573)	(-0.59441009561703773, 4.8445029298900213)	(6.6531772873314452, 2.7957129290143943)	1.0	slash	0.822019
25	Q	F	R	E	R	4	2	shapes	R	8	True	10	(1.4570833643690051, 3.4656276835502151)	(0.53264068376701879, -6.2002008254461121)	(-1.1794392779234615, -1.7758929305294746)	(-5.5302200483049511, 8.3972593126792603)	1.0	z	1.99544
26	R	E	Q	R	R	4	2	shapes	Q	8	False	10	(-2.6090775347434132, 6.3198562033492021)	(-2.7030807316030208, -3.3016066849274557)	(2.4211849109430101, -3.2007449528323981)	(4.0263534944312749, 4.4990990444072487)	1.0	z	1.41513
27	R	F	R	E	Q	4	2	shapes	R	8	False	10	(1.8128858527689147, 6.783705599977905)	(2.318139625766749, -1.0950568985471936)	(-2.5011477118954497, -1.9011176172905131)	(-3.4473354114725305, 4.70546896516983)	1.0	slash	5.50268
28	R	E	F	E	R	4	1	shapes	E	8	False	10	(-6.7928078936760388, 0.81770251169817776)	(6.2032976104736441, -0.73397501494225637)	(2.9652658940431174, 6.5897763435415122)	(-3.483156260021838, -8.7220483787675231)	1.0	slash	0.780021
29	Q	E	Q	E	R	8	3	shapes	E	8	False	10	(-5.5760748362009682, 4.8121043508661163)	(-1.3374605358848974, -4.5894534255076174)	(8.3583083526400017, 0.24473133125126267)	(5.4558802847166064, -4.2005931365040876)	1.0	slash	1.02779
30	R	F	Q	E	E	8	3	shapes	E	8	True	10	(-6.0649180047480566, -7.5342948592552261)	(8.0544557735167288, 8.227009870944709)	(-8.7375962352502796, 8.6589334621838248)	(-4.6728036467286138, 6.2922744311342509)	1.0	slash	1.7313
31	Q	F	Q	E	R	8	6	shapes	R	8	True	10	(5.442163246307933, -3.1053338691653112)	(0.37686017668865546, 1.1815286151356563)	(7.7970267754022338, 1.026743086166368)	(-1.8841213152166789, 4.8077485508235611)	1.0	z	1.10099
32	Q	F	R	E	R	4	1	shapes	F	8	False	10	(-7.9159870219212145, -8.7309817153027449)	(1.0778220385035802, -6.3456743379670719)	(7.7319004255052945, 3.8331763290048304)	(-3.0644052550659566, 5.7598891930931284)	1.0	slash	1.0105
