TrialNumber	stim0	stim1	stim2	stim3	stim4	stim5	stim6	stim7	stim.probe	ttl.stims	corr.num	trial.type	stim.corr	block	match	Subject	stim.pos0	stim.pos1	stim.pos2	stim.pos3	ran	resp	RT
1	N	B	A	M					M	4	2	shapes	A	Practice	False	104	(5.9433293427103049, -4.2817402702642395)	(-4.6135583699967633, -5.5305845665418945)	(2.8639112929657671, 7.6919469001427458)	(-1.5227573805797059, 0.45700939794300766)	1.0	z	3.16571
2	N	A	B	B					A	4	1	shapes	A	Practice	True	104	(-4.2871376300203847, -2.1976178517075011)	(7.7758516531584583, 2.6090755405471509)	(-4.9301962141819331, 1.7563577687682006)	(8.0554068780393848, -2.8530126391308315)	1.0	slash	2.59905
3	N	A	B	M	B	A	M	N	B	8	4	shapes	B	Practice	True	104	(-0.17775186004242549, -6.2902962663195963)	(7.8792064317826949, 7.2579075445800179)	(6.3302670047798415, -8.1034125816653688)	(-5.556468021102928, -4.7585765909033544)	1.0	slash	2.14664
4	N	B	M	M	A	N	B	A	M	8	3	shapes	M	Practice	True	104	(1.7189984555273519, -4.1129824963907842)	(-5.3902680704567576, 8.3679205909586791)	(1.0809679055996479, -8.2819684001394904)	(2.2440750593729586, 3.7978699977072363)	1.0	z	1.01007
5	M	A	A	N					M	4	0	shapes	M	Practice	True	104	(5.5246971007051933, 2.0199909457922889)	(-0.90120656927135379, -0.26885960112700147)	(8.6856910552678563, -5.8427484684312514)	(-0.63260562341185, 5.1493600063181493)	1.0	z	1.09794
6	M	A	M	B	N	B	A	N	A	8	2	shapes	M	Practice	False	104	(7.945671859169952, 7.5361159171249703)	(-1.397328105682158, 2.2129113169990013)	(-0.92391915875634911, -7.2421296430027544)	(-5.8734205585559884, -4.9839924655785186)	1.0	slash	0.895129
7	M	A	M	A					M	4	3	shapes	A	Practice	False	104	(-6.138760995760288, -8.5917773392452066)	(6.3161580544629548, -2.2717662855386269)	(-5.5320730888591072, 2.3658086652458898)	(4.9729346822250893, 8.5095465261170382)	1.0	slash	0.822906
8	N	B	A	N	M	M	A	B	A	8	3	shapes	N	Practice	False	104	(-8.0988461675548571, 7.3914324332414267)	(1.6810887537247083, -7.1011123632329998)	(7.9546259940582402, -0.12477109569342204)	(-0.27333029963300781, 6.50741240206942)	1.0	z	0.726756
1	N	A	A	M	B	N	B	M	N	8	5	shapes	N	0	True	104	(-0.70811114405709041, -0.33426465872719646)	(-7.3233357478382786, -2.4272526104997842)	(2.5177533684926736, 6.7622593092678525)	(5.9195815426749618, -6.3765931690243942)	1.0	z	0.939008
2	N	B	M	B					M	4	2	shapes	M	0	True	104	(-7.5187510730650136, 2.9968045956872036)	(5.7754891421240959, -3.7816321642452433)	(-5.3193849607570129, -3.8873829219337148)	(4.5635696069705656, 7.3473877156234693)	1.0	z	0.872946
3	M	A	M	A					A	4	3	shapes	A	0	True	104	(-1.913765980702439, -4.9722208897605711)	(7.1784431758709282, 5.1628908182814612)	(-2.5750035376525924, 7.0183991267302606)	(8.6895471851857806, -4.1732889147455747)	1.0	z	0.892692
4	N	A	M	A	B	M	N	B	M	8	2	shapes	M	0	True	104	(-3.2949322165220867, 8.0142949887328427)	(6.4004017511406595, 3.4300915637011258)	(-5.6948176626666349, -0.25101053839246212)	(8.325784556664459, 7.4934430171172508)	1.0	slash	1.0623
5	N	A	N	A	M	M	B	B	A	8	1	shapes	A	0	True	104	(-1.7027102490711981, -5.1454326063016271)	(-7.8769307100285575, 3.3651447999408379)	(2.5046350231344476, 8.1805575535230055)	(5.7708896195796751, -0.87576692870990414)	1.0	slash	0.901928
6	N	A	A	B					B	4	1	shapes	A	0	False	104	(-4.9774686758596847, 7.590639919744433)	(7.3615200664176292, 2.3290412324841494)	(7.8850681304847718, -1.9503189130338825)	(-2.2804943177935675, -2.3934448324815598)	1.0	z	0.839406
7	M	B	N	B					A	4	3	shapes	B	0	False	104	(1.3397096104928305, -5.0183450385120612)	(0.52548973363261275, 3.7345413836574579)	(-7.3070234859182754, -2.1049016914871528)	(-1.7869565292324259, 8.7024470771046971)	1.0	z	1.09341
8	M	A	A	N	N	B	M	B	M	8	5	shapes	B	0	False	104	(7.5340308936002884, -6.3082403442536652)	(-0.58879046130593871, 8.5509994453168723)	(3.484663900870256, -2.8731712719512466)	(-6.8401893217191354, -5.6442360388326893)	1.0	slash	1.26139
9	N	A	B	M					N	4	2	shapes	B	0	False	104	(8.5310152190393929, 5.5562227508298712)	(-2.8443266746607057, 5.6377825402544346)	(1.1704011152590539, -7.7493677018236671)	(-8.2185713535213729, -1.5070842848708264)	1.0	slash	1.13232
10	M	B	A	B					M	4	0	shapes	M	0	True	104	(7.5934153036831518, -3.2677759109188633)	(-3.3560179019990581, 7.4114061846237469)	(4.7854865901520789, 2.7467749889934652)	(-5.1393769567677854, -6.552855017261014)	1.0	z	1.2421
11	M	A	N	A	M	N	B	B	M	8	4	shapes	M	0	True	104	(-6.2865825061097986, -1.3037105028995457)	(-1.5985459413028575, 2.3796300955008629)	(-0.2449366875793384, -5.1386393171866027)	(7.0114940944848776, 2.0095125927872211)	1.0	z	1.05354
12	M	A	M	N	B	B	A	N	B	8	0	shapes	M	0	False	104	(-4.5958836644261698, 1.0622205683126307)	(-7.8754863973467497, 6.936793936583431)	(2.8198839809980747, -0.87854209223175328)	(6.0328832721254475, -3.8840727029496476)	1.0	slash	0.903173
13	M	B	N	N	A	B	A	M	B	8	4	shapes	A	0	False	104	(4.0724816650659204, 0.73952089922298292)	(4.6687169617434279, 7.5276404310267857)	(-0.43584062746418262, -0.61729917344267626)	(-6.7256195711238584, -5.8337116794216888)	1.0	z	0.950928
14	N	A	N	M	A	M	B	B	A	8	4	shapes	A	0	True	104	(-6.893648235713167, 7.732888470172913)	(-2.5005717864732722, -3.716525991509581)	(3.8965257622493024, 3.2517535809893623)	(-2.1931744045102173, 1.5572859794731553)	1.0	z	1.15668
15	M	B	M	N					M	4	0	shapes	M	0	True	104	(-8.0140039392542324, 4.6882014987345446)	(2.1557165343291391, 2.6167609232362192)	(1.9381980185983778, -5.9758459890007458)	(-3.0378259675996775, -4.1278266219293087)	1.0	z	1.00826
16	N	B	B	M					N	4	0	shapes	N	0	True	104	(-0.020763811576403057, 5.8142833873006872)	(2.3190190503109953, 0.50472588038198296)	(8.1217778859218548, -4.5471490807643828)	(-7.0775836070465346, -2.7137604867148619)	1.0	z	0.969957
17	N	B	B	A					A	4	3	shapes	A	0	True	104	(-8.2248008263915047, 3.731378311291758)	(6.1945225688910046, -4.1185159870596513)	(5.6812911342884611, 1.768508723147157)	(-0.49166343134245416, -6.8375231341113061)	1.0	z	1.55362
18	N	B	A	N	A	M	B	M	M	8	5	shapes	M	0	True	104	(-2.310661460498034, -4.0796361799038001)	(1.9792160114968009, 5.3479640342732466)	(-3.6620344392312241, 2.2107557498845107)	(5.155809648941073, 1.6095968868100261)	1.0	slash	1.783
19	M	A	B	A	B	M	N	N	B	8	7	shapes	N	0	False	104	(-8.136371449477533, 8.4737569650850908)	(4.7524732352488837, 3.8858863620832231)	(-3.0217733906380833, -8.3372746913247369)	(0.32597723735683815, -4.8707904934472541)	1.0	z	1.23879
20	M	B	B	M					B	4	2	shapes	B	0	True	104	(-0.96342650588342593, 1.3149549662792985)	(5.3207129535127784, 7.2228500658046162)	(4.3399855583714082, -4.3469905024368805)	(-8.2043387529022329, -2.4993656148703467)	1.0	slash	1.26243
21	M	A	A	M					A	4	0	shapes	M	0	False	104	(-2.140417579518175, 3.1642037115958797)	(7.975012896699063, -5.751880715653078)	(-1.669757830215131, -2.5416508500073958)	(6.3725687734125422, 6.150534312183499)	1.0	z	1.4199
22	N	A	M	N	B	A	M	B	N	8	0	shapes	N	0	True	104	(-4.7096668373694763, -6.828531403090615)	(-8.3996354699249753, 7.3253521735884988)	(4.305509104794611, 0.088233189322263428)	(-1.4471248584335363, 5.0722766131702723)	1.0	z	1.06166
23	M	B	N	N					M	4	1	shapes	B	0	False	104	(-3.5539333801986324, -6.6698103778055735)	(5.1886822525059149, 3.5744753535876033)	(-4.6297832895728313, 5.0915389257312214)	(6.0001997746004516, -7.6452544780201208)	1.0	z	1.35508
24	N	B	M	A					N	4	0	shapes	N	0	True	104	(0.48810766790031046, 4.6930116423316228)	(0.79347915433051419, -0.065540831808730715)	(-0.96658615223474253, -5.1230186827754078)	(-5.3522842586250423, 6.725604777907721)	1.0	z	1.37476
25	N	A	B	B					N	4	1	shapes	A	0	False	104	(-4.3536653329516986, 3.2246481069418813)	(8.3106563856237408, 2.2300103955916697)	(-3.7844416381749237, -1.9461284204022773)	(5.0160629285394531, -1.9811735747944796)	1.0	slash	0.95036
26	M	B	B	N	A	A	M	N	A	8	5	shapes	A	0	True	104	(-4.6323194988038896, 1.3024244684902087)	(-0.96282287184759507, -3.0691456136237836)	(-5.2221587044847713, -6.6156374945124661)	(3.8095987251980166, -8.1481931872129234)	1.0	z	0.974021
27	N	B	N	A	B	M	A	M	N	8	4	shapes	B	0	False	104	(0.82685812646520063, -8.0869503460937278)	(-4.3148659173052932, 2.1306399306828681)	(-5.1928843091377797, -3.4487654891906709)	(5.6359180251333392, 0.82364223534795933)	1.0	slash	1.24674
28	M	A	B	M					N	4	0	shapes	M	0	False	104	(-4.5955017890941079, 4.3260238360739685)	(-4.1699758631337653, -3.259972806371227)	(3.6961364121960294, 0.11792196491328966)	(3.6621689396478416, -7.7360373556731146)	1.0	z	0.599307
29	M	A	B	B	N	N	M	A	N	8	1	shapes	A	0	False	104	(-2.9349928287909917, -7.3431433629908209)	(2.2174536098102298, 0.90235124791839816)	(8.0546211412163515, -1.7108005839392266)	(-0.32732626322095193, 7.901969111758202)	1.0	slash	1.05279
30	N	A	N	A	B	M	M	B	M	8	7	shapes	B	0	False	104	(0.48562886423887441, 0.71468398551034618)	(-7.5834116633435471, -0.50775426950950653)	(-3.6852136065143801, 2.0124963264164801)	(-0.048734247073372927, 7.6272922819633386)	1.0	slash	1.1587
31	N	A	M	B	A	B	N	M	N	8	7	shapes	M	0	False	104	(2.5237012898572768, -6.2511467334045614)	(-5.6916905177625061, -7.1951900272064186)	(1.1609173583610577, 1.6204864649724566)	(3.9613986683423672, 5.3520606805297923)	1.0	slash	1.16427
32	N	B	A	B					A	4	3	shapes	B	0	False	104	(-6.8010232920247091, -4.049720969141279)	(5.5277723074461829, 7.3702740288568656)	(3.7086322777674905, -4.2843056996486677)	(-6.1153061510058402, 1.0167003539235981)	1.0	z	1.04579
1	N	B	B	M	M	A	N	A	M	8	4	shapes	M	1	True	104	(-8.3169854000944188, 7.0403164739920179)	(-3.8137482500796409, -6.8657247895074001)	(-0.17707264223582797, -5.162378771155284)	(-2.4092533373021974, 3.1815968934055672)	1.0	z	1.0916
2	N	A	B	B					A	4	1	shapes	A	1	True	104	(3.6969770312089114, -4.2296815423959542)	(4.8746435308035654, 7.4319960840536652)	(-1.2286141617525717, -7.4890930658821864)	(-2.6909775205120585, 8.3223649223908858)	1.0	z	1.5952
3	N	B	M	B	N	M	A	A	N	8	0	shapes	N	1	True	104	(-6.8641067611060631, 4.2495651692173571)	(-6.3745538930869028, 8.5953079674197959)	(0.79436411745069258, -0.97712510654416374)	(-0.0054326284357664179, -7.9177822124136901)	1.0	slash	0.968942
4	M	B	B	A					B	4	1	shapes	B	1	True	104	(-7.4774826209791714, 1.015401510105475)	(-5.9816403178432536, -2.8849540892262056)	(2.0235967089966849, 2.8223877230764884)	(6.3459544815181772, -4.0039501717601098)	1.0	slash	1.04827
5	M	B	N	A					B	4	1	shapes	B	1	True	104	(-6.3075947830989962, 2.1636942089714921)	(-6.0637346388227709, -8.0173962425450469)	(4.4634251442884505, -0.5041973599496572)	(7.812204897023971, 3.794866495180198)	1.0	z	0.951992
6	N	B	N	B					M	4	3	shapes	B	1	False	104	(6.9563755467861377, 5.0323925314634028)	(5.7350685286855008, -0.21630069079786018)	(-5.1704260586877755, 1.4675159944071474)	(-8.1220694888562921, -5.4822443988401002)	1.0	slash	1.13318
7	N	B	N	A	B	A	M	M	A	8	3	shapes	A	1	True	104	(3.8757496123362465, -1.9662747399511167)	(6.632570711813992, 3.7940916037242545)	(0.82476628716898936, -5.2325780940857278)	(-8.7087793153500712, -1.7658618289467647)	1.0	z	1.17522
8	M	A	N	B					A	4	3	shapes	B	1	False	104	(1.5810423425615081, 2.9400871186370328)	(-1.4084985974688538, -7.987653645738896)	(-5.1552576069131586, 5.9061008002092343)	(0.28449134036189427, -2.7889020381330294)	1.0	z	1.17495
9	M	A	A	M	N	N	B	B	B	8	7	shapes	B	1	True	104	(-4.8330434722845217, -8.6792569301980294)	(1.3106863176349499, -2.4932484112807991)	(6.4830426732470752, -3.7037428195016249)	(-8.4921037156916466, -1.0702042837118686)	1.0	slash	1.10249
10	N	A	B	B					N	4	0	shapes	N	1	True	104	(5.3811049368295496, -4.7304394366569573)	(-1.1246603225994631, 1.8404317109589954)	(2.2540856475252085, 5.6096821437082696)	(-3.7354913974246342, -8.4901625393605222)	1.0	slash	1.06004
11	M	A	N	M	N	B	A	B	M	8	4	shapes	N	1	False	104	(7.2235619711050632, -0.58074328405606224)	(-2.3036784843731519, 0.88428372076467632)	(6.5380798634116815, -8.2348069199833009)	(1.3781757608947327, 6.7118388472509576)	1.0	z	1.09368
12	M	B	B	N					M	4	0	shapes	M	1	True	104	(-7.9478107688540023, 7.3762995623081373)	(-2.0717694807043543, -4.0231388096190832)	(0.33771191546476231, 8.057452821377872)	(7.2286179283861163, -7.1289046735195791)	1.0	z	1.04524
13	N	B	M	M					M	4	3	shapes	M	1	True	104	(8.558351401120234, -8.5590825153256471)	(2.2952299913431737, 0.9424890712154923)	(-5.6779188638677764, -3.3487545345878349)	(-4.4535135549841094, 5.8704416411464226)	1.0	z	0.398944
14	N	A	B	N					A	4	3	shapes	N	1	False	104	(-2.7081645067582176, 3.6827392533068259)	(5.5595294658489394, -6.8279610387537488)	(-5.5903163530885429, -2.2705120556798448)	(3.6283865833444988, 6.0779906792241807)	1.0	slash	1.22473
15	M	A	M	N					B	4	2	shapes	M	1	False	104	(7.3033555445813327, -5.1985537613309631)	(-0.94083093064062684, -2.6644103698417991)	(-7.2132473017636967, 5.4691866753382055)	(2.0223421253537612, 4.3804996872997091)	1.0	slash	1.21246
16	N	B	B	A	M	M	A	N	N	8	2	shapes	B	1	False	104	(3.1067707930993436, 3.9272276268353412)	(-4.1330433890052429, -6.465291952688669)	(-4.475704564279825, 7.3532294293556824)	(6.2202837311693546, 7.5645717228508644)	1.0	slash	1.63806
17	M	B	B	N	A	N	A	M	M	8	7	shapes	M	1	True	104	(3.0510366635056272, 4.9794948209268526)	(8.1601533424091315, 2.9236618569038502)	(6.2413567596115751, -4.2199272578859128)	(4.2998590886313259, -8.3486502390079735)	1.0	z	1.21158
18	N	A	N	M					A	4	0	shapes	N	1	False	104	(-5.8081280111910925, 3.5236726477585147)	(6.8605064210295783, -1.0243237290876603)	(2.5385355404414387, 4.2731480175740195)	(-0.34874399394905176, -5.5971911390695723)	1.0	slash	1.04306
19	M	A	B	B					B	4	2	shapes	B	1	True	104	(6.1926819606030303, -2.5229530792138659)	(3.5337569181476898, 1.6706092119052851)	(-7.3707109100235408, -0.7617471664619524)	(-4.5249868978813996, 5.5314414500763078)	1.0	z	2.22071
20	N	A	M	A	M	B	B	N	M	8	5	shapes	B	1	False	104	(-1.3652779312194401, 0.023826771678562508)	(7.7888381152413579, 7.1234377360247976)	(-7.3468033104768828, -3.1593776719182234)	(2.3418318564310248, -4.2057609976170722)	1.0	slash	1.14023
21	N	B	B	A					M	4	3	shapes	A	1	False	104	(-6.8724469393496506, 6.1279972437468171)	(7.5681049599704373, -7.8816886631665959)	(3.5942370224482794, 8.2743229390347821)	(-2.3854351936835192, -2.5925910332389828)	1.0	slash	1.43402
22	N	B	B	N	A	A	M	M	N	8	3	shapes	N	1	True	104	(0.12674711101933589, -0.69615491734726653)	(-1.1855898390240034, 4.5139654669562539)	(-8.7206172057669562, 1.9456795123778967)	(4.024900116256573, 3.4977704054779082)	1.0	slash	0.775567
23	N	A	B	M	N	B	M	A	A	8	5	shapes	B	1	False	104	(-1.9033140649768905, 7.4281702713488293)	(-8.5480049565053502, 3.2091117544417642)	(-2.5415645551917816, -6.8516667867422498)	(8.0676767931134208, -0.26296731191832912)	1.0	slash	1.25724
24	N	B	A	N					N	4	3	shapes	N	1	True	104	(-3.7026225598358922, -3.0110982047471859)	(-2.3711087349869935, 5.9002100421812962)	(0.95831083947767404, -2.8541028376034916)	(3.8923935626306072, 0.76728882078739957)	1.0	z	1.21678
25	M	A	N	B	M	N	A	B	B	8	3	shapes	B	1	True	104	(4.0343399227912826, 2.9633264949533817)	(7.7674321742255295, -8.0816866665428204)	(-7.4509302389932586, -1.5621735806444672)	(-1.9610871789039059, -6.7986592317721382)	1.0	slash	0.826486
26	M	B	A	N	N	A	B	M	M	8	0	shapes	M	1	True	104	(-8.0090898295221269, 7.7407893017497145)	(-1.8224390646478188, -4.8032843700061782)	(6.9911739449681072, 1.2675727806912587)	(1.95245480475314, -7.4969208356762129)	1.0	z	0.92997
27	M	B	N	N	A	B	A	M	M	8	6	shapes	A	1	False	104	(-8.2189216476618459, 5.4636888294032637)	(7.0766458338888771, -2.1508645527658228)	(-2.6951701223945035, -4.4687423688259384)	(1.8893127658314146, 1.1033903998200891)	1.0	slash	0.797807
28	N	B	N	A	A	B	M	M	A	8	5	shapes	B	1	False	104	(-2.0905089834001824, 2.040067900687653)	(-0.89388388414642428, -2.0135791530925422)	(4.0257660462902827, -1.9019133933767032)	(-7.7613318933163562, -7.4846623848698108)	1.0	slash	0.945311
29	M	B	B	M	N	N	A	A	B	8	6	shapes	A	1	False	104	(-6.4284109065195167, -1.2863426312056507)	(4.3063050599655472, -7.0241940670222265)	(1.6032128881828598, 1.2542283612905187)	(-6.8984115511982846, -6.0527966175207704)	1.0	slash	0.960978
30	M	A	M	B					N	4	1	shapes	A	1	False	104	(-8.3073005827197903, -6.8629012756460259)	(7.9433436627388154, -4.3468651028177723)	(-8.7467493659682809, 5.6382819276735425)	(7.8681821213158116, 3.9505544878773673)	1.0	slash	1.17464
31	M	A	M	B	A	N	B	N	A	8	2	shapes	M	1	False	104	(6.7141601401881932, -7.5606628261075066)	(-1.3622025271143876, -4.9251099734799144)	(-6.8520912049278726, 3.7180681198028953)	(-6.403664110163696, -7.0258939462658212)	1.0	slash	1.18417
32	N	A	A	B					B	4	0	shapes	N	1	False	104	(-5.0736278964075225, 5.3833034528100434)	(2.5150668201331694, -5.3785895783743793)	(1.0789184026861918, 1.8500082493348717)	(-5.3284850345855448, -4.7644124146013347)	1.0	slash	0.677821
1	M	B	N	B					N	4	2	shapes	N	2	True	104	(-3.4924432671413692, 8.3982588763750989)	(-6.2777953447975037, -6.0024294647028906)	(1.8367624326161689, 3.1999251654174383)	(2.6727895753042823, -2.6374789519018984)	1.0	slash	0.975622
2	N	B	A	B	N	A	M	M	B	8	5	shapes	A	2	False	104	(-4.9430185540988383, -6.803511639835083)	(6.7644719125544999, 1.9196653245798814)	(0.44526895421128287, -7.315960227167837)	(-2.5801000826307536, 5.9504871458853756)	1.0	slash	1.51322
3	M	A	A	B					B	4	0	shapes	M	2	False	104	(7.659875071554918, 7.3181088259791736)	(-5.9284474199468944, 4.44903985571856)	(-3.1335566524007596, -3.110803237209474)	(2.0459641913003388, -2.4769833070694665)	1.0	slash	1.82066
4	M	B	A	M					B	4	1	shapes	B	2	True	104	(5.0014255354783348, -3.0061421138225715)	(-2.9064912536322964, -0.052649050231787342)	(8.5919947967089882, 1.4475305587604819)	(-4.336095992188576, 6.4085759060366261)	1.0	slash	1.45029
5	M	A	B	A	N	M	B	N	M	8	0	shapes	M	2	True	104	(-1.9655915877437629, -4.5295371776100266)	(7.3950002811574898, 5.1579682012967201)	(4.5351137236768615, 2.3580139218217582)	(-4.7339477095216642, 4.6155565938527356)	1.0	slash	1.15803
6	M	B	A	A					N	4	1	shapes	B	2	False	104	(1.0204226307745046, -0.21470763667899639)	(3.9397218749271978, 3.194492284759594)	(-6.5122053873840722, 8.6438777337831993)	(-6.9993144373570448, -7.6320668079743417)	1.0	slash	1.23157
7	N	A	A	N	B	B	M	M	N	8	6	shapes	M	2	False	104	(-4.9406394367832647, -6.331139385805562)	(0.087927365539909985, 0.68619323791376097)	(7.6390556258886519, 7.0577078952365682)	(-6.5200755209172243, 8.1247498278115557)	1.0	z	0.941125
8	M	A	A	B	N	B	N	M	B	8	4	shapes	N	2	False	104	(-4.75202778817569, -8.5489079493928077)	(-0.48399877269530833, 4.7970928089678555)	(6.9892640822706618, 7.1497212561027652)	(-6.2019658540268665, 8.0516400766455689)	1.0	slash	1.00492
9	N	A	N	M					M	4	2	shapes	N	2	False	104	(-2.8785477109758428, 1.829710264076077)	(-5.7501494466524754, -2.3682485805538809)	(4.2163051688149089, 0.60150809659408111)	(4.3377807493180445, -4.7088615360870083)	1.0	z	0.944729
10	M	B	N	M	B	A	A	N	B	8	1	shapes	B	2	True	104	(3.8812171105857178, -6.2183972832223731)	(1.7241306014380271, 6.2631814738195324)	(2.5790914978807393, 1.139918500576071)	(-7.1135188205349191, -6.7739031021355895)	1.0	slash	1.00822
11	M	B	A	N	M	A	B	N	A	8	5	shapes	A	2	True	104	(4.2059205885805397, -7.8818315046217533)	(-0.9837214150375404, 7.9007946627411201)	(0.087774390740616326, 0.58244332415711675)	(3.7783171047369368, 8.6029997973958388)	1.0	slash	1.49181
12	N	B	B	A	A	N	M	M	N	8	0	shapes	N	2	True	104	(-6.8028255473041588, -2.4440931352782096)	(5.6875778051529906, 3.7685530098689153)	(-1.7549873475092079, 2.7315543011193757)	(-1.0060100917550887, -3.4927417582237359)	1.0	z	1.36533
13	N	A	N	M	B	M	B	A	A	8	6	shapes	B	2	False	104	(-8.2392388608368972, 2.6665976750421461)	(-7.2545641472290914, 7.614419514970912)	(4.8782800443500829, -1.3139593380271082)	(-2.5784801067325427, -5.5572131976054369)	1.0	slash	2.07258
14	M	B	M	B	N	A	N	A	M	8	6	shapes	N	2	False	104	(-2.7661128620495639, -6.5315928858208263)	(-4.6455730105975768, 2.0873274858039093)	(4.1665857578627516, -8.2428270158898052)	(-8.1867516183332754, -3.6195618317289657)	1.0	z	0.966487
15	N	A	B	N	A	M	B	M	B	8	2	shapes	B	2	True	104	(-0.74329866195834882, -2.3742150564410416)	(-8.1652326019786265, -4.8138216176965969)	(4.7390613300653985, -6.5438093674598328)	(8.5167198752221722, 7.458457751702376)	1.0	slash	2.89797
16	N	B	N	M					N	4	1	shapes	B	2	False	104	(1.1029346232403192, 5.3051837690572778)	(-0.37397616075159235, 1.4568534966399866)	(-4.2853193976828887, -1.5258770680986267)	(1.3710388557027642, -7.950145030154486)	1.0	z	0.415665
17	M	B	M	N	A	A	N	B	B	8	4	shapes	A	2	False	104	(6.6740763728969394, -6.7922475147023427)	(-6.5875347203867802, 7.5387042205942123)	(5.4066533755696078, -1.4519615163816013)	(-2.0446712985833653, -1.1118242469728861)	1.0	z	0.977401
18	N	B	B	A					A	4	3	shapes	A	2	True	104	(-7.3271086558439151, -8.4062458438059444)	(4.0327425382270903, 3.8995730525560752)	(0.60615950027671772, -6.0120371615827963)	(-2.9450599012568919, 0.902332329962654)	1.0	z	0.286808
19	M	B	M	N					A	4	2	shapes	M	2	False	104	(0.95694319389620652, -6.1676230062116373)	(-7.8485383137945011, 1.1922173583189473)	(-6.4402688480936074, -3.7362692411286265)	(2.1562602566815308, 6.8405992728010521)	1.0	slash	1.23274
20	M	A	N	A					N	4	2	shapes	N	2	True	104	(-5.9058275173445018, 0.37431612191531194)	(0.45928051587628893, 5.9532899331797129)	(-3.0502636856725838, -5.4578242223746738)	(5.2268204128281202, -7.8601351795829419)	1.0	slash	1.69226
21	M	B	M	N					N	4	3	shapes	N	2	True	104	(-0.46277168311111794, -5.6251622614314218)	(-5.5831825199826888, 8.3907158108533189)	(7.894120294382784, -7.446938093169253)	(2.0667981369814026, 0.82346524367076235)	1.0	slash	0.612027
22	N	A	B	A					A	4	3	shapes	A	2	True	104	(-4.7185676786606781, -2.8280911905549457)	(6.5034778038862697, -2.1966092206105072)	(-3.2979279488858841, 3.2188852819427769)	(8.2799768167037193, 7.5123444048037271)	1.0	slash	0.739429
23	M	B	A	A	M	N	N	B	M	8	2	shapes	A	2	False	104	(-8.0093158744485873, -5.8956852749837108)	(2.6933129264236673, -7.7031346327652486)	(-4.6103572320664314, 5.5401090026360293)	(-1.9269990796755865, -4.8091131434265195)	1.0	z	1.00529
24	M	A	N	A	B	M	B	N	A	8	1	shapes	A	2	True	104	(6.1739115946439185, 3.6413720792730153)	(7.723136211871811, -6.8926078340069026)	(-4.0556021063376191, 4.9180778546427817)	(3.8111636936603315, -3.0261528334406185)	1.0	slash	0.928838
25	N	A	B	M					M	4	1	shapes	A	2	False	104	(-8.3411228465867371, 7.4509730870329278)	(8.3184659291826506, -3.0781460984737752)	(-4.7989648357841048, -8.5902983049346062)	(4.329082590840537, 7.3410786706815863)	1.0	slash	0.368548
26	N	A	M	N					M	4	0	shapes	N	2	False	104	(2.4184810832684036, -4.5047100991866298)	(-7.0185825471214232, -3.4509772579230802)	(3.6139946919209436, 7.8796693164868046)	(-5.4441260772739692, 3.285318330568753)	1.0	z	0.664156
27	N	B	B	A					A	4	1	shapes	B	2	False	104	(-2.0479913907823688, 3.2995117474244164)	(6.8659671990585487, -5.8224494921447816)	(-3.8191806016354786, -2.8336314318157729)	(7.9321009220052332, 1.4387878314432054)	1.0	z	0.781867
28	N	B	N	M					M	4	3	shapes	M	2	True	104	(6.5318668637855595, 7.8775601966494406)	(-1.7862940080565233, -4.9309364366570012)	(-1.2826933523014699, 5.3533368877146543)	(7.2460122256114357, -7.3661088729776001)	1.0	slash	0.939509
29	M	A	M	A					A	4	3	shapes	A	2	True	104	(-2.3382931302750842, -5.7022970281547742)	(1.6727646483406478, -7.1173213235729271)	(-5.0308017008176114, 6.7551519608457422)	(3.2313455925610288, 8.6143401407561768)	1.0	slash	0.433078
30	N	B	A	N	A	M	B	M	A	8	2	shapes	A	2	True	104	(-7.8748950923456631, -5.3124949984830891)	(-5.3904814289895704, 4.0552240771849917)	(5.7435445008385653, 7.8025650123728454)	(6.5063985376527427, -8.5243781827659344)	1.0	slash	0.398764
31	N	A	M	N	A	M	B	B	A	8	5	shapes	M	2	False	104	(0.87111516690483093, 3.7139652986957969)	(-4.7498228766974853, 7.0814437410876074)	(-3.8065920775509605, 1.8172656892497443)	(3.5713912930584257, -8.254580799152766)	1.0	slash	0.29274
32	N	A	B	M	N	M	B	A	M	8	3	shapes	M	2	True	104	(-0.48968687575898961, 4.2064593991598986)	(2.9550097602514711, -7.1346745266475349)	(-4.1488795339889695, -4.2238119075307203)	(5.0394663677236942, -3.5275783048187996)	1.0	slash	0.597955
1	M	B	M	A	N	B	A	N	A	8	6	shapes	A	3	True	104	(3.9968123711480938, 4.1875065178780169)	(-3.9104831890697929, -6.3799626278781458)	(-7.7065228191253468, -2.1890112345758439)	(6.4629589498265467, -0.86939582261012482)	1.0	slash	1.70177
2	N	A	N	B					B	4	0	shapes	N	3	False	104	(3.6686841963958141, -2.4484636737796821)	(6.4394446405761219, 2.7470924874320986)	(-8.574431444140389, 6.5012459388429562)	(-3.0767677658956911, -1.7086279454246958)	1.0	slash	0.587303
3	M	A	A	N	N	B	B	M	B	8	6	shapes	B	3	True	104	(3.6638268925805448, 2.2892985453837191)	(-6.1826053063698154, 7.097918629502173)	(-4.2903865730095276, -8.6802183812421649)	(7.4342637439816777, -5.6986235720589029)	1.0	z	0.874509
4	M	A	B	M					N	4	2	shapes	B	3	False	104	(-0.77063411404660265, -6.1408844877882922)	(-6.9206330172073471, 2.4227688533088596)	(0.96155368451443657, 3.144352936068266)	(5.7422600546891083, -2.0152973135305778)	1.0	z	0.390761
5	M	B	M	B					A	4	2	shapes	M	3	False	104	(-5.6567318947305267, 7.8478237168678042)	(0.78354162765361046, -6.7052011342763622)	(8.1888139645042521, 5.5869744617299428)	(-5.6171095642061779, -1.1763978614768851)	1.0	z	1.61849
6	M	A	N	A	N	B	B	M	M	8	3	shapes	A	3	False	104	(-6.7593110082055468, 7.0771927316876955)	(-0.34786415408151328, -7.390234114188365)	(2.7292686213779742, -2.6148464291805276)	(8.1817661675313502, -0.19693971918074205)	1.0	slash	1.25999
7	N	B	A	N					N	4	0	shapes	N	3	True	104	(-8.2993611133901179, -3.6552941993623209)	(2.3473907821548803, 5.1209311764237295)	(-2.3273879291309516, 0.061276373366109027)	(7.3712116716593528, -2.5283853474518692)	1.0	z	6.16092
8	M	B	A	B	M	N	A	N	B	8	3	shapes	B	3	True	104	(-1.9711006604395065, 0.87252019830858352)	(3.3732140680960132, 3.8275123154579376)	(8.4172196170067437, -7.6473062444096591)	(-7.1135034173783174, 5.1373076978793222)	1.0	slash	1.53298
9	M	A	B	M	N	A	B	N	M	8	4	shapes	N	3	False	104	(3.0776366081611961, -7.1226206346206258)	(-3.3743241697968998, 4.932781491732495)	(8.3573476536755962, -4.6509814391106667)	(-7.2673321519963379, 7.5192511676307063)	1.0	slash	0.734539
10	N	A	B	M	B	N	M	A	N	8	0	shapes	N	3	True	104	(5.9627260423720632, 1.9600627345377717)	(2.7076654714471946, -0.64842366918874461)	(5.0677606699046365, -5.8304214587011121)	(-0.24987013097704924, 3.4469444809337411)	1.0	slash	0.432013
11	N	A	A	N					N	4	2	shapes	A	3	False	104	(-6.6220706328806891, -7.8184306716725018)	(-8.3797121530713348, 0.41420380543617163)	(0.94479960198237833, -4.6680578111532078)	(2.612558637491329, 6.6350361845766148)	1.0	z	3.03522
12	M	A	N	N					A	4	2	shapes	N	3	False	104	(0.58224492337623701, -3.8625881239536017)	(-4.8364612838530947, 7.697193917641556)	(6.9586094643908556, 6.7603468826861572)	(-5.9209373514949881, -8.0075439862740971)	1.0	z	1.71895
13	N	A	A	M	M	B	B	N	B	8	6	shapes	B	3	True	104	(-6.4272892859969666, -7.7202244657673482)	(-3.9311162501500112, -2.629317280260727)	(-2.1243623470551336, 3.8787820653946472)	(-6.5291526059247706, 5.6365445962712162)	1.0	z	0.404801
14	M	A	A	N					N	4	2	shapes	A	3	False	104	(1.3998578067976553, -1.7042610292650453)	(-8.0415027647905273, 6.6132507256437929)	(6.5034290741573582, 8.0937625552700219)	(-3.2135617153695808, -1.488651632207346)	1.0	slash	1.69453
15	N	A	A	M					A	4	2	shapes	A	3	True	104	(8.1041102599119093, 4.6145888406204545)	(-0.13637724267867668, -3.1967069208898762)	(-8.4880164272043608, 7.1069035604296573)	(8.3087323620973947, -2.5629648147538955)	1.0	z	1.02191
16	N	A	B	N	B	A	M	M	A	8	5	shapes	A	3	True	104	(5.8640160629202356, 4.7985425057324598)	(-6.7304670971029825, -4.638086491071685)	(-8.6349839839910505, 1.124835178736225)	(-0.09541624706265317, -3.3015031824563437)	1.0	z	0.957839
17	N	B	A	A	M	M	B	N	M	8	3	shapes	A	3	False	104	(-5.7689565064020583, -0.45782217338033959)	(5.6045868074543126, 5.6090380625734504)	(-2.7979401441299601, -3.6497197794811154)	(8.6523748706847883, 8.2620137106278975)	1.0	slash	0.651413
18	N	B	N	A					N	4	0	shapes	N	3	True	104	(0.81053878243976385, 5.1394529915354816)	(8.5717377134896005, -7.3381644773091939)	(-4.0029083136816173, -8.3384996316579478)	(-3.7253560129433998, 2.7721578411050061)	1.0	z	1.14898
19	M	A	M	A	B	N	B	N	N	8	6	shapes	B	3	False	104	(8.1355427256496959, 6.4750051952550169)	(-7.109688720023243, 5.6031929328594732)	(-0.78747417324728897, -2.9259138116317356)	(6.3413532858230717, -7.5432973891657937)	1.0	slash	1.45837
20	M	B	M	B					M	4	2	shapes	M	3	True	104	(-5.5299816354341296, -8.0499848059939563)	(-4.7289870641489804, 5.3526341705099547)	(7.9187210673593356, -2.9365103721239612)	(2.9253783749819551, 4.7690790228101338)	1.0	slash	1.75024
21	N	A	B	A					M	4	0	shapes	N	3	False	104	(5.1594669685020005, -2.8241134062040603)	(3.3121445546438597, 7.9778530859946528)	(-5.691821828654188, -0.35011180124285879)	(-3.9731605800709584, 8.0759712110359061)	1.0	slash	1.28993
22	N	B	B	N	M	A	M	A	M	8	1	shapes	B	3	False	104	(4.7483566950104503, 0.63168326557060972)	(5.8563456690585802, 6.0302545539912629)	(-6.3042373021505638, -1.1671898018260629)	(-0.073987073670148007, -7.317422584633051)	1.0	slash	1.63743
23	N	A	N	A					A	4	1	shapes	A	3	True	104	(-0.32000727167821452, -0.12619087422682007)	(7.191231490614312, 6.9744221062971974)	(6.9216458205024782, -1.2763484566140209)	(-4.5252800236333854, 2.4113315240427511)	1.0	slash	1.36712
24	M	B	N	N					N	4	2	shapes	N	3	True	104	(5.9618288206290302, 2.574852001401208)	(-1.2890921925333227, 1.6594771929460777)	(-2.3895362188980718, -3.7514049727178911)	(7.8452489272888499, -3.2529112798702116)	1.0	z	0.234387
25	N	A	B	B	A	M	M	N	A	8	4	shapes	A	3	True	104	(-5.9490768361491266, 4.5985731642062024)	(-2.6214916868669311, 0.39865529695294732)	(3.2130336044769905, -3.9817007567791762)	(7.5001195021041944, 7.3835186408927527)	1.0	z	0.903938
26	N	B	B	A	N	A	M	M	M	8	0	shapes	N	3	False	104	(-7.3886030246858692, 7.8583975063815146)	(8.211441472852222, -5.77518762873905)	(-0.043649476257199282, -0.25489763208471494)	(-6.6650996494760015, 0.75155729826133744)	1.0	slash	1.0241
27	N	A	M	B	N	B	M	A	M	8	3	shapes	B	3	False	104	(-2.8325894786243486, 3.0266414723122796)	(6.6662383983870175, 3.5623682599922759)	(-7.2831777179132473, -5.0760591702374063)	(7.8108820386039746, -2.5061016665051454)	1.0	z	0.487644
28	M	A	B	M					M	4	2	shapes	B	3	False	104	(2.0546563954099355, -2.830787401104697)	(-3.9340991431591013, 4.4222490678139632)	(7.9928641715983453, 6.2828390652223121)	(-3.742972399410438, -2.520359870089341)	1.0	z	0.759374
29	N	B	N	B					B	4	1	shapes	B	3	True	104	(1.4468839177747785, 1.3765313025682389)	(-3.293321746885276, 1.965794646871279)	(-2.7483299292629653, -6.9390505650599748)	(5.4430219224629415, -6.0604259549845239)	1.0	z	0.18497
30	N	A	A	M	N	B	M	B	B	8	1	shapes	A	3	False	104	(3.9041079157711032, -7.0217381212431587)	(-6.5371257316819467, 0.50144193322142172)	(0.067564407182345576, 6.0929980435923863)	(8.5515906325768576, -2.8239655543664508)	1.0	z	0.512648
31	M	A	B	B					A	4	1	shapes	A	3	True	104	(0.71011400410364445, -6.1182516335262411)	(-6.5718167974561617, -2.7275040848528453)	(1.2095689271904586, 6.349760092397517)	(-6.1998932837330187, 3.5138641450816319)	1.0	z	0.548446
32	M	B	M	N	B	A	A	N	B	8	1	shapes	B	3	True	104	(-4.6458094008356428, 6.0986948449979845)	(-3.7974046348519757, -5.1772052020657444)	(2.0524402253483078, 5.3150983923967008)	(6.5768330411384213, -5.9082505160641094)	1.0	z	0.632187
1	M	A	N	B	B	A	N	M	N	8	2	shapes	N	4	True	104	(-3.481091643870343, -5.8354496203366502)	(1.7682173433299742, 3.1957409662991161)	(-6.9049502883216736, 2.065836642651897)	(4.1027084670470426, -5.1073405515269599)	1.0	z	0.655814
2	M	B	B	A	N	A	M	N	N	8	4	shapes	N	4	True	104	(0.14108829053608396, 7.5481625732633937)	(-7.4126625410605946, -7.114085210833669)	(-1.9031832581706043, 1.4443754473831003)	(7.1655125542715954, 0.73161308261672353)	1.0	z	0.613478
3	M	B	M	N	A	N	B	A	A	8	4	shapes	A	4	True	104	(-1.934741124057318, -8.0984228125961266)	(1.3823445151697644, 2.7969938971444606)	(6.8190312321236046, -2.8636807799689494)	(0.4098350953193588, -3.4848286027754183)	1.0	slash	1.38111
4	M	A	M	N					N	4	2	shapes	M	4	False	104	(1.0492071044311881, -2.6296172245457967)	(1.8065496389492157, 2.6280632303635763)	(-7.3448195453145217, -5.5050905841272737)	(-4.824002427166695, 6.9851785601569922)	1.0	z	1.20858
5	M	B	N	M					N	4	1	shapes	B	4	False	104	(-8.3814302124529956, 6.4027099666379979)	(0.64702698372910028, 6.6867263621085247)	(5.8448109443097049, -7.9772001587457693)	(-2.1199976297399354, -6.6120226705182716)	1.0	slash	1.2362
6	N	B	A	A	M	N	B	M	B	8	6	shapes	B	4	True	104	(5.1290544191086411, 3.5933222291580673)	(-1.9284625848683934, 4.1013548691565944)	(0.25912478760472801, -6.4769535717946356)	(0.18924730931994205, -2.4255462449091452)	1.0	slash	1.17792
7	N	A	N	M					N	4	0	shapes	N	4	True	104	(-7.8823956741222423, -2.9359500096581499)	(-6.5448566785973474, 6.6443510346243997)	(0.36224609269831376, -6.6305495971153494)	(3.1511539099187029, 6.5907956635613694)	1.0	slash	1.17557
8	M	B	A	A	B	M	N	N	M	8	3	shapes	A	4	False	104	(-4.3902090555079925, 3.2193103591045968)	(-5.6553132198240572, -1.0909843942831587)	(-5.9872980217641585, 7.679928029102598)	(0.46198728443020798, -4.6284211644624103)	1.0	z	1.477
9	N	B	B	M	N	A	A	M	A	8	5	shapes	A	4	True	104	(7.4513186599816628, -4.2997357901566264)	(7.2567850618353802, 5.3109225145346368)	(-8.3637230936441842, 2.2890355934077142)	(0.11425824889070668, 5.1768275752405284)	1.0	slash	0.786798
10	M	A	M	A					M	4	2	shapes	M	4	True	104	(-1.2982404351438523, 0.44693279294353161)	(8.1330452236950457, -7.4672585690262743)	(6.1192977445443031, 5.4619831799070067)	(-7.9459291499931917, -4.6303977993087022)	1.0	slash	0.288447
11	N	B	B	M					B	4	2	shapes	B	4	True	104	(-1.8918972226932906, 0.92614977243154328)	(-6.7107998012874281, -7.3349907489778641)	(5.6109514583807361, -0.51505496454136157)	(0.73038341834192444, 6.9089246738449077)	1.0	slash	0.9261
12	N	B	M	M					M	4	3	shapes	M	4	True	104	(-3.7452043483456841, 2.0584476043414384)	(5.0346084547692076, 2.200427235571901)	(-4.0760867460190227, -3.2228390315269042)	(7.9987031287240242, -6.7877463464284613)	1.0	slash	0.799772
13	N	B	M	M	A	A	N	B	A	8	4	shapes	A	4	True	104	(8.4536517397283859, -3.0764871521148187)	(0.57826032812526229, 4.3464833206924087)	(1.6645015716375742, -1.986842108954276)	(-6.3513234861061481, 0.67975716468995095)	1.0	slash	1.56525
14	M	A	N	M	N	B	B	A	N	8	6	shapes	B	4	False	104	(-6.7310130289312688, 5.9818611973258982)	(-3.9907943761037235, 0.90710026970013224)	(-1.1442455166455208, -7.6304457951283204)	(4.5818671258661023, 8.3207650302372969)	1.0	z	1.02497
15	N	A	N	B					M	4	2	shapes	N	4	False	104	(6.8425329730818998, -3.4335124473017817)	(-6.6873781014391103, 8.7131547716569706)	(-6.8038802599685209, -6.3133388529625112)	(7.0198058841401867, 5.98017985004876)	1.0	z	1.74247
16	N	B	N	B					N	4	3	shapes	B	4	False	104	(-7.5405969325842035, -1.7294693194184152)	(6.5767109512118704, 1.8475286836783997)	(-5.3496827580481803, 8.6571881382225691)	(3.6707455851083122, -8.5427351487788012)	1.0	slash	1.5021
17	M	B	B	A					N	4	2	shapes	B	4	False	104	(8.0501702978416958, -1.1849019652327177)	(-8.1396625215227587, -3.663856848453892)	(-2.202438731428729, 3.1029832912581963)	(2.4421444276225941, 8.4862810124700623)	1.0	z	0.919799
18	M	A	B	N	M	N	A	B	B	8	0	shapes	M	4	False	104	(2.4741282958975788, -2.4221032470007344)	(-7.4788863183988763, 5.6063224055331613)	(0.45237110337109776, 2.7535864928416363)	(-2.8857559861138204, 6.7468710892992583)	1.0	slash	2.05098
19	N	B	M	N					B	4	1	shapes	B	4	True	104	(1.3606395136738492, -8.6079699658209723)	(7.5501108169492923, 1.6428075438486953)	(-4.2501710941671575, -8.3673622913610366)	(-7.3930877732874443, 1.7198986391312321)	1.0	z	1.08303
20	M	A	B	N	N	B	M	A	A	8	6	shapes	M	4	False	104	(-5.0417622155303512, -5.6224014686357986)	(0.980852598384514, 6.6585737240287823)	(5.73629406079219, -8.4222363530586524)	(-0.22354069568281787, -0.92700978811070645)	1.0	slash	1.11848
21	M	B	N	A					N	4	2	shapes	N	4	True	104	(-7.2654900222750474, 2.9142716701087235)	(-1.6638142945649603, -2.9949605719621948)	(1.7030817828591225, 0.68075768624767719)	(7.6478217288535397, -2.0436540860118209)	1.0	z	1.12808
22	N	A	B	B	N	A	M	M	N	8	0	shapes	N	4	True	104	(0.779749335238483, 2.0002219179507286)	(5.9662633586349134, -8.2619724138117441)	(-2.7106790977435127, -3.4647022454842498)	(-8.5772371383386101, 0.68106232872769468)	1.0	slash	0.419779
23	N	A	N	A	B	M	B	M	N	8	7	shapes	M	4	False	104	(6.7425386428954255, -2.8712546571021003)	(-0.65732199427838722, 5.8662929213667905)	(7.4464541546974985, 3.0030501789991497)	(0.45429590556711297, -7.1338358867735607)	1.0	slash	1.1014
24	N	B	M	M	B	N	A	A	M	8	5	shapes	N	4	False	104	(4.4463390850381348, 0.34277416362933799)	(-5.9442248305800209, 7.5164309268464677)	(6.1868083198030881, -8.6260916758689934)	(-5.2952909895832025, -2.0009355973879641)	1.0	slash	1.25915
25	N	A	M	A					A	4	2	shapes	M	4	False	104	(-7.9939354729796195, -2.8953479246731568)	(-3.390587621272962, 2.6779476143244185)	(4.4855676904636663, 2.7534851824074771)	(1.8143703955492416, -2.4393995184460797)	1.0	slash	0.704709
26	M	A	B	B					N	4	0	shapes	M	4	False	104	(7.9286005164168252, -5.0437436832673725)	(-8.011769549407699, -4.791675617956396)	(2.1941695496197955, 1.2140746450617659)	(-8.2593287769674184, 8.6316762467025754)	1.0	z	1.03045
27	M	B	A	A					B	4	3	shapes	A	4	False	104	(7.965566915765578, -4.2010865316431172)	(-4.0573238218116812, -2.5156309768605514)	(3.2939661154105124, 6.0953050448405452)	(-7.4139038110471756, 0.22256329469312952)	1.0	z	0.818169
28	N	A	M	N	B	A	M	B	B	8	6	shapes	M	4	False	104	(-3.8107472804366642, 0.41206034715405337)	(6.8921196077236697, 5.0856077880094279)	(-5.9319054694348861, 6.2242277809402999)	(1.424760416981643, 4.6067095612632407)	1.0	z	0.963694
29	N	B	M	A	N	M	B	A	A	8	3	shapes	A	4	True	104	(0.060370669593199366, 1.6421579881739312)	(-6.4260248580385362, 0.091056745082390478)	(-2.9463799990341268, -2.8160972589716247)	(8.0553495041128151, 0.84114276810269928)	1.0	z	0.767395
30	N	B	N	M	M	A	A	B	A	8	0	shapes	N	4	False	104	(6.0279360535957665, 6.5982200811691296)	(7.1002133774768073, -5.9873253913639104)	(2.8026115183140288, 2.7050294172630913)	(-0.96112867801445123, -0.22105521516456506)	1.0	z	0.56052
31	M	B	M	A					M	4	2	shapes	M	4	True	104	(-6.8190949087244945, -8.6007797788925178)	(1.3834683374121628, -7.1601126966804696)	(-8.5738837855844796, 2.9042907718873643)	(1.6645675769101711, 1.5606989048357836)	1.0	z	0.552718
32	M	A	A	M					A	4	2	shapes	A	4	True	104	(-8.0000372340977748, 2.8636634397848528)	(5.0999235959848974, -5.3229868109881098)	(4.4310552201885969, 4.2180245356232522)	(-3.0949117321565547, -6.1043255725682108)	1.0	z	0.6004
1	M	A	B	M	N	N	A	B	N	8	3	shapes	M	5	False	104	(-5.7768838512082592, 3.1100557991389994)	(1.4107965829393905, 5.8494519719654345)	(-1.2533784138668969, -5.816897107297617)	(5.821253379351921, -0.93925256278509917)	1.0	z	0.848087
2	N	B	N	M	A	B	M	A	B	8	2	shapes	N	5	False	104	(-4.9087963064766891, 5.4767813746155234)	(-6.2119657259781214, -1.8231359130712166)	(-7.0836776849621046, -6.7745563009490377)	(8.1950687313765833, -0.8585287929988521)	1.0	z	0.979742
3	M	B	B	M					B	4	1	shapes	B	5	True	104	(-7.8024463558690975, 1.8601325577610339)	(6.7623662600188599, 0.097378861708065756)	(-6.3623593379576002, -5.0376344232948078)	(0.85551759304457597, -7.5872857983312736)	1.0	z	0.817195
4	N	B	M	B					M	4	0	shapes	N	5	False	104	(2.7760246500576358, 0.52743633644789867)	(-5.4850402685610291, -8.5533600031538306)	(8.4754302013462208, -3.4660543826365036)	(-7.137586945533517, 8.4273213217898117)	1.0	z	0.896738
5	N	B	N	B					B	4	1	shapes	B	5	True	104	(4.7503039396977602, -1.0238089319383521)	(3.1577049590858035, 7.1641408627993677)	(-8.003934016619489, 2.677883738873831)	(-3.9358583780148333, -4.0384487262536028)	1.0	z	0.696549
6	N	A	B	B	A	M	M	N	N	8	7	shapes	N	5	True	104	(1.6677687879929639, 7.0973930799225542)	(4.3364006164616971, -6.7779651150340259)	(-0.84090471990793247, -7.398105350427401)	(-2.9481959854423954, 3.4307550463503595)	1.0	z	0.914328
7	N	B	M	N	A	M	A	B	B	8	1	shapes	B	5	True	104	(-5.9352109479957651, -6.9627775482722623)	(-4.7307134627231733, -0.85143983596384754)	(2.6775742474930695, -0.89679771303926525)	(1.4578091373529425, -6.4025337251807501)	1.0	z	1.28593
8	N	B	A	A	N	B	M	M	M	8	4	shapes	N	5	False	104	(-5.9315445854587168, 2.2424738032226941)	(7.5498573509055298, -2.8829115435109083)	(8.2733827144373109, -8.614483690223965)	(-0.36519649795992848, 0.63882171325554538)	1.0	z	0.833159
9	M	B	A	A	B	M	N	N	N	8	7	shapes	N	5	True	104	(-7.9696241160159804, -1.7203659916062595)	(-4.1896043290230915, 4.7760171372609523)	(1.0950432802239334, -7.2589364285014364)	(7.5226748046889007, -8.4519395276016507)	1.0	z	1.94299
10	M	B	A	A	N	M	B	N	M	8	5	shapes	M	5	True	104	(1.8522341318193938, 0.15166872164104106)	(-3.4717536789810106, 0.66805551540915964)	(-5.8488512403916211, 7.9734143272807181)	(2.3816399218921607, 5.1237809874312514)	1.0	z	0.470678
11	N	A	N	A					N	4	2	shapes	N	5	True	104	(-4.6158261982273148, -2.8831793042644733)	(-3.1155382665229521, 7.0072503014355938)	(6.1332621976544459, 7.0659675540127171)	(4.4778187401280576, -3.16042894837656)	1.0	slash	2.2904
12	N	B	A	N	B	A	M	M	A	8	4	shapes	B	5	False	104	(6.3998880907136879, -6.2117047689359861)	(0.22987074779403471, 3.7243570497654197)	(-4.271177558051666, 0.11572143821619285)	(6.3035148025648944, 4.2640371401927482)	1.0	z	1.05193
13	M	B	A	N					A	4	0	shapes	M	5	False	104	(1.5506056860303481, -4.6198454778383846)	(-5.9996756465488863, 2.4411888745733989)	(7.4285750655930798, 2.3662432592093907)	(-3.2684780077051245, -4.095664819840521)	1.0	slash	1.0056
14	N	A	B	N	M	B	A	M	B	8	5	shapes	B	5	True	104	(-8.2018384005170049, -2.1164567639109597)	(-1.2915763514707796, -4.9950964878512263)	(-1.2331557336128878, 3.3337645535826699)	(-5.180122723688255, 2.1886665732704174)	1.0	z	1.12121
15	N	A	A	M	B	N	B	M	A	8	2	shapes	A	5	True	104	(-2.6470441292174876, -2.0033254925149189)	(-5.9666341267998781, 8.64435577975717)	(4.5567358678585403, 8.0493643932270054)	(-0.81176037447338611, 2.1377767556603615)	1.0	slash	0.998733
16	M	B	N	N					B	4	2	shapes	N	5	False	104	(2.2498102595304061, -5.0987545802617227)	(-4.3699522760853391, 1.111632941743915)	(-4.4905753579284475, -5.2661020803612928)	(4.6835284373652826, 0.22541092034220256)	1.0	z	0.752496
17	M	B	N	A					A	4	0	shapes	M	5	False	104	(-2.8239351143813867, 3.8700635686420366)	(3.3577229107460287, 5.4739476618302767)	(0.094051206052142788, -5.7530550782435412)	(-4.2680336336720934, -5.8394331466258285)	1.0	slash	1.25807
18	M	A	M	B					B	4	0	shapes	M	5	False	104	(-4.1792488987249135, -3.1056439892347054)	(-0.51235909137232305, 1.0176149776673693)	(0.50286403235579691, -7.2889068826315917)	(2.7740181390720799, 3.4879822620911458)	1.0	z	0.327844
19	M	A	N	N					M	4	0	shapes	M	5	True	104	(-2.4116632352848013, 7.9376838772952851)	(4.468990762823335, -8.6292144952295633)	(-1.0313534470721404, -2.2703433351496995)	(5.4758266714779467, 0.86846854264164719)	1.0	z	1.28144
20	N	B	M	N					M	4	2	shapes	M	5	True	104	(4.5958287153377473, 6.6182974494856932)	(-3.6513401206980349, -1.9929735736686531)	(-1.3031006295032341, 6.2068360444649056)	(7.7486672072093334, -5.2610629786863701)	1.0	z	1.41903
21	M	A	B	M	A	B	N	N	A	8	2	shapes	B	5	False	104	(4.0851398811722088, -0.7981343965219807)	(-2.0094369020255192, 7.5017330263508839)	(-6.4474023027002243, 6.8201026280054826)	(-3.6887291100879107, -3.3873132264290691)	1.0	slash	0.716902
22	M	A	A	B	B	M	N	N	M	8	5	shapes	M	5	True	104	(8.2478842687221707, -6.9564140216202874)	(-8.3206749306961605, -6.141260734349073)	(2.087366335999441, 1.9342401326214027)	(-4.7905116274014992, -0.97187167146508813)	1.0	slash	0.730279
23	M	A	M	A					M	4	2	shapes	M	5	True	104	(4.8458213223339079, -4.792309078549124)	(3.0416099211789707, 4.1269554203579286)	(-6.0936704248781695, 7.9315115035917962)	(-3.3048422303432616, -0.38704606588518509)	1.0	z	0.890048
24	N	B	N	M	A	M	A	B	M	8	0	shapes	N	5	False	104	(-7.4557249394109331, 1.099977199344643)	(-2.9903671056283985, 7.2311441442972519)	(-1.7562983837432942, -6.5066921246765705)	(-8.6630420986777725, -5.9345337512226042)	1.0	z	0.94182
25	N	A	M	A					B	4	2	shapes	M	5	False	104	(2.0006992425374239, 1.0819836636719096)	(-2.2042565528374292, 6.2373619831196567)	(0.18541373054723209, -8.7442320768478652)	(-6.1976507806127206, -7.3875897234615326)	1.0	slash	0.739227
26	N	A	N	M	B	M	B	A	M	8	5	shapes	M	5	True	104	(-7.0137006520635135, 2.9167783012332755)	(8.2442925923687405, 3.7046612264301633)	(8.6112178317113788, -7.1257611858759269)	(-3.8708818855356242, -7.5077756086049678)	1.0	slash	0.537172
27	N	A	B	B					A	4	1	shapes	A	5	True	104	(2.7243188956718019, 2.8710245471033389)	(4.5189879177095271, -6.0933621050922708)	(-3.3020155443981061, -5.020209454313008)	(-1.6930311362751462, 4.7901724962352308)	1.0	slash	0.680601
28	N	A	M	N					N	4	0	shapes	N	5	True	104	(6.3448115475061719, 8.576298031470774)	(6.1777130673161782, -1.7070695809823997)	(-1.7251531015850352, -4.8785652899702914)	(-8.336476688305746, 6.274675839171751)	1.0	z	0.306298
29	N	B	B	M					M	4	2	shapes	B	5	False	104	(4.5209920065733442, 3.17030004033038)	(-4.2650778042878059, -6.8325008919065695)	(2.6396030414929328, -6.9999998553178058)	(-1.9615220561993736, 7.0745117715922952)	1.0	slash	0.805951
30	M	A	N	N	A	M	B	B	N	8	4	shapes	A	5	False	104	(4.9011877505021868, -4.1225244688510898)	(1.6224317228801652, 0.02665122777073492)	(7.9006415825511311, -0.27823370208860077)	(-3.4109464667625824, -7.569054246506183)	1.0	slash	2.27332
31	N	A	B	N	M	M	B	A	A	8	3	shapes	N	5	False	104	(-0.80789965249255324, -6.9895902078046612)	(-6.7010549937894961, -2.6688422067530375)	(-5.142606806014677, 5.4798577577171326)	(-8.4588427142011788, 1.8224179406933789)	1.0	slash	1.66317
32	M	B	B	N					B	4	3	shapes	N	5	False	104	(4.8388363732584523, -5.2582365291508522)	(6.0579280226165473, 0.89216314636390592)	(-3.9088416098925229, -3.4941809938818409)	(-4.844738671270802, 4.6554650089662939)	1.0	slash	1.12394
1	M	B	B	M	A	A	N	N	N	8	7	shapes	N	6	True	104	(-7.1477918315394495, -0.60616416533062534)	(4.2311481735234633, -1.4782758548404757)	(-6.7723109175403344, 8.7437346530947373)	(0.3464653689542132, -6.6622872117585707)	1.0	z	4.91445
2	N	A	M	M	B	A	B	N	B	8	7	shapes	N	6	False	104	(2.3715692064907365, -8.6447620267729182)	(-7.7010861440897571, -8.6760407100907404)	(1.693679536098367, -3.8868451367227514)	(1.3464136010944614, 1.4568743474686734)	1.0	slash	1.23969
3	N	B	N	A					A	4	0	shapes	N	6	False	104	(-5.3682479356727022, -7.7940939032005687)	(-1.4845769834790801, 3.4972207948752878)	(8.1660312157756891, -5.5034559195871484)	(4.0780787687509257, 4.5016102891687346)	1.0	z	0.601413
4	N	B	N	M					M	4	0	shapes	N	6	False	104	(7.0738699053324599, 8.6524963524777725)	(-4.2515319070657425, 4.848961744339972)	(8.024799319612395, -3.6319120430901766)	(-7.524330651889235, -3.7769793862186987)	1.0	z	0.930981
5	N	B	M	M	B	N	A	A	M	8	3	shapes	M	6	True	104	(1.8668533004812975, -1.9732073279070059)	(2.2494619971847936, 4.5842932686036963)	(5.3881936800743659, -8.064578496519875)	(-8.5967118985841129, 8.2404964356703871)	1.0	z	1.0686
6	N	B	N	B					B	4	1	shapes	B	6	True	104	(3.6642414378588146, -2.5498688782432701)	(-7.9031034448582416, 7.6776719902510315)	(-6.4115811783878183, -2.9467741124406688)	(1.7372842121457897, 7.5430825123687484)	1.0	z	1.44027
7	N	A	M	M					N	4	0	shapes	N	6	True	104	(-2.6142340473342669, -1.8674424290419047)	(-1.3414883486800049, 4.664333422685587)	(5.4432061896217814, 7.3944724654306562)	(3.1465972162344933, -0.33392198026161601)	1.0	z	1.26586
8	M	B	M	A	B	N	A	N	B	8	3	shapes	A	6	False	104	(4.6503603698886753, -1.8160509292620084)	(4.7815714356566055, -7.7906827606479681)	(0.07576755581412975, 3.955519454984822)	(-4.9188866080794114, -1.0071691223970793)	1.0	z	0.273429
9	M	A	A	M	B	B	N	N	N	8	6	shapes	N	6	True	104	(1.2715024820265359, -8.1316346773871455)	(-7.3444592081336157, -1.9038314005395689)	(-7.5769994706231234, 5.4231237169461561)	(3.4830170491314227, 1.03003861398442)	1.0	z	0.431281
10	N	A	B	A	N	B	M	M	B	8	5	shapes	B	6	True	104	(3.4197043698417744, 3.7547215433746786)	(-3.1830027824332028, 2.7424169367455828)	(-0.92593420072302823, -8.0294017268925071)	(1.6569357920827041, 7.8286692277230649)	1.0	z	0.444913
11	N	A	M	A					A	4	1	shapes	A	6	True	104	(-1.1774290974481634, -3.7279643823332016)	(5.1853443073634367, -1.3845463232895954)	(-0.27274089116928302, 5.5842640588042727)	(6.2084908479236116, 6.4469646855980862)	1.0	z	1.13451
12	N	B	N	A	B	A	M	M	A	8	3	shapes	A	6	True	104	(-1.4167413270497891, -2.8860131345662028)	(-0.69196731572786163, -8.1478293145629195)	(1.1302786219991052, 5.2534779402892848)	(2.8232244932509794, 1.4357703906531309)	1.0	z	1.20014
13	M	B	A	B	A	M	N	N	B	8	1	shapes	B	6	True	104	(-2.2763479346122306, -3.2649223514652492)	(5.6551537842282151, -5.2752818014348577)	(-3.4764593817853395, 2.1525570473769218)	(6.9333020709426059, 4.6916120093627498)	1.0	z	0.151836
14	M	B	A	N	B	N	M	A	A	8	4	shapes	B	6	False	104	(6.5934811810892544, 2.6956314634956158)	(-3.3770588207608103, 7.9528774522212053)	(-0.32130080126112048, -8.2675851023294058)	(1.2532430520121309, 7.0313142685315864)	1.0	slash	0.805561
15	M	A	M	B					B	4	1	shapes	A	6	False	104	(-3.8746526919186142, -1.0392622828474893)	(2.3092800336281325, 6.3554797347360328)	(2.1720245175034272, -6.9910270792912108)	(-3.5170359830278706, 8.5274291532796944)	1.0	slash	3.18103
16	N	A	N	B					N	4	2	shapes	N	6	True	104	(-5.9856357993581106, 6.0112976282425432)	(-0.10076969323499974, -1.2289730548585807)	(7.0822065028342536, 6.4589227465512433)	(6.2912703324626271, -6.220175724738108)	1.0	z	3.32246
17	N	A	N	A					A	4	1	shapes	A	6	True	104	(1.8004899446657738, -7.0060638425227371)	(-6.9818598018083371, -6.720968587180522)	(8.0803112106703985, 0.62187278683109781)	(-6.7304224752078596, 0.303383153845596)	1.0	z	0.86004
18	N	A	B	B					N	4	0	shapes	N	6	True	104	(-7.5278043551342328, -0.18086747496411881)	(5.6480071161224199, 4.106753190180525)	(1.8883326892041836, -1.718061478842718)	(-2.0976212234447624, 2.1072304059106486)	1.0	z	0.481634
19	N	A	A	B	M	N	M	B	B	8	2	shapes	A	6	False	104	(3.2279997429028491, -8.6134930012396325)	(-7.5580722568416041, 4.4965623573597657)	(6.7378185987002439, 3.6571917167233376)	(5.5024744703196795, -2.8534684226807476)	1.0	z	3.14138
20	M	B	M	B					A	4	2	shapes	M	6	False	104	(-0.36149401568383688, 0.46953211500124858)	(3.2696938513209552, -7.8657996858762385)	(0.010956911046470452, 4.9648286905691865)	(-0.0018931979011806988, -5.4285341118602801)	1.0	z	1.26693
21	N	B	B	M					M	4	3	shapes	M	6	True	104	(1.8367776983051893, -4.4963524974801876)	(-1.5205316397186444, 6.6539105659010822)	(2.6940884385880537, 4.947766678762644)	(-5.4438175887466294, -2.9294362697329195)	1.0	z	1.09638
22	M	B	A	A					B	4	3	shapes	A	6	False	104	(5.2212240928796625, 7.6537296835096171)	(-4.191028548141345, 5.6351573792396152)	(-0.87276774069536067, -6.9034722654442682)	(2.5645639242895868, -4.2784286513279106)	1.0	slash	1.29606
23	N	A	B	B					M	4	3	shapes	B	6	False	104	(-8.0886116955599032, 7.9142765019575805)	(-0.91175394056479053, -3.5155019345326659)	(2.7089702763049974, -7.8294308700120112)	(0.7284633763556414, 0.95326384942894471)	1.0	slash	1.01574
24	M	B	M	N	A	B	N	A	M	8	4	shapes	A	6	False	104	(4.8199051899040199, 3.7035996650078218)	(-1.9850238612675968, 4.7970485333258743)	(-7.2154477501843131, 3.1381173911284286)	(-7.7899272389360057, -4.9512883519481177)	1.0	slash	1.18332
25	N	B	B	A	M	M	N	A	N	8	1	shapes	B	6	False	104	(0.35817324754834168, 3.3222725230285892)	(4.5644773460778953, 2.5041318534266264)	(-6.9656673312092225, -8.2360475572694689)	(-3.6968716522298148, 1.6923126596270883)	1.0	slash	6.64871
26	M	B	N	A					B	4	2	shapes	N	6	False	104	(-5.2610161686288537, -5.4499795312482879)	(3.2614910616394024, -3.7699780091929851)	(-0.22649716502854567, 4.9396928006270233)	(3.5162161178204983, 2.7181022675364037)	1.0	z	2.68017
27	N	B	M	M	B	A	A	N	N	8	7	shapes	N	6	True	104	(-7.3049634746814682, 4.2493193210627798)	(-7.2991496456313127, -4.8748138565588359)	(-0.94781138976558044, 6.2235018217563631)	(3.6696260757398491, -5.5340034770769666)	1.0	z	1.47775
28	N	A	M	A					B	4	1	shapes	A	6	False	104	(3.1240973600481059, 1.1027545387614133)	(-2.1863086645414418, 3.3563495486292254)	(-3.150160539291929, -4.9660380067795931)	(4.090197900497099, -8.0466672569064084)	1.0	slash	3.32723
29	N	A	A	N	B	M	B	M	M	8	7	shapes	M	6	True	104	(-3.2378370076612404, 1.5253990492363698)	(-0.3408327743319024, -2.6668949523318766)	(-3.4261102737237152, 6.2858577589692661)	(-1.5750147504768801, -8.0760801779443305)	1.0	slash	0.610753
30	N	A	B	A	N	M	B	M	M	8	0	shapes	N	6	False	104	(-8.2790266297778743, 0.57763596944948503)	(7.0240748060430125, 5.8737102998218251)	(-2.7960004889211749, -3.6010060683137821)	(-1.934808339959706, 0.45123031853019313)	1.0	slash	0.532492
31	M	A	N	A	M	B	B	N	N	8	1	shapes	A	6	False	104	(-3.9673907905438748, -8.6173288463549653)	(-0.77063332066699797, 3.6282437930628983)	(7.6263499718339318, 5.7163927594945747)	(1.1273617961252516, -5.3239886222956745)	1.0	slash	0.766064
32	N	B	N	B					B	4	3	shapes	B	6	True	104	(-0.72879269167334471, 2.8788797232886214)	(5.1978014571057116, 7.7955180361958938)	(-7.8551418116187586, -2.4056150334344855)	(2.4665832717031186, -0.022444262457190334)	1.0	slash	1.00776
1	M	A	A	M					A	4	2	shapes	A	7	True	104	(-0.69072621194332307, 4.3401512641363702)	(8.1226911419171515, 0.65028774855749738)	(-1.1128639981539621, -8.4536093049847416)	(1.7722562669029358, -2.3430138580485922)	1.0	slash	0.395326
2	M	A	M	N					M	4	0	shapes	M	7	True	104	(0.31770724061891897, -3.4860227969016169)	(-5.0699273762510888, 4.8661163044947831)	(-4.414453244402841, -6.4550506694643577)	(0.20542477246636182, 7.7164780586055954)	1.0	slash	0.566681
3	N	B	N	M	A	M	A	B	A	8	2	shapes	N	7	False	104	(5.0911322375538326, -2.3902749739255)	(6.9133541806968033, 5.0877535771969953)	(-2.6336795018530603, 2.6766743120511762)	(0.23356565037591892, -8.286458019780655)	1.0	slash	0.322738
4	N	A	M	A					N	4	0	shapes	N	7	True	104	(-8.0817380883523509, -3.3241417270058484)	(2.9689084885555115, 3.4573940527730453)	(-6.1282683669378439, 8.4941435371411877)	(8.538943066934241, -1.4138948973189462)	1.0	slash	1.77231
5	M	A	N	B	N	A	M	B	B	8	1	shapes	A	7	False	104	(-7.6069978525399327, -1.8739703223448343)	(-2.2106413782960397, -0.84675690835190043)	(1.4475179680802146, -4.2920477701505062)	(-5.5039507478826746, 1.8071896255948818)	1.0	slash	3.62193
6	M	A	M	N	N	A	B	B	B	8	3	shapes	N	7	False	104	(0.68544574066057606, 6.0918500865188907)	(2.6668514131361434, -3.3661637180658381)	(-6.8661401092434637, -6.889716849487777)	(-1.8932719906666282, -3.6459288845655173)	1.0	slash	5.47518
7	M	B	M	B	A	N	N	A	N	8	4	shapes	A	7	False	104	(-4.5928791821638582, -3.9872879891034021)	(-3.747416490624655, 5.3622119083636246)	(-8.0064219524742377, 7.7377917540782413)	(7.0109767945888155, -4.6122740953064882)	1.0	z	0.960681
8	N	A	M	N	A	M	B	B	M	8	3	shapes	N	7	False	104	(4.500447709964714, 3.3594195430033285)	(6.9744225405549347, -7.9581623648260074)	(-5.373475147326455, 5.5298009420838774)	(-6.344608565578576, -2.2983261614232244)	1.0	z	1.20235
9	M	A	A	B					N	4	3	shapes	B	7	False	104	(7.0558661244061938, 3.9530374958939341)	(-8.6842625814370162, 3.5241042576929758)	(-4.8052016592093745, -1.6378775279257827)	(0.4439704787669303, -8.4564909928289893)	1.0	z	0.363981
10	M	B	N	M					M	4	0	shapes	M	7	True	104	(-5.5077155765059285, 7.9304442651400215)	(2.5344232043724766, -7.8315438522224419)	(-2.9942691470913125, -0.83907559695126821)	(7.0646423162944476, 8.7036022673103766)	1.0	z	0.32557
11	M	B	M	A					M	4	2	shapes	M	7	True	104	(-0.077229652432940554, 6.4523779113624755)	(2.3068202812395739, -8.1156968183689493)	(-8.2569688211398109, -6.5779551761326278)	(6.0810581001199662, 5.0496229419501102)	1.0	z	1.00942
12	N	B	N	A	A	B	M	M	A	8	2	shapes	N	7	False	104	(-1.984007089510528, 8.3763102545627888)	(-7.811722118299933, -7.6884447359366996)	(5.2030675897174241, 6.4675734166820771)	(2.9905423852134394, 1.0271012111005078)	1.0	z	0.291019
13	N	A	A	B	B	N	M	M	B	8	3	shapes	B	7	True	104	(-0.53130882433372051, -4.89877642587272)	(8.3620250012337358, 7.528081610229755)	(-4.7762894152570734, 7.9183039488827269)	(-5.4261517556521444, 2.7768759402276331)	1.0	z	0.630557
14	M	B	A	M					B	4	2	shapes	A	7	False	104	(5.1709764869876782, 5.6846100670631312)	(1.9032853018723763, -7.081529378031731)	(-7.9546162665809748, -7.3558706572936163)	(-8.7324764748074362, 7.020207705562493)	1.0	z	0.258365
15	M	A	M	A					N	4	1	shapes	A	7	False	104	(-2.5831379083984407, -1.4990721480041831)	(6.8507232856028732, -1.4637708734511916)	(4.4400116825433109, 3.9343495194281353)	(-4.0703704175103947, 6.050767573419833)	1.0	z	0.888045
16	N	A	N	A	B	M	M	B	N	8	0	shapes	N	7	True	104	(6.4213385074296294, 5.920694709933402)	(4.5616333434913443, -5.1267333351235784)	(-3.4002876609043495, -6.8173718051741901)	(4.9077019988726676, -1.1144624042415714)	1.0	z	2.24362
17	M	A	N	N					A	4	2	shapes	N	7	False	104	(7.5083772215558078, 3.8315452041606637)	(-7.5094905185128056, 0.30522706470993555)	(3.1147108824743608, -6.7011846831117499)	(-1.8273005682799202, -2.6761634268911916)	1.0	z	0.277363
18	M	A	M	N	N	A	B	B	A	8	1	shapes	A	7	True	104	(-4.4410454332256082, -4.1353128612637953)	(-5.5883158971925528, 5.915991755082576)	(-3.1630474933325008, 0.24466905457260957)	(1.5661232918367816, 3.1600201692642944)	1.0	slash	0.921782
19	M	B	A	N					M	4	2	shapes	A	7	False	104	(-1.0858723932277625, -4.5716191843277594)	(3.6710489047185071, 2.5129760345477763)	(-6.5274546236239281, 8.1544389659167891)	(7.0821606249004354, -5.3239430430115657)	1.0	slash	1.23669
20	N	A	N	B	B	A	M	M	B	8	6	shapes	M	7	False	104	(-1.9151301808046401, -5.3005462289834755)	(0.37719384905345166, -0.39329584021345632)	(8.0718716831682968, -7.8456496728393414)	(-4.6872784097586804, 4.0247378287094016)	1.0	slash	1.0902
21	N	B	B	A					M	4	1	shapes	B	7	False	104	(-8.7408742921582423, -1.2163144230627774)	(8.130463494901246, 5.2315220610098425)	(-2.0068301127395003, 3.9557646818422594)	(0.20394654456110928, -0.31365985812968589)	1.0	slash	1.34584
22	M	B	M	A	A	B	N	N	N	8	6	shapes	N	7	True	104	(-6.8409061736896728, -2.515839279149743)	(0.18776900619866232, -5.756319047387402)	(-7.8522872177074881, 2.9814281290223281)	(7.9157008412127858, -7.5658407911054759)	1.0	slash	0.243353
23	N	A	N	M					A	4	1	shapes	A	7	True	104	(-4.1557764820672523, -2.389178035316565)	(-5.1592940921999073, 2.0641800329625291)	(2.2592173066047341, -6.5037900321450444)	(1.3583116659117245, 2.5091113705621169)	1.0	slash	0.363725
24	N	B	N	M	M	B	A	A	M	8	5	shapes	B	7	False	104	(-1.1084972418048906, 3.2860531871431391)	(-5.0359747872831129, 6.5875662737272425)	(5.3680517398386201, -7.9661569672701651)	(6.0802634201816019, -1.4382228800607919)	1.0	slash	0.390942
25	N	A	B	M	M	B	A	N	N	8	7	shapes	N	7	True	104	(-1.0145478267877222, -1.8391544603804206)	(-0.83381680974140071, 3.5411141188731428)	(-6.7695138401663115, 7.1693438048620859)	(4.0757528283149789, 2.1604350840281121)	1.0	slash	0.206522
26	N	B	A	M	N	M	A	B	N	8	4	shapes	N	7	True	104	(-6.7646476973462324, 3.1477370781687419)	(7.1287819602845541, -0.078848902775060736)	(5.2965822825513627, -7.2786556950152725)	(-0.27338825256251198, -1.5401456056786804)	1.0	slash	0.0341561
27	M	A	N	N					B	4	1	shapes	A	7	False	104	(-1.0186280912800747, 6.8345439660128804)	(4.148948309011173, -3.071764487944753)	(-1.5979315190205625, -6.796626766772758)	(8.2973932397392254, 1.960840383230483)	1.0	slash	0.229931
28	M	A	M	B					B	4	3	shapes	B	7	True	104	(-2.3396118657518175, -7.9778865077304362)	(1.2631328216151996, 6.895497730387337)	(-3.7530874447258782, 0.40671785169352326)	(7.2846074305277142, -4.4343256072116448)	1.0	slash	0.18751
29	M	A	N	A	B	B	N	M	B	8	4	shapes	B	7	True	104	(-5.9173344774490335, -1.6468473022826107)	(-5.6874117284423082, -6.165775105656504)	(8.1184266140506089, 3.659588601044435)	(2.078430134147796, 4.9516299493501386)	1.0	slash	0.265286
30	M	A	M	B					B	4	3	shapes	B	7	True	104	(-1.5410437748083696, -7.0143434031291019)	(1.3392201030316837, -3.7744298910033063)	(-8.5671385075419284, 3.2802789644551051)	(4.281280098417092, 0.31032278355848142)	1.0	slash	0.438993
31	N	A	N	B					B	4	1	shapes	A	7	False	104	(5.2125130599259286, 4.8909305529652674)	(-8.1079828454129377, 6.5924664409901688)	(-7.8404566954958499, -6.7720409535609027)	(3.8927160169960384, -3.1621546684512207)	1.0	slash	0.20868
32	M	B	N	A	N	A	M	B	A	8	3	shapes	A	7	True	104	(3.7897165845329788, 6.6817630520887015)	(-4.584653727309961, 6.7062176757927059)	(6.519904627264216, -4.2803992753790796)	(-5.7955448908519163, -6.9478950491433231)	1.0	slash	0.362247
1	N	B	N	M					B	4	2	shapes	N	8	False	104	(2.2729128567354913, 3.5902148385202075)	(6.7896804768617578, -3.0610783412132276)	(-3.9345522982029104, 1.6252811673225764)	(-3.3332866463604756, -4.9048850928791472)	1.0	slash	0.2441
2	N	B	N	A					B	4	1	shapes	B	8	True	104	(-8.2018520946103113, -3.5950435201244479)	(3.9899616492843517, 6.4620421707711593)	(3.9959234950331393, -4.822825323449635)	(-2.7331249457949767, 3.9130172973456805)	1.0	slash	0.284831
3	M	A	A	B					A	4	2	shapes	A	8	True	104	(-0.24124083557990694, -8.2896090172452084)	(1.9985073424932001, 0.306751429809621)	(8.6366634620297589, -7.1078813350043619)	(-4.695901072458212, 1.8978091967264046)	1.0	slash	0.483357
4	M	B	A	A	M	B	N	N	A	8	3	shapes	A	8	True	104	(-0.85714632059948492, -0.36431247959800928)	(-3.7135012243772483, -5.0699162607464441)	(-4.7274517258439479, 2.7995920651697261)	(7.0965918663855572, -3.6411780421609921)	1.0	slash	0.315094
5	M	A	N	A					A	4	1	shapes	A	8	True	104	(-1.8211620785192864, 2.6253596584481098)	(2.3932388852043953, -5.1040847750610752)	(-3.2692326575191695, -8.4176566976689617)	(6.4460028840719534, 6.0606416310674618)	1.0	slash	2.18275
6	M	B	A	M	B	A	N	N	M	8	4	shapes	B	8	False	104	(3.5474179595070741, -2.7205810101146772)	(-1.2571221904578893, 7.7605807470164301)	(8.701779461657118, 4.6346123706480569)	(-4.6665887491284028, 4.3473409792840219)	1.0	z	0.330482
7	N	A	B	A					M	4	2	shapes	B	8	False	104	(-5.3453086628098294, 4.6278093471643693)	(-4.4456989534953717, -7.4056924987180937)	(5.2107899505246031, -8.1083204468705024)	(7.8519030097891367, 7.3314927230021034)	1.0	z	1.16201
8	M	A	N	B					M	4	0	shapes	M	8	True	104	(-4.3393681427882074, -8.6425842397797954)	(8.6510583701360098, -6.9327424151062562)	(-2.6065917238498866, 7.1550405484643722)	(0.35017951209498399, 3.5367460077985644)	1.0	z	2.62962
9	M	A	A	N	B	M	N	B	B	8	7	shapes	B	8	True	104	(-7.7335873828214874, 5.1942697205989301)	(3.1098065453419093, -0.72393005032301794)	(-1.1118607700887093, 5.1872791725960088)	(8.3542435471859022, -0.58604141926673314)	1.0	z	0.63729
10	M	A	M	B	A	N	B	N	B	8	4	shapes	A	8	False	104	(-5.9752792876802783, 6.8694265992268946)	(-1.0934893878308554, 1.3357910227195937)	(0.49053771701879967, 6.5322402445369434)	(4.1900141614659372, -0.01607251232560003)	1.0	z	1.32885
11	M	A	B	N	A	B	M	N	N	8	3	shapes	N	8	True	104	(4.8352349953842069, 2.6712766140055635)	(-6.9344370641202406, -1.3172212621662442)	(0.046367823235849315, 3.5567209491052001)	(-8.1451009118803679, 3.8968716826322503)	1.0	z	0.508586
12	M	A	M	B					A	4	1	shapes	A	8	True	104	(2.3701260733156388, 1.7743753095784918)	(-2.3906501760245717, 2.3594845720879665)	(6.1195347315420108, -1.5126564197160999)	(-1.838289340795586, -3.135938946195644)	1.0	z	2.10424
13	N	A	B	M					B	4	3	shapes	M	8	False	104	(3.4477230042679103, -6.8543787503127138)	(-4.2267047646105862, 5.9630899822630301)	(5.8700241268834095, 1.2566796083606153)	(-5.1603247409294779, -7.6315301507994882)	1.0	z	1.28542
14	M	B	B	M	N	N	A	A	M	8	2	shapes	B	8	False	104	(-6.0170331588612687, 6.68396750453031)	(-6.3041547708024837, -2.6303727303798441)	(-1.3222899812920712, -7.7073315797003197)	(2.6042554226286629, 6.3629623887760633)	1.0	slash	0.28136
15	M	B	A	A					N	4	2	shapes	A	8	False	104	(-5.2794815333665959, 3.8815859177252108)	(0.40577952236513681, -3.9071836463387823)	(7.7688560868105654, 0.23091186195910574)	(-4.6188830099457734, -2.8840061834934856)	1.0	slash	0.252839
16	N	A	M	A	N	B	B	M	B	8	4	shapes	N	8	False	104	(-6.539393021199766, -0.67334683351980296)	(-3.2755052300440903, 6.871404322777261)	(-1.5374021045267101, -1.9849508268258349)	(8.601540094258219, -5.3461221748389285)	1.0	z	0.34606
17	N	B	A	M	M	N	A	B	B	8	4	shapes	M	8	False	104	(-6.8232954265448225, 2.8385486412106644)	(6.6086767438532288, -6.9515598065402955)	(-6.5173790919241679, -4.8144224170685721)	(-3.9028826636833216, 7.5222709259393348)	1.0	z	0.242403
18	M	A	M	B	B	N	A	N	B	8	3	shapes	B	8	True	104	(0.92161049860248312, -8.5200047105702374)	(-4.8729281211169004, 7.471206522613187)	(0.87971300713809697, 0.88533190064655187)	(3.8032057882055792, -3.0556286256038963)	1.0	z	3.82417
19	M	A	B	M	A	N	B	N	M	8	3	shapes	M	8	True	104	(6.0583256399239396, 1.7864337420626484)	(4.0103041804718291, 8.190891163142215)	(7.3039990031482169, -6.4170352596621907)	(2.2036805729964968, -4.1427069129659566)	1.0	z	0.319428
20	M	B	M	A	B	A	N	N	N	8	7	shapes	N	8	True	104	(-4.4591854794847237, 1.0574867469793663)	(-1.067461574380693, 4.9661632379604477)	(1.3363536902092257, -2.2983421717802823)	(8.3258927290292384, -1.4771746180237972)	1.0	z	0.931306
21	N	A	M	B					A	4	1	shapes	A	8	True	104	(-0.030100075906004164, 0.3722471944053698)	(-1.5759446479412453, -8.3911740703500062)	(7.3076235845078656, 0.91735782142604272)	(8.6192536917931335, -4.6211977353513252)	1.0	z	0.898736
22	N	B	A	A	B	M	M	N	M	8	2	shapes	A	8	False	104	(6.2453915933666728, 7.0634867517733042)	(2.9635962797859037, 4.7273010001158653)	(-1.092740776933784, -0.93826908551307309)	(-2.7925664348526915, 8.4236059460425032)	1.0	z	0.476451
23	N	A	N	A					M	4	1	shapes	A	8	False	104	(-4.0656980958561109, -1.6858489530418481)	(7.0721011370093905, 6.2210802776537104)	(6.2953990254868231, -7.7425256655704642)	(-3.4133592924448379, 7.6331941086830852)	1.0	z	0.5042
24	N	B	A	M					M	4	0	shapes	N	8	False	104	(0.87701269994991726, -2.3758177743917539)	(-3.3383224134190463, 2.2678861678085944)	(-3.4828433609928338, -5.8321246028443614)	(8.5376622282061518, 8.2056985213994942)	1.0	z	2.40575
25	M	A	A	M					B	4	0	shapes	M	8	False	104	(-8.6450414453289284, -8.5704217631267099)	(6.8771846167909452, 6.7112276264237849)	(-6.1661861366752682, 7.7668640286795423)	(0.92561089261042895, -0.83448548107393528)	1.0	z	0.471399
26	M	A	M	A	N	N	B	B	A	8	0	shapes	M	8	False	104	(5.2450212862268586, -2.2186781503065109)	(3.4183926644069302, -6.4869530351997469)	(-6.9386537118674667, 4.538119429925553)	(6.1423773278056615, 1.8272341657037359)	1.0	z	0.261033
27	N	A	M	A					A	4	3	shapes	A	8	True	104	(5.263231878503376, 5.4845515712304884)	(3.1527693838161301, -1.6485638474191759)	(-2.9387964130613256, -8.5655864286610033)	(-0.97280824735786897, 7.5185543769941141)	1.0	z	0.54673
28	M	B	N	N	B	A	A	M	M	8	1	shapes	B	8	False	104	(0.026017081860045366, -7.8976371186191141)	(-2.4034075841692442, -3.8980938277858561)	(-1.1528187683424536, 7.8029493374297338)	(2.3420423481594899, 2.6847806818035771)	1.0	slash	1.06632
29	N	B	A	N					A	4	2	shapes	A	8	True	104	(-0.68776734030758035, 5.6927776180584786)	(6.1611556776070255, 6.7054558318666473)	(-3.4281524503783043, -3.7571086552206774)	(6.6951902657010276, -6.6638630750438406)	1.0	slash	1.10398
30	M	B	M	B	A	A	N	N	A	8	5	shapes	A	8	True	104	(-8.088209968482472, -6.858921498810326)	(2.7715730404787315, 5.8815118990667283)	(-4.5947574680179866, 7.5483698080096886)	(-2.6482610427529654, -3.921725034240386)	1.0	slash	0.469704
31	N	B	N	B	A	A	M	M	M	8	7	shapes	M	8	True	104	(3.7771103119971894, 4.4250834767000171)	(-1.011817788808127, -6.4983182733365581)	(-5.6257159710493241, -1.6712333440320464)	(1.6753885559728836, -0.54258586696431799)	1.0	slash	0.589349
32	M	B	A	B					B	4	2	shapes	A	8	False	104	(3.5006036070569966, -4.3337487559009107)	(-6.9135820333316218, -6.8519368691151374)	(-3.2467444534804493, 6.0473282121392504)	(5.0462414224889542, 2.4443076554163987)	1.0	slash	0.632283
