TrialNumber	stim0	stim1	stim2	stim3	stim4	stim5	stim6	stim7	stim.probe	ttl.stims	corr.num	trial.type	stim.corr	block	match	Subject	stim.pos0	stim.pos1	stim.pos2	stim.pos3	ran	resp	RT
1	N	B	N	B	A	A	M	M	B	8	3	shapes	B	Practice	True	11	(-6.3223531289849095, -7.5915596218478161)	(2.7991185498699753, -0.79171187512832208)	(-8.432129304758643, -1.452433855359736)	(0.31729469489676809, 6.3837717639040648)	1.0	z	3.60262
2	N	B	A	B	A	M	M	N	N	8	1	shapes	B	Practice	False	11	(-5.8282223362052941, -0.11842698459997258)	(-0.71767169641526607, -3.186851780553166)	(-1.9232987275619946, 3.3838585969195556)	(7.0929238394391234, -1.6076692381691995)	1.0	z	2.99804
3	M	A	N	A					A	4	1	shapes	A	Practice	True	11	(-1.0975770315355167, 5.0116934418393821)	(0.35690617186007323, -2.3153610002710012)	(-5.4159682287360242, -5.7298131426503502)	(4.9275304615553086, 7.581085594837166)	1.0	z	3.07132
4	N	A	N	M	M	B	B	A	N	8	5	shapes	B	Practice	False	11	(-6.4988827497356088, -1.8502147408021248)	(3.9736111626493233, 7.3557381378123594)	(7.8616923434854087, -3.328164099318724)	(-1.7748800042116955, -7.6548601478934906)	1.0	slash	2.69292
5	N	A	B	A	N	M	B	M	B	8	2	shapes	B	Practice	True	11	(7.8151700018585117, -5.8989782067287271)	(-0.166255916617434, -6.5593481950117667)	(0.58169458434512045, 6.8266581447646058)	(6.1058719563470198, 0.95519567913971137)	1.0	z	3.08636
6	M	B	M	N					B	4	0	shapes	M	Practice	False	11	(8.1106914758683715, -4.1693496032199082)	(-5.1022227443692714, 5.4233843750548232)	(-3.538832557303718, -5.4787252083989468)	(4.3616175137251645, 3.4834187516511648)	1.0	slash	1.48796
7	N	A	B	M					M	4	3	shapes	M	Practice	True	11	(3.5409108197625621, -3.6947420876177102)	(-1.294909149350743, 0.64027576298209254)	(-4.6905573802325682, -4.2244364897143321)	(1.9174330931652559, 3.707180009683686)	1.0	z	3.32734
8	N	B	M	M					N	4	2	shapes	M	Practice	False	11	(6.4818869525149001, 7.4287533115215929)	(-2.5779511750654134, -7.5977419437500977)	(8.0191571698002484, -5.86110280494814)	(-6.3423896949360641, 4.4206813390597333)	1.0	slash	1.24697
1	M	B	B	M					A	4	3	shapes	M	0	False	11	(1.6846417086766863, -8.0680410052843676)	(-7.3172616950294911, 5.6570813724211604)	(4.8722130082500854, 0.60566349389277008)	(-5.8530358854936715, -6.4781287648519941)	1.0	slash	1.49231
2	M	B	M	N					N	4	3	shapes	N	0	True	11	(-0.26616883346501474, -8.615817164324568)	(0.71783463505396661, 0.46831840278279202)	(0.27973622320877034, -4.1482800961294393)	(-4.8839029397051066, 7.0364230489109438)	1.0	z	1.36382
3	M	A	B	B					A	4	1	shapes	A	0	True	11	(-5.5200900115166505, 3.874463650530652)	(-7.8246272173060181, -3.0789702148061853)	(8.2010085979371539, 8.0527635319559536)	(7.5259451389747269, -6.4902482684496006)	1.0	slash	1.90143
4	M	A	N	M					M	4	3	shapes	M	0	True	11	(-8.0847517411988452, 0.73168863369888371)	(-0.26005140711265895, -2.549511547762636)	(5.5109610557717659, -2.8929551200423633)	(2.3652770162093564, 4.2539153582609313)	1.0	z	1.82713
5	M	B	M	B					M	4	2	shapes	M	0	True	11	(-6.1040650560892331, 0.76682092052565132)	(8.6480409693559501, -8.7428410790727842)	(-5.958727374985795, -7.8655080204754917)	(5.995612251699681, 3.4609539666567102)	1.0	z	0.984233
6	N	B	N	B	M	A	A	M	M	8	3	shapes	B	0	False	11	(-6.2671794034763177, -6.0416821747789058)	(1.3245583237121998, -2.0225777986308753)	(1.6376917172412497, -8.5161858017955439)	(-0.63043126727958487, 1.6240229964867332)	1.0	slash	1.05628
7	M	B	N	M	B	A	N	A	A	8	5	shapes	A	0	True	11	(-4.6743157883096664, -8.2392168756242139)	(-8.7264194345834447, 7.5014203663316295)	(-4.2077859905878086, 2.0175919702430019)	(-6.6106411934268312, -3.5787711267108913)	1.0	z	1.36195
8	N	B	N	M	A	M	B	A	M	8	5	shapes	M	0	True	11	(2.8280194173513404, -4.3300249115576603)	(8.5887908901933692, -7.0354224191676655)	(4.5558194707405342, 6.9483512867085757)	(-2.0861514849306726, -4.7507015547325118)	1.0	z	1.33157
9	M	B	A	A	M	B	N	N	A	8	3	shapes	A	0	True	11	(7.693159713859572, 2.4723261412100275)	(-6.6196346703300453, -5.1473304199830716)	(8.715002760686005, -8.2717519454531061)	(-1.8986742654787658, -8.6874639535902993)	1.0	slash	1.21313
10	M	A	N	N					A	4	1	shapes	A	0	True	11	(4.9813485220900002, 8.4217702640971446)	(-4.5132089977854868, 7.0650312522323269)	(0.44156153146475852, -7.4879768494942551)	(-2.8855338419498091, -0.72691691666060088)	1.0	slash	1.70877
11	N	A	A	M	B	B	N	M	N	8	7	shapes	M	0	False	11	(7.7006074312946993, 0.36004898222287274)	(4.446231908492857, -3.8176546472545052)	(-8.0007961564966976, 0.8158668342260782)	(0.71567833554395044, -7.4093944844319015)	1.0	slash	1.18027
12	M	A	N	M	A	N	B	B	M	8	2	shapes	N	0	False	11	(-5.6028643229193511, -7.9653635779045322)	(0.30872996334237968, -8.3632394212740344)	(-7.4678959409493846, -1.4245224633362348)	(-8.3538326195429491, 3.7365578763405036)	1.0	slash	2.17404
13	N	A	N	B	A	B	M	M	M	8	2	shapes	N	0	False	11	(7.4243648499422363, -7.9416150317618079)	(-6.2065033738665889, -4.4691074739575338)	(8.0666910873217539, 1.0717271981898104)	(7.2375298063593672, -3.8790141806085643)	1.0	slash	1.16736
14	N	B	A	N					N	4	3	shapes	N	0	True	11	(-0.54572802159017009, 4.4805083419678233)	(-4.7687173540789436, -3.5680956063772182)	(8.3884679339175996, 6.0892276557035334)	(4.6951222052519945, -1.6739982197754406)	1.0	z	0.897122
15	M	A	B	N					A	4	3	shapes	N	0	False	11	(-0.57784937439542894, 3.8688479271083391)	(6.4351139237523061, 8.5946290791784286)	(-3.7306070536601643, -4.7327773408088492)	(0.84840876642390128, -6.0051469810257325)	1.0	slash	1.7107
16	N	B	B	A	A	M	M	N	M	8	6	shapes	M	0	True	11	(0.23690189385479954, -6.1857174065078251)	(-6.6888437628715058, 4.5110963169308338)	(5.1042388209224452, 7.8017262676439074)	(-2.6999951082067826, 8.0199405978630409)	1.0	z	1.27617
17	N	A	B	B					A	4	0	shapes	N	0	False	11	(-6.6015434894485621, -0.697966741203631)	(4.7401021783251895, -2.0488474592029489)	(-1.9561022339849963, 8.2198098726963877)	(1.8790348711839595, 5.9068306579488095)	1.0	slash	1.51175
18	M	B	A	B					M	4	0	shapes	M	0	True	11	(7.5316712424076471, 7.1871830018184308)	(-2.7898759476823338, -5.6871257608756824)	(-4.217777527519325, 4.5589313476001401)	(8.1734069592515119, -5.7344875819014991)	1.0	z	0.731639
19	N	A	N	M	M	B	B	A	M	8	3	shapes	M	0	True	11	(6.6413434570741359, -6.4325278178087171)	(2.7152707189508796, -7.6517614396187019)	(-8.0783493249984044, 3.676132390407723)	(0.76873131309958609, 8.0580454723508304)	1.0	slash	2.30923
20	N	B	B	M	M	A	A	N	N	8	4	shapes	M	0	False	11	(0.53985805022910682, 1.9118260911876526)	(-2.8745972368451227, -7.9493995232587782)	(5.8015540875892633, 5.308294763176427)	(-7.3468253056914437, -2.6216816446736422)	1.0	slash	1.1466
21	M	B	N	N	M	B	A	A	B	8	5	shapes	B	0	True	11	(4.1326477521930656, 0.24168528987535431)	(2.2252314785299099, 5.1773436665537922)	(-0.73605858404582847, 1.3178460989474896)	(-5.8126550704772679, -4.6250170531606702)	1.0	slash	1.44852
22	N	B	N	A					B	4	3	shapes	A	0	False	11	(3.3452635387952157, -1.918745280885811)	(-3.4473289919460264, 4.4455227749979738)	(-4.1372978616362879, -0.95709830376466432)	(0.87619719272334606, 1.4525037931767049)	1.0	z	2.03199
23	M	A	B	M	A	N	N	B	B	8	6	shapes	N	0	False	11	(6.537565860555258, -5.7723907923491611)	(-0.84487161917718101, -2.8004021843630369)	(6.9728592704435322, 2.6756673216169169)	(6.7500905441081365, 7.9277724504223279)	1.0	z	1.50949
24	N	B	M	B	M	N	A	A	N	8	6	shapes	A	0	False	11	(-6.8201959606069424, -8.5514233798427863)	(1.9996487672750511, 4.0365163618786077)	(6.3589788162615246, -5.3478402995645267)	(5.0032699675429804, 0.48125471061205261)	1.0	slash	0.851006
25	N	A	N	A	B	B	M	M	A	8	3	shapes	A	0	True	11	(0.71918014579939538, 6.3085194418414439)	(6.9687507084767795, 8.470909330958321)	(1.119510209799758, -4.8394658224145966)	(-5.3582989944323733, 1.1586727783853092)	1.0	slash	1.38602
26	M	A	A	N	M	N	B	B	M	8	2	shapes	A	0	False	11	(-4.1741571239693487, -5.582363314711122)	(3.8096451876744624, 1.5763062944115589)	(-7.8453003026885888, 0.45322989271432768)	(-0.26191890453375244, 6.5154293647742509)	1.0	slash	1.45846
27	N	A	N	B					M	4	3	shapes	B	0	False	11	(-8.2909176897003487, -8.4775864542332009)	(-7.2083861115261119, 5.6049557991637045)	(4.2941515113421609, 4.787010496300443)	(8.1571565285261656, -4.5965379807062723)	1.0	slash	0.927983
28	N	A	N	M					A	4	0	shapes	N	0	False	11	(-6.7370239879574321, -5.0861310691091628)	(-0.14138780316877408, 4.2315182348919986)	(6.5268258452210368, -5.0520601822457234)	(2.4408139069915293, 7.5306504306306046)	1.0	slash	0.735632
29	N	A	A	B					M	4	3	shapes	B	0	False	11	(-7.7320081787881376, -7.3782522299860895)	(7.6284787428676637, 4.9238995458861368)	(0.9517988603753107, -5.6416513429067692)	(-0.52601908671843312, 8.7478784692458831)	1.0	slash	0.919237
30	N	B	A	B	M	M	A	N	A	8	2	shapes	A	0	True	11	(-7.9959652360098499, -7.4499318909548773)	(-0.06547806567243164, 1.261492510383551)	(5.3757752211312777, 2.5370692203683749)	(-2.4277836304906106, 6.0178440602606944)	1.0	z	3.26077
31	M	A	M	B					N	4	2	shapes	M	0	False	11	(-4.0446310099789011, 1.132335833447037)	(-0.767198927354662, -8.2702402197606713)	(5.9974842100425114, 7.4845763210068483)	(0.19182181837416046, -0.39195749536125923)	1.0	z	0.936404
32	N	B	N	M					N	4	0	shapes	N	0	True	11	(3.2166443109857461, 8.3014060304577129)	(2.7242903099044113, -2.3838802389541325)	(-2.6347390516119686, -3.4875674490219115)	(-6.2214916298127729, 3.9782127807891854)	1.0	z	0.551979
1	N	B	N	B	A	M	M	A	M	8	2	shapes	N	1	False	11	(5.5065183294363322, 0.03578579831724582)	(-1.3926507177443188, 5.5796534268108982)	(-7.2565514615131734, 2.555763746337691)	(2.188241763115883, 8.3100232571720909)	1.0	slash	0.937727
2	M	A	M	A	B	N	N	B	M	8	0	shapes	M	1	True	11	(5.6288292316837563, 4.1444522860595949)	(-2.5521728171031874, -5.2656713558708272)	(4.5941201377396617, -8.6737900866179167)	(1.2432933037436111, 5.028539346368424)	1.0	z	0.907214
3	N	B	A	B	N	M	M	A	N	8	1	shapes	B	1	False	11	(7.0946625832530508, -6.3371318014882618)	(-6.8519353760361446, -3.3051534886919844)	(7.9955380913341614, -0.7321793327192907)	(-2.2294333566397686, 8.7499545683084108)	1.0	slash	0.946982
4	N	B	M	B	M	N	A	A	B	8	0	shapes	N	1	False	11	(0.3717447013881543, 2.7104237485065941)	(3.4139261541660328, 6.4866306338737978)	(-6.9042430492718632, -2.3149989888930032)	(0.019433789476073215, -1.779348580189577)	1.0	slash	1.36261
5	M	A	B	A					N	4	0	shapes	M	1	False	11	(-3.3512110875167194, 0.30344794830600108)	(7.6593045182939967, -7.698123916298945)	(-7.3977209795774757, -4.9967877699895418)	(3.615807867130405, 4.7273850582088386)	1.0	z	0.932268
6	N	A	B	A					M	4	1	shapes	A	1	False	11	(-5.9251358516490509, -7.4279294881183322)	(7.0004934873099973, -4.9433621912702286)	(-3.3687178732157239, 3.6058144270707864)	(5.9001181532022855, 4.1156177324198797)	1.0	slash	1.21988
7	M	B	B	A	A	M	N	N	M	8	0	shapes	M	1	True	11	(6.6143328950914633, 2.921456606496827)	(6.8016091723019922, -4.5260522208305973)	(3.8162274229581286, -0.49238981151971473)	(-5.5583732106778871, 1.1873069701387848)	1.0	z	0.635542
8	M	B	M	A					M	4	2	shapes	M	1	True	11	(-8.6589046772189153, 3.9305598505313259)	(-8.3255152987030723, -2.2406110560626811)	(4.9948499725107744, 4.7581276832040249)	(4.9948132035880732, -8.0566482054566553)	1.0	z	0.663079
9	M	B	N	B	M	A	N	A	A	8	5	shapes	A	1	True	11	(-4.5009902026833153, -5.8526777411599689)	(-6.2867927188433042, 0.66894296182096902)	(-0.53624720621082744, 7.1237373873473704)	(1.2029229681331017, -2.8455384827043915)	1.0	z	2.30269
10	M	B	N	N					N	4	2	shapes	N	1	True	11	(8.4066219566970055, 6.6428989133802041)	(-8.1695391962640063, -7.5421615617564512)	(2.3703690689876851, -3.0004317941869294)	(-0.46824806200140756, 0.27860659236446139)	1.0	z	0.532293
11	M	A	B	N	A	M	N	B	M	8	0	shapes	M	1	True	11	(5.1255533210957225, -8.3708533552090323)	(-3.2001679809859613, 5.7464124698245644)	(6.7904489554349148, -0.33182904424105431)	(7.5222695701922113, 6.6174837065690131)	1.0	z	0.798193
12	M	A	M	N					N	4	3	shapes	N	1	True	11	(4.7296372486799232, -2.99967373189219)	(-5.6171069623699941, -6.3151814327527669)	(-1.4762287155161946, 8.0717452607101379)	(0.70811555019055739, 1.4195208925921126)	1.0	z	0.551665
13	M	A	N	B	N	M	A	B	B	8	7	shapes	B	1	True	11	(4.4036840453717918, -2.5670984204902352)	(-8.6740973326708879, 2.2302091970299518)	(1.8454962156787325, 2.5861041393510362)	(-1.6749890033073829, -4.9082667238334068)	1.0	z	0.837493
14	N	A	A	B	B	N	M	M	N	8	4	shapes	B	1	False	11	(6.0354110296819243, -0.46182762019663492)	(-3.3846658187987249, 2.1659085514350345)	(2.0630076730963136, 3.8750495864940433)	(-1.1634609185630698, -5.5996772738686271)	1.0	slash	1.21097
15	M	B	B	A					N	4	2	shapes	B	1	False	11	(-5.0308797264095233, -2.9716189734060912)	(4.8726788304947295, -5.7159153240302807)	(1.2987207421240292, 0.078305654307142092)	(-7.1331402347506225, 5.0370882503754171)	1.0	slash	1.1227
16	N	A	M	B	N	A	B	M	N	8	7	shapes	M	1	False	11	(7.3860262261457166, 1.6045283544876394)	(5.9294943475130424, 6.1197038988026016)	(1.2711066990516695, -6.9382236060596538)	(-6.3148463007745583, 0.0022377518225464854)	1.0	slash	1.51029
17	M	B	M	N					N	4	2	shapes	M	1	False	11	(-3.8434377429576569, -3.3925750184687544)	(2.208820176067956, 3.3106384483335969)	(7.0004735276679266, -3.0490157324255831)	(-2.8690874656133705, 2.8604036230120169)	1.0	slash	0.777925
18	M	A	M	A	B	N	B	N	B	8	3	shapes	A	1	False	11	(-0.11204073492349842, 3.3324951480577099)	(-7.20466035681393, 3.9095579486169676)	(-1.504305635785208, -5.6967073796872301)	(4.8306599206600751, -3.0857126828219643)	1.0	z	1.68944
19	M	B	M	A					M	4	3	shapes	A	1	False	11	(-7.5651984252350672, 6.7768989835198159)	(-1.3335107137725437, -3.1026464136672196)	(7.3541565995742495, 3.7165487630522698)	(6.9136991065422642, -5.9887809009482034)	1.0	slash	0.848601
20	M	A	N	N	B	M	B	A	N	8	2	shapes	N	1	True	11	(5.0645771934482156, -2.3297426739682301)	(8.2523468042193393, 1.4363892951359496)	(5.6871168282161442, 7.773832782712379)	(-3.9310576374166715, 1.7806796107115126)	1.0	z	1.76489
21	M	A	M	A	B	N	B	N	A	8	1	shapes	A	1	True	11	(-7.5996438406626101, 0.93294705419040369)	(-1.5173416376462221, -5.4474892391370648)	(4.4643333667918661, 7.5031693798537198)	(-7.4842364693984944, -8.7287299835191163)	1.0	z	1.70436
22	M	A	N	N					N	4	2	shapes	N	1	True	11	(-6.6533419246718735, -8.5103043622147077)	(0.99310618357614366, -0.23517157734691452)	(6.5493387479568685, 5.3733009662978581)	(-5.7603854542790369, 6.3512606270313228)	1.0	z	0.669967
23	N	A	N	B					N	4	0	shapes	N	1	True	11	(7.6877199394236939, 8.7049649614544542)	(-0.041294269558687091, -1.0624746242678533)	(-7.0417259037413409, 7.0871147410201267)	(4.1257316791966776, -6.4450751524473988)	1.0	z	0.481563
24	M	A	N	A	M	N	B	B	B	8	0	shapes	M	1	False	11	(5.0951726362042802, 1.5614914716018546)	(-3.8464291205091756, 3.0318550329980738)	(-6.0739664255952786, -7.8092567623256652)	(0.65001068496325765, 3.2843848684135608)	1.0	slash	1.31729
25	N	A	N	M					A	4	0	shapes	N	1	False	11	(7.8421918932043759, 3.7494956755051909)	(-4.6098616566721082, 6.7961679983342407)	(-4.1959743520387107, -5.7135478423385901)	(0.24032088543833652, -1.0547796382051633)	1.0	slash	1.873
26	N	B	M	N	M	B	A	A	A	8	7	shapes	A	1	True	11	(7.7421536305944514, 1.515854302327698)	(0.47665454561899168, -0.65661950046452233)	(-6.4685999875036497, -6.3853959500523745)	(-7.9576451325173849, -1.8135916248929265)	1.0	z	1.93442
27	M	B	M	N	A	A	B	N	A	8	0	shapes	M	1	False	11	(-3.321589673584624, 7.4518812430726769)	(3.4752500826732877, 8.7200806009680214)	(-4.1802827425348994, -5.7548049603398264)	(-8.1879559262226156, 4.8725612307904136)	1.0	z	0.776125
28	M	B	B	A					B	4	2	shapes	B	1	True	11	(6.3946698863159668, 0.23924795045895308)	(-0.74524059510739349, 5.0837075342638585)	(8.495949197097282, -3.88249847249861)	(-2.5114734992202132, -8.4198581263876182)	1.0	z	0.621554
29	M	B	N	A					N	4	2	shapes	N	1	True	11	(3.2122529863276839, 1.6281886056997141)	(2.3769434857516778, -8.4671888824958685)	(-4.3811046921320269, 8.1783899974954366)	(-1.5449316744654666, -3.7743121972374816)	1.0	z	0.731257
30	N	A	A	N					B	4	0	shapes	N	1	False	11	(5.9885859930914318, -7.0996551032634363)	(-2.9648937125431312, 4.0360610540938424)	(-1.136211054175261, -4.7232497067786481)	(0.67144444271855974, 1.0055438869175362)	1.0	slash	1.27504
31	M	A	B	B					M	4	3	shapes	B	1	False	11	(7.2386678007766534, 8.2746715019428585)	(-4.2772484300010092, 5.5303208810414315)	(-6.183273250275243, -3.5656856238304346)	(4.2413711780966139, -5.061064727117115)	1.0	slash	0.742327
32	M	A	A	B					A	4	2	shapes	A	1	True	11	(1.5903882101502376, 6.8260992547863335)	(-3.5585935904180648, -0.82276495130790028)	(5.3228893025026824, -5.9968440394118439)	(-7.4628988021389304, 4.5505060018692465)	1.0	z	1.53221
1	M	B	N	B	A	A	N	M	N	8	4	shapes	A	2	False	11	(3.3716987367497673, 5.3198912298965428)	(-3.8135889057102075, -3.5963078479228976)	(-1.1557835950833866, 2.519169006405237)	(8.2346540702646784, -7.6626855366430906)	1.0	slash	1.03399
2	M	B	B	A	N	A	M	N	M	8	7	shapes	N	2	False	11	(1.4162830252169663, 0.12429511862282183)	(8.4838291157979633, -4.580085735050373)	(5.3239409831061693, 5.6401752074065428)	(-0.50422416468387787, -5.8791654033694067)	1.0	slash	2.10345
3	M	A	N	A					A	4	3	shapes	A	2	True	11	(-6.455469652594596, -2.3744675546902902)	(3.7006767766625668, 1.4669314064204286)	(-0.2048522360320586, 2.8226792542629724)	(2.7256971069534774, -5.5669100662245423)	1.0	z	0.973131
4	N	A	N	M	M	B	A	B	A	8	6	shapes	A	2	True	11	(7.9800909359327434, 3.4562041632952063)	(-1.93707442472365, -7.8591241170164112)	(5.372890212395804, 7.108676288942485)	(-2.532531959520508, 8.2726857078958069)	1.0	z	0.870729
5	M	B	A	M	A	B	N	N	A	8	0	shapes	M	2	False	11	(3.4308184907993358, -7.5183115402675469)	(-4.8816783372475632, 4.244930407280064)	(-1.6207779349908851, 1.2706134937652678)	(-1.5484139635133252, -7.7712983550749257)	1.0	z	0.946407
6	N	A	B	N	M	A	M	B	A	8	5	shapes	A	2	True	11	(-1.4247275241404092, 5.5219698717686292)	(2.6738581126267356, -6.5875322941648697)	(-6.4011617617437633, 5.2390282551890088)	(6.5534765541839644, -2.146270304630888)	1.0	z	0.913995
7	M	B	B	M	A	A	N	N	M	8	0	shapes	M	2	True	11	(0.33794070294233514, -5.380637281461877)	(-7.5473116856921987, 0.12831361356719206)	(-8.2693233183417725, 5.9963745483125042)	(3.2935103064700737, 4.2066015673237391)	1.0	slash	0.895694
8	M	A	M	N					N	4	2	shapes	M	2	False	11	(0.49903534808288263, -5.1441210518321681)	(1.9242812459124732, 6.8194957324355521)	(-7.1908056904006532, 7.8021257897122815)	(-2.014154460275142, -0.53892510859055776)	1.0	slash	1.36732
9	N	B	B	M					A	4	3	shapes	M	2	False	11	(3.2541361752741089, -3.663346239408936)	(-2.8968679021568873, 8.5761504991535311)	(0.75093942543115055, 0.36857903465263675)	(-6.7906003806801074, -0.94185211160150395)	1.0	z	1.65689
10	N	B	N	A					B	4	1	shapes	B	2	True	11	(-4.2959568623917717, -4.5953757143913929)	(1.0003634114140922, -3.5522956669883623)	(2.7499530357170414, 2.5591284884438785)	(-5.5211987047047995, 5.8550934973459263)	1.0	z	0.68861
11	N	A	B	A					N	4	1	shapes	A	2	False	11	(-6.5796404658816936, -4.2796086234104287)	(0.39159323082278341, 8.0173520222292254)	(-0.5992815873829116, 1.1315949271992949)	(4.3909957023146049, -7.2094127504800021)	1.0	slash	0.85605
12	M	A	B	N	B	A	M	N	M	8	6	shapes	M	2	True	11	(1.2610979717825881, 3.7015230380882063)	(-4.8882943825422824, -0.074571564151897363)	(4.4416009192056212, -2.9499522205356321)	(7.3815719713547985, -0.034259471520238449)	1.0	slash	0.783735
13	M	A	B	N					A	4	1	shapes	A	2	True	11	(6.5917824710643913, -0.95367296515750688)	(-3.7419656515840964, 6.0572424332095558)	(-2.2987884566259424, -6.4960848872356962)	(2.8274988106839345, 0.46289455771387189)	1.0	z	0.829524
14	M	B	B	M					M	4	3	shapes	M	2	True	11	(5.3271131761067014, 7.486090807707722)	(-2.2649121868698252, -3.0073851610517952)	(-4.1910852572885275, 1.8042491840267871)	(4.1440383435125039, -7.498773444391011)	1.0	z	0.46523
15	N	B	M	B	N	A	A	M	N	8	4	shapes	N	2	True	11	(5.6138967917842511, -0.42203267152186186)	(0.96018464789294633, 8.038051820748219)	(-5.3571444446515972, 2.2652530867571166)	(-8.5519492942755484, -4.6984007744022636)	1.0	z	1.52895
16	N	B	B	N					M	4	1	shapes	B	2	False	11	(1.7136008884556588, -2.6606178978304769)	(-8.2130078387700962, -5.4130498113519234)	(3.0319551609429833, 1.2302240252009344)	(-6.9958133791255639, 0.99492767773994117)	1.0	slash	1.02438
17	N	A	B	B	M	N	A	M	A	8	5	shapes	N	2	False	11	(8.5636479607783293, 0.68276003439784638)	(3.8631428776057852, 7.4987356483316248)	(5.7533020166313698, -7.4057160854488462)	(-5.0362428050913888, 7.4151987011192233)	1.0	slash	0.944079
18	N	B	B	A					A	4	3	shapes	A	2	True	11	(4.9354978704674561, -2.6431174712312)	(8.0078265910921651, 7.9951208578015382)	(-4.5689186395808363, -0.55694899367497541)	(-8.3846690938720059, 1.7266070161254188)	1.0	z	1.18975
19	N	A	B	M	A	M	B	N	M	8	7	shapes	N	2	False	11	(3.4462201266936923, 2.8338208118301225)	(8.7269559164283024, -3.3845128967461751)	(-8.2284027231105679, 7.7711185248375898)	(0.011214014550651186, -3.4773851412746808)	1.0	slash	1.3173
20	N	B	M	A					N	4	1	shapes	B	2	False	11	(-2.2027905788113467, -5.67903729467427)	(8.6340849266901429, 1.7911209074272954)	(-5.3653721592923436, 2.4892825301528667)	(3.2211415749563752, -5.0205839494964177)	1.0	slash	1.01492
21	M	B	A	N					B	4	3	shapes	N	2	False	11	(-2.836120128413496, -4.1067072145287415)	(1.677131992932269, -0.98598380134102648)	(5.406224682429313, 1.7603582115072456)	(-0.59231965405384734, 4.1240097482821678)	1.0	slash	0.990631
22	N	B	A	B					B	4	2	shapes	A	2	False	11	(6.3584961826783974, -8.4439483463409708)	(-0.081409063433536488, -8.6688123731776816)	(4.0359209535139442, 7.1113666320188784)	(-6.0799053805292438, 7.1607487139472958)	1.0	z	1.64051
23	N	B	M	A	N	A	M	B	A	8	3	shapes	A	2	True	11	(-3.8396288310253013, 1.3577043800066857)	(6.9948919948291195, 6.8283130242934913)	(6.4114600256021621, 1.4539689122179649)	(8.6490176157108927, -5.898817214368254)	1.0	z	1.22782
24	N	B	N	B	M	M	A	A	N	8	1	shapes	B	2	False	11	(4.8178491845892104, 1.8160367013742995)	(-6.963726436763384, 1.0274912927211179)	(1.7459385739601263, -2.5374086244267584)	(-0.59689083645133501, -7.1050420697019838)	1.0	slash	1.49947
25	M	A	B	A	B	N	N	M	N	8	2	shapes	B	2	False	11	(0.11374837621721845, -5.7179840485367333)	(-0.18540648370670532, 5.4006606796538215)	(6.2664666744662032, -2.6780393069882171)	(7.2581603200503793, 7.90284310543095)	1.0	slash	1.62688
26	N	A	M	B					N	4	0	shapes	N	2	True	11	(7.8767533314931555, -4.3675020670271456)	(-4.330159543801793, 7.4624787113861615)	(-2.2758746837871184, -7.0578965913337788)	(4.3657339273687974, 0.29968287117252146)	1.0	z	0.612683
27	N	B	N	B	A	A	M	M	A	8	5	shapes	A	2	True	11	(-3.0595341674964533, 8.2895556075981531)	(6.8430787037217957, 1.3225963559033254)	(-4.0335178774864131, 0.50740311613768618)	(5.4202079989261094, -8.3439223971736194)	1.0	slash	0.905385
28	N	B	A	N					N	4	2	shapes	A	2	False	11	(-0.68235499019219858, -2.3557081154647674)	(6.2386630293436376, -0.48530059307719497)	(-5.3503207738025687, 0.84761378075397431)	(3.6232932661892772, 3.3201540737275845)	1.0	z	0.695956
29	M	A	N	N					N	4	3	shapes	N	2	True	11	(-6.8694606005717098, 7.4154345296980644)	(0.21458919480286198, -1.9762557041253936)	(-3.9084431053959463, -1.0087178088683659)	(5.4747641761960306, 2.7887276663976852)	1.0	z	1.05158
30	M	A	B	A					M	4	0	shapes	M	2	True	11	(5.2265222383652006, -1.9342415260587735)	(-8.1737727260724906, 7.2801012655058521)	(6.206219526042414, 5.020817392871205)	(-4.4991394066885064, -7.1006992091977619)	1.0	z	0.787241
31	N	B	A	A	N	B	M	M	M	8	5	shapes	B	2	False	11	(-5.1484897279946793, 6.8394017455111484)	(-7.6407585509707339, 3.407178818972822)	(-5.8602258452140896, -0.77838681706152091)	(4.8147734276694827, -6.1345892534499962)	1.0	slash	0.970775
32	M	A	N	N	M	A	B	B	N	8	2	shapes	N	2	True	11	(-1.9759292001831046, -3.6937831018574769)	(-8.6342903782015004, 7.0846969345655744)	(-2.3079193041312971, 5.8899367765791233)	(-7.4038892904158526, -0.035938880756040348)	1.0	z	0.780449
1	N	A	A	N					N	4	0	shapes	N	3	True	11	(-1.8029578613699719, 0.79961020943872718)	(7.2540935614115689, -4.6335894642848885)	(-6.0936918305458683, -6.6912845004315447)	(0.90866584866748035, 5.1772387951247847)	1.0	z	0.468322
2	M	A	B	B					N	4	1	shapes	A	3	False	11	(-5.3058786689715021, 1.5628265289952594)	(5.2880593818451516, 4.2875247448905078)	(6.6298734922807121, -4.4058366972259027)	(-1.2742838243963197, -6.7431244526542047)	1.0	slash	2.65582
3	M	B	B	M	N	N	A	A	A	8	1	shapes	B	3	False	11	(-0.44062081065588998, -0.85323749827354778)	(4.9190366922890103, 3.2990888046146125)	(-8.1668288105188456, -1.8763502609176639)	(-2.9110368786822516, 5.6354985308654637)	1.0	slash	1.74264
4	M	A	M	A					A	4	3	shapes	A	3	True	11	(6.4240064885713295, 0.61829414789287185)	(-7.8405056659060666, 2.2064345153811953)	(-4.8406054617269287, -5.9251889961981528)	(2.206136313148777, -0.068000410586360971)	1.0	z	1.27704
5	M	A	N	N					N	4	3	shapes	N	3	True	11	(-0.020798777993618955, 5.990871842159736)	(8.6313374148628732, 2.6368022562077069)	(2.7493559295584102, -2.5531559025357069)	(-7.4426699197595276, -1.0653261179141102)	1.0	z	2.15871
6	N	B	N	B					M	4	3	shapes	B	3	False	11	(-2.5313495224676856, 5.8562128967927212)	(8.6794895849631217, -0.96411857994572525)	(-6.9918786938677746, -7.0000959534463982)	(6.2481031154978126, 2.3656266158341097)	1.0	slash	0.880147
7	M	A	N	A	N	B	M	B	M	8	7	shapes	B	3	False	11	(-2.4046158117915724, 4.9395007848615045)	(-7.863872268925479, -6.5734532678392181)	(-1.9375563448497637, 0.90842148510174425)	(2.3280403556068396, 6.2578216960566877)	1.0	slash	0.907588
8	N	B	A	M	N	A	M	B	A	8	2	shapes	A	3	True	11	(-4.4380583409942327, 7.1889915447431321)	(0.34181228515818418, -7.7086640051569892)	(5.9829450117330829, -8.2573055950144454)	(-4.3538474188077156, -6.9620534912276568)	1.0	z	0.995519
9	M	A	N	N					B	4	3	shapes	N	3	False	11	(-1.4052177278786555, -7.3012793361446153)	(3.6836138132654153, -8.5814376348047947)	(-6.3811496048195533, 3.9061378863762375)	(6.0473713488053811, 8.4826381527919317)	1.0	slash	2.18302
10	M	A	A	M					A	4	0	shapes	M	3	False	11	(-2.1600707787454638, -6.005652184860816)	(8.5256815883442911, -2.5382238886141302)	(-2.3275310303720884, 0.17699467922686196)	(6.0118572925416007, 6.5626393399232352)	1.0	slash	1.20466
11	M	B	N	M	B	N	A	A	A	8	6	shapes	A	3	True	11	(-8.647057997156594, -8.4673926941837792)	(6.095279393625896, -0.5210931437587405)	(-1.9003693507874893, -7.1989490806026053)	(7.0928154053601986, 7.0281585493874115)	1.0	z	1.79825
12	M	A	N	B	B	M	A	N	M	8	6	shapes	A	3	False	11	(8.5546989498348438, 2.0472658324068718)	(-8.1106969885910321, -2.9685601576134237)	(-3.7348494945188264, -0.70337093465948541)	(2.3498120457566802, -7.3718128369166909)	1.0	slash	0.779674
13	N	A	N	B					B	4	2	shapes	N	3	False	11	(-5.3781379027439771, -7.8748886445268793)	(7.7769225834517748, 8.2383625973689298)	(6.7570882334265434, -6.0896523824812263)	(-1.7890083034537572, 5.2581169664498937)	1.0	slash	2.88137
14	M	A	A	M					B	4	3	shapes	M	3	False	11	(-5.3216836103867697, -5.8491805394730418)	(7.6585488454839634, 4.2715530300556139)	(-6.5006709133764531, 4.1485422161394521)	(2.3040938325685172, -3.011958997549451)	1.0	slash	0.899054
15	M	A	M	B					M	4	2	shapes	M	3	True	11	(-8.5494231115752513, -4.7654361538647336)	(-5.7726821453589103, 3.6144577101720454)	(7.5721826477406893, 6.6463068455975556)	(0.43576691253204558, -5.6009079343741792)	1.0	slash	1.07254
16	M	A	N	B	A	M	N	B	N	8	1	shapes	A	3	False	11	(8.5745889462652656, -2.1094224322634227)	(-3.2076681961244224, 1.1513160295222917)	(5.8071033940935042, 5.2706957358351456)	(-4.9786020491398126, 8.2709983440440311)	1.0	slash	0.852145
17	M	A	M	N	B	N	B	A	N	8	3	shapes	N	3	True	11	(-6.9963076940933835, 5.1683610845842693)	(-3.8429638046659012, -0.64569414360888899)	(-6.1981121199445255, -7.9057553567629615)	(6.7505067819346394, 5.9858466104439572)	1.0	slash	1.00997
18	N	A	M	A	M	N	B	B	A	8	1	shapes	A	3	True	11	(-5.9744079025414196, -1.1520340146854799)	(-6.2511061283078391, -5.489716674213307)	(0.86445664041582937, 4.0344835805829682)	(6.8104527432815942, 0.12946806654408149)	1.0	z	3.20326
19	N	A	A	B					A	4	2	shapes	A	3	True	11	(0.97077748457206781, -7.4791713153816142)	(-7.2982510757592181, -4.8928989830999923)	(-5.782381980484125, 1.1855084216594598)	(6.6934723282261555, 7.0213289000859245)	1.0	z	0.84306
20	N	B	N	B					M	4	0	shapes	N	3	False	11	(2.5180933326443053, -7.0943470136308289)	(6.2054536292517515, 4.1279494418776093)	(-2.3944543817508208, -6.2160337667666408)	(-8.7156190318030582, 2.8833467748415895)	1.0	z	1.97243
21	M	A	M	B	N	A	B	N	M	8	2	shapes	M	3	True	11	(-2.1860130903246278, 5.7421599665737482)	(-5.6396245806189214, -6.9072018493691543)	(3.4596983614662893, -1.1539170997939099)	(1.6041812167066247, 8.7147348670877243)	1.0	z	0.958261
22	M	B	B	M					B	4	1	shapes	B	3	True	11	(-2.564418472867624, -4.4541912373180805)	(6.1473529979291897, -0.40898100600654175)	(3.3200915991914481, 7.8437726355816935)	(-5.3804086070513586, 3.6294131572609754)	1.0	slash	2.91981
23	M	B	A	B	M	A	N	N	A	8	1	shapes	B	3	False	11	(3.8285503300588708, -5.168903310314656)	(-4.4215650854374795, 3.4815449843423103)	(0.76913287377847084, 7.610912567911253)	(7.6966760768093607, -1.1546498937763694)	1.0	slash	4.26926
24	N	B	M	B	M	A	N	A	A	8	5	shapes	A	3	True	11	(8.669899381395723, -6.2049480534898889)	(-5.8604874817928305, -2.5872871536518547)	(5.4466098854108473, -8.7472184319992117)	(2.1193089111938512, 2.6711753375566811)	1.0	z	1.00479
25	M	A	A	M	N	N	B	B	M	8	0	shapes	M	3	True	11	(-1.4751642793997526, 4.741839636814726)	(-4.4470300819546393, -7.9599219218351127)	(6.7644496503947593, -4.051392512170886)	(-8.7438919534517563, -7.8203281546058001)	1.0	slash	1.52624
26	N	A	M	B					M	4	0	shapes	N	3	False	11	(6.7609111592109628, 6.1690131876009833)	(4.0515336490865081, -7.3453236172585568)	(-8.2887131885058878, 8.2457039775371683)	(-1.2943695321297461, -0.10616580190540503)	1.0	z	1.15188
27	M	B	M	N	N	B	A	A	N	8	5	shapes	B	3	False	11	(-8.0057270012878483, 5.9448572680637906)	(-2.0431321415566037, 7.0736982100729442)	(5.2517786535418676, 6.8823643966567705)	(8.665385290044771, 3.3040896071107149)	1.0	slash	1.58961
28	N	A	A	B	N	B	M	M	M	8	3	shapes	B	3	False	11	(1.1701946178412275, -2.9250498413655457)	(-5.5611130541464631, -8.169716059381404)	(5.8636083579025051, -6.5705060098060102)	(1.9438936893992089, 3.8375319976470745)	1.0	z	1.84516
29	N	A	A	M	N	B	B	M	M	8	7	shapes	M	3	True	11	(6.5723157594975703, 4.5074473785293385)	(5.333106815336615, -3.1196303499943578)	(-8.2164694177944604, -0.97515957506469331)	(0.90235594230559713, 3.350268904899556)	1.0	z	2.68669
30	M	A	N	N					N	4	3	shapes	N	3	True	11	(-7.6684555846573712, -5.2818093661581829)	(2.3661587894302762, 3.4689349456576437)	(2.6474108429502508, -7.3305296487299518)	(-7.3080025056529987, 8.1848885700298553)	1.0	z	0.816145
31	M	A	A	B					A	4	2	shapes	A	3	True	11	(7.7914264118434744, 3.9040869022646749)	(-8.186006702205022, -2.265095520787872)	(-4.7687739667834057, 6.6286403161766057)	(2.7218711933711539, -7.2387228192609223)	1.0	z	1.4959
32	N	A	N	M	M	A	B	B	N	8	3	shapes	M	3	False	11	(7.348469116163578, -1.7813431455411184)	(-1.5618542665745743, -3.1937725353849125)	(5.1872015715156472, -5.9399219440323616)	(-7.6312469204508799, -4.8955596495996723)	1.0	z	1.00951
1	M	A	M	N	B	B	N	A	M	8	0	shapes	M	4	True	11	(-6.6924940043064467, 7.961394058049148)	(-3.5544486687888153, 0.093983773952633243)	(1.6288137958228148, -4.5636136518766142)	(-5.3358475246975203, -4.6711585226293417)	1.0	z	0.959093
2	M	B	M	A					N	4	1	shapes	B	4	False	11	(-7.8509976158836672, 8.4007491790480309)	(6.6603525890752771, 1.2642736269246733)	(-3.9684830148476395, -8.3073620342102483)	(8.4324753551173721, -3.2244769418435517)	1.0	slash	0.680858
3	N	A	B	A					M	4	1	shapes	A	4	False	11	(-7.7374867640007761, 2.3781726305209467)	(2.704297645911856, -3.1423076244487511)	(5.3219170212563203, 4.412441654795801)	(-4.4416914133666525, -3.0683481058253292)	1.0	slash	0.690509
4	N	B	N	A	M	A	B	M	B	8	0	shapes	N	4	False	11	(-2.2872454200922379, -1.223224454178367)	(2.8603540345979948, -3.6455182187199551)	(4.2387626028144449, 6.5705674461108821)	(6.8941036093622632, -1.9098029583850229)	1.0	z	1.782
5	M	B	M	A					M	4	0	shapes	M	4	True	11	(-8.3171173153857616, -3.252761319668747)	(-2.1796151661059815, 5.6308312473245472)	(1.3366097884962702, -1.1887973155842797)	(4.236492513582693, 3.4762778142593049)	1.0	z	1.0252
6	M	A	N	M	N	B	A	B	A	8	7	shapes	B	4	False	11	(1.191513080600334, 0.54248334634501028)	(6.6113434128978099, 0.0060141523406951336)	(-2.8035928367796012, -4.9813075719814623)	(-8.5805063041532819, -8.4721956149479833)	1.0	slash	2.82328
7	N	B	N	A					B	4	3	shapes	A	4	False	11	(4.8221750172547875, 4.0337104726910837)	(-6.6175941357165158, 4.0816405471284973)	(7.7600221332696293, -0.034198140951346545)	(-3.7456052466708165, -4.3798536441304252)	1.0	slash	3.01228
8	N	B	N	B	M	A	M	A	B	8	3	shapes	B	4	True	11	(-5.2345389737436587, 3.6106945021707411)	(4.4175619647800879, 0.89667162165912906)	(-4.8662097825871982, -5.6780675361723443)	(1.2092812513137403, -1.8124559220592165)	1.0	z	0.71837
9	N	A	N	M					B	4	1	shapes	A	4	False	11	(8.0139992746151556, -1.2928412302069088)	(-6.5280688181147299, -6.2411641171240184)	(-5.1331848033077154, 1.5466235197286906)	(5.8480184671008111, 7.3503651006984327)	1.0	z	0.855954
10	N	A	A	N	B	M	M	B	B	8	4	shapes	B	4	True	11	(7.516003483406017, 1.1268790178133479)	(0.83995362354668757, 5.4039345438763764)	(2.705946347361694, -1.7856721485205469)	(-3.7878449968270118, 7.8922618722047169)	1.0	slash	2.04143
11	M	A	B	N	N	M	A	B	M	8	4	shapes	N	4	False	11	(-7.5435677742588201, 1.5829640614141613)	(4.1725783783101242, 1.2384265262237708)	(-2.6726554562408307, -7.042240689692024)	(1.4681259969883307, -7.468394785935498)	1.0	slash	0.895218
12	M	B	N	A					M	4	0	shapes	M	4	True	11	(3.9131815047861487, 3.6807529157266803)	(-1.6152694381215404, -3.5010794906490679)	(5.7690146140719101, -0.25239859020877731)	(-7.381771862459499, 0.04552623317683846)	1.0	z	3.22887
13	N	B	B	A	A	M	M	N	A	8	5	shapes	M	4	False	11	(4.6329708404245711, -7.3419563067949332)	(7.8088899308980366, 3.4696193315040844)	(-0.40220489670515036, 6.4366502841788993)	(-7.4927896395272704, -5.3945703378786458)	1.0	slash	1.07424
14	M	B	N	N					B	4	1	shapes	B	4	True	11	(2.2941092515036274, -4.160134511619928)	(-6.0416804428533073, -6.5812914523374104)	(-3.2678757430416514, 5.6873248919345496)	(2.3958612969319599, 4.5083107029093341)	1.0	z	0.885897
15	N	A	A	B	B	M	N	M	B	8	6	shapes	N	4	False	11	(2.079098207680218, -2.245307603558099)	(5.5867179282982136, 8.3091514548213468)	(-7.4553015287097786, -2.9272611043002588)	(-4.4210502172807349, 6.2379705419786937)	1.0	slash	1.2095
16	M	A	B	A	M	B	N	N	M	8	4	shapes	M	4	True	11	(5.5605088186434841, -0.61306615014646049)	(-6.5491629246284351, 6.4682576041320239)	(-5.320097630225896, -0.2132272108543436)	(0.89591625885561932, 6.804309855576065)	1.0	z	0.877215
17	N	A	B	M					M	4	3	shapes	M	4	True	11	(5.452085028108856, 4.2864898283294632)	(-7.1275520961260197, 6.6627232313690996)	(-0.37671013956806654, -6.0979452145560362)	(5.4213278456831695, -8.2095994563546402)	1.0	z	1.51681
18	N	A	N	A					M	4	0	shapes	N	4	False	11	(0.98493931786999589, 5.3045085379147423)	(2.6312442549840682, -6.452926407957202)	(-5.6031452369326766, 7.6611155056458919)	(-3.378818744530049, -8.5166694568620116)	1.0	slash	3.15234
19	M	B	N	A	N	B	A	M	B	8	5	shapes	B	4	True	11	(1.0055225475532179, -3.4282381465087246)	(-3.2728006434510766, -1.8010126351966109)	(-5.8203389867945976, 3.8756042267401227)	(-1.0484389218494998, 4.8872430084753926)	1.0	z	0.837893
20	M	A	A	N					M	4	0	shapes	M	4	True	11	(4.5899910630873535, 2.7485653982583145)	(1.145799659552484, -3.3505771150769093)	(-7.6384277523918485, 0.95411858593370091)	(-8.6900970937376218, -6.800380888797994)	1.0	z	0.605411
21	M	B	M	B					B	4	3	shapes	B	4	True	11	(-4.814939218573449, -5.6692930760444025)	(-4.3840235077131684, 1.1881229084646296)	(5.8860227650223162, 0.16585914738453411)	(0.6785968094036523, -4.1628940022149754)	1.0	z	2.05505
22	N	B	A	M	M	B	A	N	B	8	4	shapes	M	4	False	11	(-7.3513970349321962, 5.7677293603284152)	(-3.0977526808253977, -6.9030837326854755)	(4.729424247507513, -1.540429128037812)	(7.9997213474362461, -8.6425049295757148)	1.0	z	1.61679
23	N	A	A	M					A	4	1	shapes	A	4	True	11	(-6.8508251300487251, -4.1122648520265503)	(-1.767218930700043, 7.2144920243893527)	(6.328215220429799, 1.4858859475527932)	(4.8042866276620995, -7.949329664462395)	1.0	z	1.35828
24	M	A	N	A					A	4	0	shapes	M	4	False	11	(-6.7954934390827164, -3.5502780390195117)	(-4.6018308238362318, 7.5172825969368411)	(2.5865419405220429, 5.8832838471339031)	(7.5932445398542683, -3.0999913017833647)	1.0	z	0.624079
25	M	B	A	N	N	B	M	A	M	8	4	shapes	N	4	False	11	(5.4672158084240845, -4.2648793812453034)	(-4.5225204569907262, -7.8887148041437367)	(4.5052015168799038, 3.6494741555271304)	(8.4300031674656672, 0.68730963801833234)	1.0	slash	2.53552
26	N	A	N	A	B	M	M	B	B	8	1	shapes	A	4	False	11	(1.0806632657378259, 4.2760941597998343)	(-2.4997951876056614, -5.0091084940049981)	(-7.2807752737589455, 3.1601292357882347)	(-4.8235403116117528, -1.5608260738874744)	1.0	z	1.03868
27	N	B	A	N					N	4	0	shapes	N	4	True	11	(0.36444508518331276, 6.9292060383587675)	(8.7057189867151976, -7.1905193496640969)	(-6.9992827638398882, 0.056758952550442388)	(-1.3797129995842772, -4.1040440853552775)	1.0	slash	3.76075
28	M	A	M	A	N	B	N	B	A	8	1	shapes	A	4	True	11	(-2.4690195153261234, -7.288074832048169)	(4.746469777075454, 2.0238132073537489)	(-6.2371520021626434, 7.0967298705688382)	(-5.8074942720403637, 2.0080851492131089)	1.0	z	0.770289
29	N	A	A	B	M	M	B	N	B	8	6	shapes	B	4	True	11	(-8.1081162646291975, -5.9279064067507301)	(0.22012240404050587, 4.6548111107232248)	(-3.8855817655626117, -6.4194543904345611)	(8.5919603690076229, 7.7717885647117342)	1.0	z	1.06976
30	M	B	B	N					B	4	3	shapes	N	4	False	11	(3.4579444779025259, 6.713825898490132)	(7.0000793536048906, -1.0489457488471805)	(-5.3852711767520223, -6.6138259914372455)	(-6.77064174882796, 2.41181753625224)	1.0	slash	0.873516
31	N	A	B	B	N	A	M	M	A	8	5	shapes	A	4	True	11	(-2.7634877052011078, -5.7586887931846489)	(7.0752756151526128, -3.1556675920234794)	(-2.5832695251741802, 5.2395779001296283)	(-3.127425132041961, -1.0074444069146615)	1.0	z	1.58917
32	N	A	M	A					B	4	0	shapes	N	4	False	11	(-1.9040612439964306, 8.3097395814534991)	(3.8311309760469889, -6.9974535612450719)	(2.6033216984638248, 4.2091671915361584)	(-2.1959054565884646, -4.7358061527263482)	1.0	slash	0.832714
1	N	A	N	B					M	4	2	shapes	N	5	False	11	(4.8693530080860494, 7.7369695727698442)	(-8.5336919051521427, 7.28581921241096)	(-1.7647901902062646, -6.2635731211382915)	(3.2975940873266083, -5.2883852213286193)	1.0	z	3.34825
2	N	B	M	A	M	N	B	A	N	8	5	shapes	N	5	True	11	(4.4072722188733362, 3.6423865091953509)	(-8.1215623028132278, -6.8053135541686487)	(-2.0610863168269322, -5.4058234259777933)	(7.6764177952249959, -0.07728809031477013)	1.0	z	0.859763
3	M	A	M	B					M	4	0	shapes	M	5	True	11	(-5.6756688584147454, -4.9753921217112014)	(5.6844224665162155, -6.417425873803718)	(1.8303530978988256, 3.3420926361996059)	(-7.8047003195861757, 4.2633178772972542)	1.0	slash	2.64142
4	N	A	M	A	B	B	M	N	N	8	7	shapes	N	5	True	11	(1.6096309948827621, 2.538059697389663)	(-1.9408908795596922, -7.3384918512874489)	(-7.1554020832619001, 6.7059182813745561)	(6.9405131893019547, -4.793233932607242)	1.0	z	1.04501
5	M	A	B	N	A	M	N	B	M	8	0	shapes	M	5	True	11	(0.38530433617902204, 7.2955448347296468)	(5.7141901508237787, -8.3479560148465115)	(1.925665390499848, -3.4190083794627526)	(-7.3728151764305521, -5.1149506281517327)	1.0	slash	1.5826
6	N	B	A	B					A	4	2	shapes	A	5	True	11	(2.7173399347270255, 1.4300815053169895)	(-6.7996303588168461, 6.2373361531108671)	(3.6772687726022149, -3.910531771268686)	(-4.8482383841176944, -6.4728541956142127)	1.0	z	1.92423
7	N	A	A	N	B	M	M	B	N	8	5	shapes	M	5	False	11	(5.6926281252593984, 6.5565871103202102)	(8.4145418970266768, 3.1791580746646719)	(-6.9715835569469764, -5.0266121759585243)	(-0.36000071955968593, 5.8838229974526826)	1.0	z	1.12573
8	M	B	A	N	A	B	M	N	B	8	6	shapes	M	5	False	11	(2.6767815750602466, 5.4601222464823032)	(-1.9765931055528947, 5.1600179034274873)	(1.0217714829764724, 1.5862448222951802)	(-5.7500797318757071, -3.5013940950139331)	1.0	z	2.52926
9	N	A	A	B					N	4	1	shapes	A	5	False	11	(-6.714667674326698, -3.1523430333293163)	(7.3264021993138329, -6.4453584915445203)	(0.53590636261079894, 5.0065178506218313)	(-6.5797946888895229, 1.7568987080310716)	1.0	slash	0.664938
10	N	B	N	M					A	4	0	shapes	N	5	False	11	(5.0104407673392952, 4.2644115021306241)	(-5.0651270549772747, -6.9218626021072041)	(-8.0516845339676042, 3.6214367047222851)	(2.7645665677017046, -6.6669171915258003)	1.0	slash	1.75042
11	N	B	B	A					B	4	2	shapes	B	5	True	11	(6.0287581315398615, -4.4845089629468005)	(-2.9468154537873241, 1.1694628464368062)	(-2.2529640255217469, -4.6863895736640897)	(1.4036629913151302, 2.1410138264798526)	1.0	z	3.77809
12	M	B	N	B					B	4	3	shapes	B	5	True	11	(-3.676778751379751, 7.8693722495346989)	(1.1808718345169709, -5.103975384045726)	(-6.7881054483163989, -5.3504573363030801)	(7.8994590655040895, 3.5006799694671642)	1.0	slash	4.05501
13	N	A	N	B	B	A	M	M	M	8	0	shapes	N	5	False	11	(4.2211823045370203, 0.045237979178134324)	(8.7489428357772248, 8.0459787648371162)	(-2.5889169470859148, -0.42444958763114649)	(-1.5705592181163697, -7.3533217343031954)	1.0	slash	2.2169
14	N	B	B	A	M	A	N	M	M	8	7	shapes	M	5	True	11	(-5.1296614624836039, 4.1893841703484593)	(5.5642188233857528, 5.6814621657421309)	(1.7832880272949545, -5.2085640860537215)	(2.9889181728495142, -0.13223007344975457)	1.0	z	0.928558
15	M	A	M	B					M	4	1	shapes	A	5	False	11	(7.2456941990084527, 6.2119529265713993)	(7.9311299868896121, -7.2327560102993029)	(-3.6611847474541479, -4.5236378244016446)	(-2.9919612226262409, 3.6504002998952458)	1.0	slash	2.57402
16	N	B	B	N					A	4	1	shapes	B	5	False	11	(-6.3149134716829503, 0.83199271789204765)	(2.1508729802661382, 5.0082972841867814)	(7.4634644140967197, -6.7948660825037166)	(-8.4556531077122479, -8.1128183195909855)	1.0	slash	0.829851
17	N	A	A	N					N	4	3	shapes	N	5	True	11	(-3.3722036411231429, -1.5116503613152101)	(5.7108543947683863, -7.5382603483012538)	(6.0392585782032349, 8.2932375216887557)	(-2.5636731244383979, 4.3024111553365891)	1.0	z	0.74521
18	M	A	M	N					M	4	2	shapes	M	5	True	11	(0.95144441028096871, -6.5674007867032342)	(-2.0000597099861572, 7.6565478119715067)	(7.9191223296159627, 1.9446858426026541)	(-2.7150307417433899, -1.2650287142580545)	1.0	z	0.677121
19	N	A	B	M	B	N	M	A	B	8	0	shapes	N	5	False	11	(2.3468842171545159, -4.8941582878941476)	(-2.9181982713226846, -3.1046055317969836)	(-8.2842186316680095, 3.4573961865634715)	(-1.2928141158432949, 4.1972663493319029)	1.0	z	2.42662
20	N	B	A	N	B	A	M	M	M	8	5	shapes	A	5	False	11	(3.5444370466122095, -7.9770852087582416)	(-3.17613699699774, 5.8992626976372566)	(-7.9943851534780741, 3.6315245832458896)	(6.3302999822221793, -1.6867127244068483)	1.0	slash	1.16225
21	M	B	M	N					N	4	2	shapes	M	5	False	11	(-8.5759319535876077, 7.4003295775157554)	(3.8355636406000766, -1.1709834031343664)	(-3.6259769015794427, -5.5727536818705676)	(4.9496617776749847, 3.4484201746698222)	1.0	slash	9.73949
22	N	B	A	A					B	4	2	shapes	A	5	False	11	(3.252672519356345, -2.1373568216892291)	(-5.2337244462661037, -1.6848051443067158)	(7.460857570428427, 2.2430955501762142)	(-4.6323111549126326, 5.8577460264013936)	1.0	slash	1.27877
23	N	B	A	B	A	N	M	M	B	8	6	shapes	M	5	False	11	(0.30100686680532185, 1.5842589985802249)	(-5.5863496550773215, -5.2630430492647395)	(-1.5116215790344452, -2.3382235990195497)	(4.8511086944565616, 4.68803689857622)	1.0	slash	1.85037
24	N	B	N	A					N	4	2	shapes	N	5	True	11	(3.5132527379256633, 1.6358721326765622)	(2.49893494084289, -4.1860957251828328)	(-4.4177923001789967, 7.4977129035420447)	(-7.4187280559733342, -0.13067099700224283)	1.0	z	0.865966
25	M	B	M	A	B	N	A	N	B	8	1	shapes	B	5	True	11	(8.7018305561637739, 1.6269525109942826)	(0.17423553191374097, -3.5745355254489874)	(-1.959384252868988, -7.0824759226491079)	(5.2071150973710942, 4.2994448028500134)	1.0	z	0.919653
26	M	B	N	B	N	M	A	A	N	8	1	shapes	B	5	False	11	(2.6415632391340544, -4.1225257068564014)	(-3.9169607860419946, -4.9412868373460075)	(4.3881027948548326, -0.13799905188136208)	(-2.7469249446911341, 1.5989460077425974)	1.0	slash	0.858267
27	N	A	B	A					B	4	3	shapes	A	5	False	11	(-1.2033058796982239, -7.6627440070219688)	(-0.69953175422911507, 8.0563803213534477)	(7.2764525441563457, -6.431838376572073)	(0.20671701823511945, 0.98528877792895031)	1.0	slash	1.23291
28	N	B	B	M	A	A	N	M	B	8	1	shapes	B	5	True	11	(-0.20462777894629269, -3.6273477374151017)	(3.2145361995476964, -6.6553279476255893)	(-7.1272517501425225, 3.6487052250607483)	(8.1761405386653898, -0.70657448580696069)	1.0	slash	2.07631
29	M	B	N	N	M	B	A	A	N	8	3	shapes	N	5	True	11	(-5.7158523320617087, -2.469690861551376)	(4.3082891630614171, 4.4496374214298644)	(-5.3871032695438839, 7.2296500747783607)	(-8.7429703154631309, -6.096275230515543)	1.0	slash	1.38607
30	N	B	A	N	B	A	M	M	B	8	1	shapes	B	5	True	11	(5.4381484417096484, 6.3717210757100187)	(1.7804250455820902, -0.96256725070426086)	(-7.4262972485640821, -2.6555767482881301)	(-4.1316032421717992, 5.7893739197643868)	1.0	z	1.34663
31	N	B	N	M					N	4	0	shapes	N	5	True	11	(3.4885757266036954, -3.5927514521727169)	(-1.5033761085633719, 6.011036174217411)	(-2.0620784891376411, -1.5767063325500157)	(3.0658238234788175, 4.3460128320195643)	1.0	z	0.911302
32	N	A	B	N	A	M	B	M	A	8	2	shapes	B	5	False	11	(-4.7308005744066808, -4.9345640910018851)	(-0.45537039301063764, 1.6620640630140517)	(4.7167778998978687, -0.18459474386794383)	(3.0524112603863482, 5.3851553991850665)	1.0	z	1.691
1	N	A	N	A	M	M	B	B	A	8	7	shapes	B	6	False	11	(5.0557995497891941, -2.6588812710823397)	(-5.2090504873323873, -3.0716527153632374)	(-7.0208240329551881, 4.185061261583602)	(-4.7811387485415686, 7.7545405077825293)	1.0	z	0.96598
2	N	A	A	M					B	4	1	shapes	A	6	False	11	(-1.4240584601024873, -1.5444318500332548)	(-5.9773705558330441, 6.9808626039210839)	(5.6604589174022344, -3.5475476611413903)	(1.0691643361438814, 6.2899743303363671)	1.0	z	0.968113
3	N	A	M	N	M	B	A	B	M	8	2	shapes	M	6	True	11	(6.7350298140731724, 5.1422075744434004)	(0.26886179917301511, -7.4326958786125683)	(-7.6283519379577314, -0.68516432939402172)	(7.6442921509253914, 0.66538404640055582)	1.0	z	0.76389
4	M	A	N	N					M	4	3	shapes	N	6	False	11	(5.5546575261499989, -0.017071505593973413)	(1.6312846388509836, 3.6480807223480305)	(-8.7296341728236424, 5.9783381807037177)	(-7.0921412197177327, -3.3294718765855098)	1.0	slash	0.931535
5	M	B	M	N					M	4	1	shapes	B	6	False	11	(-5.972196694765266, -4.9274904116464437)	(1.5710102128566987, -1.1422956353388143)	(-4.9503064899833404, 6.5886060296043087)	(0.48569338681153695, 3.2079456532730912)	1.0	slash	3.02714
6	N	A	A	N					A	4	1	shapes	A	6	True	11	(-8.7017364803319701, 7.6843816504591764)	(6.4776841130694365, 7.1714002423914209)	(-2.0486952275568173, -2.8933904211729997)	(2.3887525173032316, -3.5312080381104849)	1.0	slash	1.79246
7	N	B	N	M					N	4	2	shapes	N	6	True	11	(-5.5579284203302164, -3.2942397454447221)	(7.0346186486417608, -6.6784864930105385)	(-7.798240798485816, 4.1537156094573042)	(2.3046533190845047, 1.575923889119343)	1.0	z	2.16415
8	N	B	N	M					N	4	3	shapes	M	6	False	11	(3.6005226282988687, -5.7846320372612965)	(7.749287273612623, 0.49444325337789863)	(-6.5056855720360396, -0.51582209635298781)	(-4.0372385809268465, 7.7849406248737338)	1.0	z	3.21383
9	N	A	A	B					N	4	0	shapes	N	6	True	11	(-3.259288093309781, -6.8836668528886129)	(7.8062845363545925, 8.4557134071102666)	(-5.220370812846479, 1.0327499859508258)	(4.3803947177359355, -1.1027299455259669)	1.0	z	0.517161
10	M	A	M	A	B	N	B	N	N	8	7	shapes	N	6	True	11	(-8.1332844329884662, -7.7644348659016487)	(8.5742487678111345, 4.9883531931352483)	(2.1613028930255549, 4.5791821234279872)	(2.6313938820832679, -7.8190547035199014)	1.0	z	0.792835
11	N	A	B	M					B	4	2	shapes	B	6	True	11	(-0.25252100206989425, -2.0801169399364552)	(-4.5526941317001075, 7.8546152955280668)	(3.686476974982595, -7.649492780495553)	(5.1394659812773256, 3.4612661169867547)	1.0	z	0.692548
12	N	A	A	B					A	4	1	shapes	A	6	True	11	(-6.6281077907950072, -2.9755378295021551)	(6.4315831631656426, 7.0204324468644046)	(7.2428636140641505, -3.122827230092275)	(-6.5718445387760207, 5.6276693347481181)	1.0	z	0.602162
13	M	A	B	N	N	A	B	M	N	8	0	shapes	M	6	False	11	(-0.068931580909769252, -3.1759241853401665)	(-1.7196970034967443, 6.5420187419786622)	(-6.9792432985977815, 1.4349449782743626)	(-5.0463255651106689, -7.9455072659465733)	1.0	z	3.09386
14	N	B	B	N					M	4	3	shapes	N	6	False	11	(4.0626193990355368, 7.2023151752322789)	(-2.0845577132978397, 8.33224459728347)	(0.31698110627525011, -1.5585263442293877)	(-3.4261215339125268, -5.7335621313008058)	1.0	slash	0.973688
15	M	A	N	N	B	A	M	B	N	8	3	shapes	N	6	True	11	(-8.6167112948226503, -0.52526729508991821)	(-3.7975528666029019, 2.4596317648876624)	(1.5438302122109473, -3.6941296837303303)	(3.3705208670816535, -8.3406908246234934)	1.0	slash	1.19695
16	M	A	A	B	N	N	M	B	A	8	2	shapes	A	6	True	11	(1.9102680767859823, 5.0883157217673833)	(-5.7182017681184618, 8.2097594576193167)	(8.4237748145887572, 3.6288977160137463)	(5.8065893026914388, -3.3144427356447501)	1.0	z	0.8747
17	N	A	B	M					B	4	1	shapes	A	6	False	11	(7.8628574404334834, 5.7648271274242333)	(-0.40192131508388762, -7.932771123117095)	(8.1873856319656184, -6.799874704876598)	(-5.6506409028083686, 5.5756709162284857)	1.0	slash	1.11025
18	N	A	A	B	N	M	B	M	B	8	0	shapes	N	6	False	11	(-8.494396434614659, 8.6054558097159735)	(5.5365526264463831, 4.7478475471029089)	(2.7645249058275567, 0.90173789013356398)	(-1.2302553951468225, -1.7889663004111203)	1.0	slash	0.76717
19	N	B	B	N	A	M	M	A	N	8	7	shapes	A	6	False	11	(-4.2100072218998008, -7.3227218633085585)	(1.6519329298322187, -7.7890272469020685)	(-7.748853900839654, 7.1992485731458373)	(-5.4739674990415885, -3.0864939321714502)	1.0	slash	0.855433
20	M	A	N	M	A	B	N	B	B	8	6	shapes	N	6	False	11	(5.243390609718098, 7.6829345405689082)	(-3.8218518737941896, 0.26386228710133786)	(3.8811695426144244, 3.5431162497654736)	(-3.7803585831742996, 7.878812513635193)	1.0	slash	2.0871
21	M	A	B	N	N	M	A	B	M	8	6	shapes	A	6	False	11	(2.5513818614353667, 0.17918502870211306)	(-3.74784816357902, 7.012551510397067)	(8.0956202245994895, 1.9711579690523351)	(-2.4330527817871683, -4.6142152603482556)	1.0	z	1.70669
22	M	A	N	A	B	M	N	B	N	8	6	shapes	N	6	True	11	(-3.6118020829316153, 0.79270651335014719)	(0.98068627877144543, -5.5252825666219616)	(6.5586988632831567, -4.9195437886963393)	(-3.8607141236889779, -6.2239334781399691)	1.0	z	1.05636
23	N	B	M	A	A	N	B	M	B	8	1	shapes	B	6	True	11	(-8.6828243277665926, -8.3626350197081525)	(7.9667372709217155, 5.617607305614559)	(1.3923133964162133, 2.0962761117178932)	(-2.8612317356742842, -4.2939116252945082)	1.0	z	0.983962
24	M	B	A	M					A	4	3	shapes	M	6	False	11	(-2.9984170305364248, -2.8037224257465425)	(-7.4540361071013095, 6.0548973725791964)	(8.4445494879622416, 7.5938229881032981)	(6.0911655936872791, -6.7026582569856572)	1.0	slash	1.29354
25	M	B	A	A					B	4	3	shapes	A	6	False	11	(-1.5154315994098271, -3.1695880598649069)	(4.1689100295212018, 1.6865616429233139)	(4.4815331985939402, -5.0463135861442421)	(-3.4746377992025748, 4.6369795609837485)	1.0	z	1.11522
26	N	B	N	B	A	M	M	A	M	8	3	shapes	B	6	False	11	(8.3558752760851789, 3.9892736249138316)	(-4.2113799433011341, 1.600930564603436)	(2.9921203971389243, 7.3652474255752942)	(3.9547151668599341, -3.5358245614412072)	1.0	slash	0.870771
27	N	A	B	M	M	N	A	B	M	8	0	shapes	N	6	False	11	(1.8332938642312158, 3.8987903715398353)	(-5.7339267012181301, -1.1034746826362909)	(-1.3968970814924049, 8.0807436131785266)	(-6.9728267627854903, 2.7091731567570712)	1.0	slash	5.74664
28	M	B	B	A	M	A	N	N	M	8	0	shapes	M	6	True	11	(7.4013319050596387, 1.3337140057433192)	(-4.0549997981325223, -1.0503330952615046)	(1.5811005309650739, -0.24490315883947034)	(7.0662178621809382, -7.6940982387572561)	1.0	z	0.767667
29	M	A	N	N					M	4	0	shapes	M	6	True	11	(2.0747620128137978, 2.4331055604557683)	(-5.2395901868406494, -4.6412559758402319)	(-2.217140420097607, 2.2974700299713664)	(2.0561859727924325, -5.4756937787961517)	1.0	slash	0.591507
30	N	B	N	A					N	4	2	shapes	N	6	True	11	(-6.3687687456063991, 7.7581398442268998)	(6.2065094105102965, 2.5109280480283118)	(-2.381793872394832, -7.9074186694514426)	(4.8276369703347068, -4.7408716125827466)	1.0	z	0.425138
31	M	A	M	A	B	N	B	N	A	8	3	shapes	A	6	True	11	(-2.9715620711269457, 3.4915081067298885)	(4.6197689181117525, -3.1685072756827122)	(5.3791787245405942, 4.2987763709249514)	(-3.3722107918762712, -8.6071729434067255)	1.0	z	0.838741
32	N	B	A	A					A	4	3	shapes	A	6	True	11	(5.1679985137529485, 4.1483484132681721)	(-4.4666987266630249, 0.4581644442761803)	(3.7272807626518141, -5.3266402561082913)	(-3.8763052911141216, -5.2857244428397872)	1.0	z	0.472539
1	N	B	B	M	A	M	N	A	A	8	5	shapes	M	7	False	11	(3.7402491875799697, 7.3505851671712392)	(-3.7703657231193919, 4.7550211750655986)	(8.0467867508277671, -0.83934799083087697)	(-0.22848401210018032, 1.4318896055121471)	1.0	slash	0.706146
2	N	B	N	B	A	M	M	A	M	8	0	shapes	N	7	False	11	(-2.4065905514584678, -1.8902790400007659)	(-5.0391996576660238, -7.8124580076070043)	(5.4553771375417437, -1.6512618085691919)	(-3.2809127935021793, 7.993789302233786)	1.0	z	1.6316
3	N	B	A	B	M	M	N	A	M	8	3	shapes	B	7	False	11	(5.4560120126847309, 1.7228650386580249)	(1.7555912515029028, -8.3660729138296404)	(-6.4311227509786644, 7.7920599038253151)	(-4.9864057469917391, 3.0082845766401647)	1.0	slash	2.59534
4	N	A	A	M	M	N	B	B	B	8	0	shapes	N	7	False	11	(-6.3802191621364885, 5.0366703078188415)	(-2.5604641699148605, -1.5082655054566851)	(4.7428559984921534, 5.3583410505598312)	(4.5636669307041089, 0.44627770747854889)	1.0	slash	2.90277
5	M	B	M	N					A	4	0	shapes	M	7	False	11	(-8.4682796759738288, -2.8252005382475129)	(-2.4832777166585993, 4.3486460470608357)	(2.5322513638467345, -4.426007079112205)	(1.7183613854529565, 7.7771204158064222)	1.0	z	4.62018
6	N	A	N	A	M	M	B	B	M	8	4	shapes	M	7	True	11	(6.6951067228654431, -0.5304137056996705)	(-2.2889233866296239, 4.0711715082754978)	(7.729238383779915, -5.1973446059984649)	(-7.1697899785497956, 1.0406035838394292)	1.0	z	0.637611
7	N	A	M	M	N	A	B	B	B	8	0	shapes	N	7	False	11	(-7.4519372824062797, 0.9932954413703623)	(8.6882374618567582, -3.7509317488055141)	(-2.6969943540359349, 7.710276851217472)	(-8.3884051879812862, -8.5405950097508079)	1.0	slash	0.907413
8	N	B	M	M					M	4	2	shapes	M	7	True	11	(0.18357400016610192, 3.3157945959152215)	(6.8416036580468766, -2.3640558654671135)	(-7.5472663364003063, 3.0533337242023642)	(-0.81102012463990469, -3.8773227195857016)	1.0	z	0.601008
9	M	B	B	A					A	4	0	shapes	M	7	False	11	(-2.1154296416040612, -6.8561912077359981)	(3.216591552502825, 7.2852636633022563)	(1.5330088086593889, -0.045588195620371863)	(-8.6747362249994122, 2.8938030640295)	1.0	slash	0.90653
10	M	A	A	N					N	4	2	shapes	A	7	False	11	(-6.7012638578866968, 3.0041556093232487)	(1.7131169407433422, 5.0531136888370245)	(-0.30453310223968444, -4.2362992796804742)	(3.1811899351062429, -7.6871892179526231)	1.0	slash	0.790332
11	M	B	M	B	A	N	A	N	M	8	0	shapes	M	7	True	11	(5.9232998143154862, -7.5662943547069146)	(4.7135951169536305, 0.55772758628254948)	(-5.0266989944307143, -1.0969346350350779)	(-8.2164671524712194, 3.600769770763895)	1.0	slash	2.00589
12	M	B	M	N	A	B	N	A	N	8	5	shapes	B	7	False	11	(-5.8721883633271217, -3.2398322351957098)	(2.079483681929073, 4.4093500482975045)	(-1.2109123001888475, 1.4437716488653756)	(-0.78648743159260981, 7.7267778276915386)	1.0	slash	4.68736
13	M	B	N	A	B	A	N	M	A	8	3	shapes	A	7	True	11	(-7.3898554160958785, -2.8978744217003332)	(-1.2747864096728287, -5.8418222386856282)	(-5.5782693382735919, 5.7561220588997752)	(2.7045455073524138, 5.1021634096578232)	1.0	z	0.744947
14	N	B	N	A	M	M	A	B	B	8	2	shapes	N	7	False	11	(6.2222825985885883, 3.3374964303803658)	(7.8701808788964946, -7.2172315932617224)	(-6.9459616347003177, 2.6115736101629015)	(-0.7453910577077405, -4.1166221861238412)	1.0	slash	0.926447
15	N	B	M	M					N	4	0	shapes	N	7	True	11	(-2.5635380648555257, -1.9048410109417544)	(6.9020826985547465, -4.9353195351896186)	(-2.3509312598972958, 3.4201219628811241)	(1.2883710423267836, 1.1949431364462235)	1.0	slash	7.34406
16	M	B	A	M					B	4	1	shapes	B	7	True	11	(-1.5696959612709449, 7.8270959381236658)	(4.2996170489887948, 6.9722243165214213)	(8.6946434449904508, -7.7695933209711807)	(-7.2886760135900275, -3.8576623214262344)	1.0	slash	4.17333
17	M	A	N	B					M	4	0	shapes	M	7	True	11	(3.2801630033706637, 2.7816076627129007)	(-5.2518250715182333, -0.45821501151663924)	(-1.2859676385992804, 8.3432975412229133)	(5.8652474019507057, -0.94722444177622478)	1.0	slash	1.02877
18	N	A	N	A					N	4	0	shapes	N	7	True	11	(7.9964121861543127, 4.9460336520543482)	(2.8230846043554774, -2.617288097463482)	(-4.0643559463175309, 3.6412896376203836)	(-5.9186485892667964, -5.2767038148336622)	1.0	z	6.20015
19	M	A	M	A	N	N	B	B	N	8	1	shapes	A	7	False	11	(7.9109184286785101, 3.2291992039197055)	(1.9311307577271908, -6.1782448566875177)	(-6.9201304871043918, 1.7477617668170353)	(-4.0242915086144198, 5.7616015832917178)	1.0	slash	1.53551
20	M	B	N	B	A	M	A	N	N	8	7	shapes	N	7	True	11	(6.4013326232369234, -4.2157471094333516)	(-8.3666327191017196, 4.7088767258276896)	(0.40659270876271236, 2.2008694249829617)	(5.1692844041519059, -8.2984154884464836)	1.0	z	0.791163
21	N	B	B	A	N	M	A	M	B	8	2	shapes	B	7	True	11	(-0.72697333912677209, -7.842557467534248)	(7.1386277600305039, -0.72994101706943759)	(8.3869359946071782, 7.7006583431277384)	(-4.1126670703321011, -0.21491484558193363)	1.0	slash	48.388
22	N	B	B	A					A	4	2	shapes	B	7	False	11	(7.1051958625874594, 2.2835020993420514)	(0.26840581820310838, -4.5053365648157566)	(-5.0527367740181086, 8.6805325640118731)	(-4.0840965986041899, -6.4908197383354782)	1.0	slash	1.27075
23	M	A	A	M					B	4	0	shapes	M	7	False	11	(4.6285960473223966, 7.2052154220311309)	(-2.2750730766425304, -2.6189800180395846)	(-7.7376983027535235, 3.7928508966161445)	(8.072906518527688, -2.77041010463702)	1.0	slash	0.562367
24	N	A	B	B					B	4	2	shapes	B	7	True	11	(-6.1005314771442478, 5.9985731392828896)	(-5.5268322624703323, -4.7741230093000349)	(2.1574002125525009, 3.023216387422254)	(0.96473801033091178, -3.3461470961602711)	1.0	z	0.956085
25	M	A	B	M					N	4	2	shapes	B	7	False	11	(4.4484714107578061, -8.7404946997300552)	(-2.2103390728781021, -4.3759666299123525)	(5.7297635287397082, 8.4931867052821453)	(-6.1660846124493087, 4.8420520571062369)	1.0	slash	0.735622
26	M	B	B	M					M	4	3	shapes	M	7	True	11	(-6.6737107088131999, -3.5801952505260539)	(8.7430084711740506, 2.2536103314721991)	(2.9392327418803852, -1.3316699631115956)	(-0.0019275176333799493, 7.3630437617050717)	1.0	z	0.623234
27	M	B	A	A	B	N	N	M	B	8	1	shapes	B	7	True	11	(-8.197294518896328, 2.5929231756560345)	(3.1332396824639126, -4.2090367818791101)	(3.6099495983264731, 5.006918431414034)	(1.7362065852230515, -8.7476261480970603)	1.0	slash	1.54294
28	N	A	B	N					N	4	3	shapes	N	7	True	11	(8.6877639752705385, -2.8735748404985397)	(-1.9074032675721959, 6.2832759598793029)	(-7.3574610028309584, -8.4587050417232028)	(7.4243831809102545, 6.8194500727653384)	1.0	z	0.484672
29	N	B	B	N					M	4	3	shapes	N	7	False	11	(-6.5138908701949028, 7.196197967678982)	(0.057808520791150286, -3.4032555516120411)	(5.9832898035666773, 8.6114148557575696)	(-7.7496409515922764, -1.6855256650645574)	1.0	slash	0.878324
30	M	B	A	A	B	M	N	N	N	8	7	shapes	N	7	True	11	(3.397842330466446, 5.7584957326224071)	(-5.8350093718369038, -1.2675779449500251)	(0.14319909003785369, -4.6953499888555346)	(-1.2411807950752607, 6.2639282852168154)	1.0	z	2.6572
31	M	A	N	M	N	A	B	B	A	8	1	shapes	A	7	True	11	(-0.84468687390119079, -5.3218087789778039)	(0.16125951780180792, 1.7243413421878397)	(8.6751494039807326, -5.4934122360704141)	(-3.2206697519166863, 4.3682344840942164)	1.0	z	2.85533
32	M	B	B	A					N	4	1	shapes	B	7	False	11	(-0.60058774343158383, -1.7336288942301499)	(-5.5559610606726775, 5.1005900726812445)	(1.6794317779424865, 5.8286814724147575)	(5.3224150753151402, -4.6064458855106318)	1.0	slash	0.846847
1	M	A	M	B					N	4	2	shapes	M	8	False	11	(-0.81670032039096707, -2.7728939410615503)	(6.8095598117365803, 6.1828193754847902)	(-2.7145195521522583, 6.0168880932452868)	(6.3327907128793441, -3.5739436817379238)	1.0	slash	0.584559
2	M	A	B	N	N	M	A	B	B	8	3	shapes	N	8	False	11	(-1.5111066719034758, 7.6654147542990181)	(2.5838478125814284, -6.2840729504552071)	(6.7783596985797114, 0.2477465074911791)	(-5.9539068117981131, 2.1625315908134883)	1.0	slash	3.38411
3	M	B	A	M					A	4	2	shapes	A	8	True	11	(6.6329349749260533, -8.3017356919075613)	(-6.7478780401869072, 0.42051157015219154)	(-0.58396973125365648, -0.56039336144638163)	(3.5549430815109737, 3.1818151544510798)	1.0	z	1.65351
4	N	A	A	M					M	4	3	shapes	M	8	True	11	(6.7124293581285865, 6.7749438806779985)	(2.1414804276265755, -7.9965387444433009)	(-5.8713640174537245, -1.3982849556049475)	(-6.0561465977221127, 4.5119903198369169)	1.0	z	0.885133
5	M	B	M	N					N	4	2	shapes	M	8	False	11	(6.0371982103072543, 2.3646966332139101)	(6.6705375010591421, -7.0503443693655514)	(-8.1957754699556205, -1.2483320259652109)	(-6.9370751225038676, 2.6272016861263232)	1.0	slash	0.894992
6	M	B	B	N					M	4	1	shapes	B	8	False	11	(4.452655463949224, 1.9654871750619911)	(-0.05319960967002757, -1.0539753478392697)	(7.4776156902561084, -8.3337994926308543)	(-1.7779869972892728, 7.1481813684143809)	1.0	slash	1.02063
7	M	B	B	A	N	M	N	A	B	8	1	shapes	B	8	True	11	(-7.7016875731723093, 0.75536656071892594)	(3.5686013382003186, -6.4777101852881271)	(1.78146893405113, 4.9510748415167214)	(-3.2405365379132576, 0.30009759142309456)	1.0	slash	0.70018
8	N	A	M	A					N	4	0	shapes	N	8	True	11	(3.7019611297679536, 6.7149249302958243)	(-2.3019805438952554, -7.1271442287326101)	(-5.7410459190262593, 0.20791976501989495)	(4.0149374972405045, -2.4728112377474138)	1.0	slash	2.47985
9	M	B	A	A	M	B	N	N	N	8	7	shapes	N	8	True	11	(6.8322983302506444, -1.3437778213944167)	(-2.9477305477973355, -7.857177795146586)	(-5.7698746665424485, 8.3580886262429317)	(8.1582742407593152, -5.2791581929959817)	1.0	z	0.603477
10	N	B	M	M					M	4	3	shapes	M	8	True	11	(4.2947894650606298, -7.1454896483696544)	(0.21099420815387404, 1.6489186610348145)	(-8.5153042899682596, -1.387203981506687)	(-4.7698091029217045, 3.1492785491130384)	1.0	z	0.667116
11	N	A	A	M					M	4	3	shapes	M	8	True	11	(-4.6664776388633094, -8.1579480780677809)	(6.7757828395138286, -1.6802370577737129)	(-8.7426133940599957, 0.12833553319726754)	(2.3830947836039797, 7.4320217598144005)	1.0	z	0.696782
12	N	A	M	B	N	B	M	A	B	8	4	shapes	N	8	False	11	(-7.3175405040702701, -4.8368536044037302)	(-1.9686690856388376, 8.1194458233044315)	(5.4620888361574629, 3.9617523668394394)	(2.4461624832711859, -0.062509516688072253)	1.0	slash	2.2567
13	N	A	N	A					N	4	2	shapes	N	8	True	11	(5.1734227590806086, -6.8381107170635467)	(-4.7333972977061247, 6.1574743930467957)	(-1.2301430154231063, -7.7083052354411583)	(6.6061563291014096, 2.9979430861142884)	1.0	z	0.487978
14	M	B	N	B					A	4	2	shapes	N	8	False	11	(-0.22374756778959615, -4.7726526354222756)	(-8.6139919330188928, 3.7164965720660916)	(8.4271594984189377, 6.8000371499024972)	(2.2799503545406701, -1.5191109657923789)	1.0	slash	0.735476
15	N	B	N	A	M	M	A	B	B	8	2	shapes	N	8	False	11	(-3.6254866726919746, 5.8625048817851209)	(-4.0307257623017341, -8.6649507230268039)	(2.7991246327834887, 4.3610725483805481)	(6.1084970731460384, -3.6035916561774242)	1.0	slash	0.519426
16	M	B	B	N	N	A	M	A	B	8	3	shapes	N	8	False	11	(4.160211846043012, 2.7627225142383729)	(-0.24672125370174491, -8.2019761951034376)	(7.3088806521554339, -0.98162747045901266)	(7.844036727585614, 5.7165567454245583)	1.0	slash	0.723063
17	N	A	M	M	A	B	N	B	A	8	4	shapes	A	8	True	11	(-4.7746033223735029, -7.455218476609268)	(4.8707681250495973, -2.54016101965132)	(8.2183506187958564, -6.6274193354567767)	(-3.5968534313992224, 2.0512762495265289)	1.0	z	1.44454
18	N	B	M	N	M	B	A	A	N	8	5	shapes	B	8	False	11	(-4.7662468307046293, -1.4190904246042706)	(-0.39018208119185971, 6.8029407031395053)	(5.2458273342385766, -6.8155473467270031)	(-8.7359588858223276, -8.2283285925215033)	1.0	slash	0.736363
19	N	B	A	B					N	4	3	shapes	B	8	False	11	(6.6730490155907578, 4.1287510468822024)	(4.888228164031494, -1.3429795589126661)	(-4.7337338190268525, 5.9453426212283098)	(-5.3644459634211819, -2.2290219318896787)	1.0	slash	0.711993
20	N	B	A	M					M	4	3	shapes	M	8	True	11	(-5.9016808946142731, 7.0329199205099826)	(3.6778880453833622, -0.43941805531607692)	(5.4753260862232516, 5.8718743132538798)	(-6.5956913396302017, -8.2538488705055801)	1.0	z	0.94768
21	N	A	M	A	N	B	M	B	B	8	7	shapes	B	8	True	11	(3.3401689588491337, 6.2467970698343009)	(-2.6702460842459583, -5.6766192597473433)	(-3.209239297309491, -0.40103894179694777)	(-5.4307824438443699, 3.6176436501285316)	1.0	z	1.00121
22	M	A	N	M	N	B	A	B	N	8	7	shapes	B	8	False	11	(-6.6707900875700066, 7.0295446238194312)	(3.5143692579928292, 2.5514486549140027)	(-2.9141524162144936, 0.271846362214065)	(-4.8395614896695278, -6.5879911307172137)	1.0	slash	0.772771
23	N	B	M	B	M	A	N	A	M	8	2	shapes	M	8	True	11	(-7.0069721905631166, 3.4184576395405113)	(-3.5918267349788575, -8.2337464887426464)	(5.3937189622447157, 3.0411596492833031)	(-7.8357180614339903, -4.537994356029559)	1.0	z	0.628487
24	M	A	A	M	B	N	B	N	A	8	2	shapes	A	8	True	11	(-6.1526044039729175, -5.4336188379014754)	(-0.58714981825914059, 6.8928968849673407)	(7.6232393242381775, 3.8816246764790474)	(1.0000770868279698, -7.03827838626892)	1.0	z	1.53808
25	N	B	N	B	M	A	A	M	A	8	0	shapes	N	8	False	11	(-6.3392380993117445, -2.3881742820679861)	(8.237831129391445, 7.84181064753896)	(1.9268831197734428, 8.489854079061292)	(-7.4870403457387562, 2.2960715187742249)	1.0	slash	1.32959
26	N	B	B	M					B	4	0	shapes	N	8	False	11	(-6.3477486869244553, -3.4595771831527005)	(6.0027613162757287, 6.244757781094286)	(-8.7416426658226207, 0.68495197647973782)	(4.3423120305354193, -7.8670481108949879)	1.0	slash	6.30515
27	N	A	M	B	B	N	A	M	M	8	2	shapes	M	8	True	11	(3.2285910111760039, 4.3129529297512104)	(-0.06857819983636837, 1.4152158210993395)	(-6.2459006857613462, 4.8396179352749407)	(8.3619392592170776, -4.5612630666239227)	1.0	slash	0.949138
28	M	A	A	N	B	B	N	M	N	8	4	shapes	B	8	False	11	(3.0396532816993656, 1.4734805981568861)	(1.3533916765227083, -8.7101525052571738)	(4.8208806625481966, -4.8603830127451229)	(5.1811880827808761, 6.259669536869044)	1.0	z	0.557361
29	M	B	B	N					B	4	1	shapes	B	8	True	11	(-3.0113674146703238, -4.7477657512585161)	(-4.8317512482595326, 3.5383986778872565)	(5.2157726436650496, 8.2493603624116147)	(3.9217962188564481, -8.3843693277060272)	1.0	z	1.27289
30	N	A	M	A					N	4	3	shapes	A	8	False	11	(-8.4126504214909463, 3.5684781050168457)	(6.5973753160985975, -7.8623508682923129)	(4.5433990664396937, 8.3027417157043821)	(-6.9620259169278569, -7.5230817952557221)	1.0	slash	0.620584
31	N	B	A	M					M	4	2	shapes	A	8	False	11	(3.0760267269134083, -8.6003665575059394)	(5.2564349595802469, 6.1014695073293002)	(-6.5705920253368806, -7.5286067894034581)	(-2.4290773098158054, 2.3783125941141847)	1.0	z	0.57625
32	M	B	B	N	A	A	M	N	A	8	5	shapes	A	8	True	11	(1.9954136596432015, 2.727294321125596)	(-2.9208013730023392, -4.828600962353983)	(2.8586522720219953, 8.3689186479511548)	(2.1038340810032388, -1.2885816849087322)	1.0	z	0.928002
