TrialNumber	stim0	stim1	stim2	stim3	stim4	stim5	stim6	stim7	stim.probe	ttl.stims	corr.num	trial.type	stim.corr	block	match	Subject	stim.pos0	stim.pos1	stim.pos2	stim.pos3	ran	resp	RT
1	M	B	B	A	A	M	N	N	M	8	7	shapes	N	Practice	False	115	(5.0451570338693177, 4.1247689396668417)	(-5.0801670890581114, -5.3562019144131217)	(-1.6582352528734923, -2.4074165987806042)	(-4.4418594171362962, 3.210643157291738)	1.0	slash	2.05288
2	M	B	N	N	M	A	B	A	M	8	7	shapes	A	Practice	False	115	(-7.8586991287877508, 8.2455727393041549)	(-6.0503916532799895, 4.3799638158581473)	(-2.298662731450122, -4.705879035114525)	(6.1690094390631955, 1.5406331820560535)	1.0	slash	2.77433
3	N	B	A	M	B	N	M	A	N	8	0	shapes	N	Practice	True	115	(7.7037836303605225, 4.9386553229917958)	(-3.1583449853207055, 8.7033239855149667)	(-3.0289248120385119, -7.6210245557282512)	(-7.048317513059037, -3.3238267292139465)	1.0	z	1.43191
4	N	B	M	N					M	4	2	shapes	M	Practice	True	115	(7.846333056655201, 1.2523311424839179)	(-1.2400757297628999, -4.7251771906062752)	(7.3076505174046815, -4.2612888809703664)	(-7.5866269175697649, 5.3182294077725736)	1.0	slash	0.987622
5	N	B	B	N					N	4	1	shapes	B	Practice	False	115	(-6.8316776197813667, 3.5383496768325866)	(-6.0549842053863001, -2.1335720409429992)	(0.99124901930491838, -5.5847015351816562)	(0.50884666640102161, 6.787288764050631)	1.0	slash	1.37713
6	M	A	N	B					B	4	2	shapes	N	Practice	False	115	(-0.095532812898170505, -0.83225269257691981)	(5.2085325185738753, 1.2986867396533004)	(6.6608112968832458, -5.5434616575132747)	(-6.2401009789775994, 2.0190407263628778)	1.0	slash	1.19073
7	N	A	B	M	M	N	B	A	A	8	1	shapes	A	Practice	True	115	(-3.8024212678562757, 8.2267188041624237)	(7.9133985464262757, 2.4073665201624834)	(1.3038281810517862, 3.457650964362875)	(-8.5104019299009064, -1.7637793089470346)	1.0	slash	1.80432
8	N	B	B	M					B	4	2	shapes	B	Practice	True	115	(-1.6452892542635125, -4.4495972106382409)	(5.7582515511714352, -5.489550800956768)	(-1.8295702724322913, 8.0073541964203656)	(2.2325049560904464, 6.4931056848364435)	1.0	z	1.14791
1	N	B	A	A	N	B	M	M	M	8	4	shapes	N	0	False	115	(-5.7453835075633632, -7.3918239908297867)	(-0.039146687013264625, -5.2284022062403999)	(-8.5919061438437598, 0.13155014339405469)	(3.7132661141322263, -1.7475581130658657)	1.0	z	1.60228
2	M	A	A	M	B	B	N	N	B	8	6	shapes	N	0	False	115	(-7.2956904891529861, 6.3247645898744977)	(5.3115815732896277, -1.7696892796511401)	(8.3578937428118358, 7.6458165554566691)	(-0.91391893516274081, 6.7218040475572263)	1.0	slash	1.66969
3	N	B	A	A	N	B	M	M	M	8	7	shapes	M	0	True	115	(5.0606129689621149, 0.28555406100003111)	(0.34096377857165194, 1.5389184367654174)	(-3.725284027371238, 0.50002795564417823)	(-5.3446594658780651, -3.3436443721272635)	1.0	z	1.49352
4	N	B	M	M					B	4	0	shapes	N	0	False	115	(-7.8485541547820672, 6.7026071862776959)	(0.29744197357124413, -4.6969167325090124)	(-4.8889700585300373, -3.9058830556638675)	(6.4436136138077966, 7.4690393664775101)	1.0	z	1.83704
5	N	A	M	B					M	4	1	shapes	A	0	False	115	(-6.4190305955308178, -2.0262221253248143)	(1.8359879417141212, -5.2969243558441867)	(7.1350448846040475, 7.3819145028093196)	(-6.7512402545066807, 7.809411960059748)	1.0	slash	0.958614
6	N	B	N	M	M	A	B	A	N	8	0	shapes	N	0	True	115	(2.5950522081866723, 7.6191388203735535)	(8.5772346300982107, -2.9018638035954307)	(-3.1058730293225993, -6.4640531144678386)	(-8.2004975951878283, 1.9653612388964952)	1.0	slash	1.4362
7	N	A	N	M	A	B	M	B	A	8	4	shapes	A	0	True	115	(-1.2092237268151509, -4.5197409527438364)	(-4.7471251771355991, 4.6856313125441726)	(8.0284384736394472, 2.0474657331793882)	(-8.230936749341291, -6.1174950187498318)	1.0	slash	1.31382
8	M	A	N	N	M	B	A	B	M	8	4	shapes	M	0	True	115	(0.42365535050168646, 2.6837559800082946)	(8.5031163441842139, 2.2190412876451759)	(5.5125672402714514, -1.693080182165227)	(-4.2113860452605136, 3.197798478234656)	1.0	slash	2.44539
9	N	B	B	N	M	A	A	M	M	8	4	shapes	M	0	True	115	(4.1837037894804165, -2.9663556048955577)	(-7.9645162648124952, -7.9990173863085214)	(-8.0601892079498647, -2.1099700576361062)	(-6.9214583432509595, 6.4541348193832153)	1.0	z	1.561
10	N	B	B	M					N	4	0	shapes	N	0	True	115	(-2.003275904018559, 0.04040089512126066)	(0.3869911289644925, -7.2364206545721679)	(8.07879177240725, 2.010304388405503)	(-6.3134071847874367, -3.4953914258363143)	1.0	z	1.4906
11	M	A	B	N					A	4	1	shapes	A	0	True	115	(0.48018543120898727, -4.921496528429798)	(-5.4454992301615732, -4.4169407939667167)	(7.1963634353352859, 7.8861150031926641)	(-8.3358765110017607, 6.6852972461421434)	1.0	z	1.37804
12	M	B	A	M	B	N	N	A	A	8	4	shapes	B	0	False	115	(5.9612381150154174, -0.22043581195120865)	(-2.8113361836951656, -4.6346178020736213)	(-5.2342363186872625, 2.3405193718607578)	(1.5884640554818166, -2.2372888752415365)	1.0	slash	1.32382
13	M	A	A	N					M	4	1	shapes	A	0	False	115	(-8.671220418713709, 8.0857269208874385)	(3.9649309013366185, 5.9735331437628414)	(0.31631802690579747, -1.7121074175426685)	(-0.85241132159097432, -6.1265234674788767)	1.0	slash	1.08546
14	M	A	N	A					B	4	1	shapes	A	0	False	115	(7.7046274355907585, 0.34388697651568023)	(-8.013920046945465, -3.3730277849368049)	(-3.6283123549474459, 5.4510520580559891)	(6.2949791384810361, -8.6812033092156042)	1.0	slash	2.75919
15	N	B	M	N					M	4	2	shapes	M	0	True	115	(4.3797206945600156, -3.0803287855177803)	(-2.2149300572607205, -8.2103821755642414)	(-5.616465391768072, 6.9240668992412573)	(7.6989783713797806, 5.9964185960466523)	1.0	z	1.00858
16	M	B	M	N	A	B	A	N	A	8	3	shapes	N	0	False	115	(-0.31683000500333591, 8.3294945880754234)	(-1.4992498932899609, -4.554292605368051)	(8.0245070454518554, -3.3728790229718726)	(0.68192285236522743, -0.97783617038132675)	1.0	slash	1.07624
17	M	B	B	A					A	4	3	shapes	A	0	True	115	(-8.0785114633652384, 8.1918843323729007)	(-6.9374250374584889, -4.6449311357931489)	(8.6202472617929153, 5.0247962987452102)	(0.27097861400900847, -6.0012350864200874)	1.0	slash	0.871869
18	N	B	A	N					A	4	2	shapes	A	0	True	115	(-0.085342503220042332, 7.7451776955166416)	(7.3129859402742916, 7.1162397368102717)	(8.2364918539601213, -0.83947580958607571)	(-5.0623922250385167, -6.0247175903179091)	1.0	slash	1.0189
19	N	B	B	A	A	N	M	M	B	8	1	shapes	B	0	True	115	(1.1828705919195173, 0.76185861840626146)	(-3.33986218831663, -1.8344103586983236)	(8.6673140435171305, 0.57989264444175603)	(3.0044301929163773, -6.7532888200160786)	1.0	slash	1.40303
20	M	B	A	N					B	4	2	shapes	A	0	False	115	(-1.112258872599587, 0.96614319499995993)	(8.4983701536476453, 4.4393579608791764)	(-5.2782729566423807, -1.8185102768725496)	(7.2553400553871157, -4.2328192383580321)	1.0	slash	1.46069
21	N	B	A	M	N	A	B	M	A	8	1	shapes	B	0	False	115	(-4.8006904560322639, -8.0398888330512079)	(0.60565328276022967, 1.2986486214464676)	(4.3692075526505842, 7.4130379471053658)	(-4.0719410644331724, 4.4394831742632093)	1.0	slash	0.980395
22	M	B	B	N	N	M	A	A	M	8	6	shapes	A	0	False	115	(5.0738862250511385, 1.4027432021830357)	(-6.0587430216561291, 0.00088026155067488787)	(7.5328097232526652, -8.3155474807430068)	(8.1436075041980196, -4.1465328744528307)	1.0	slash	0.851867
23	N	B	B	M					N	4	2	shapes	B	0	False	115	(0.24735560795390654, -3.4592327468860011)	(0.81824319968978543, 0.84205400389485874)	(-3.6125376185915803, 8.0627194858342541)	(-8.2111388316565037, -8.1922721688458982)	1.0	slash	0.835738
24	N	B	B	N					N	4	0	shapes	N	0	True	115	(-2.7716132575669841, -1.1535526069866702)	(-7.0270951098183456, 0.24463567930692776)	(6.5878446913018252, -6.6611005731396054)	(6.6248571021489244, 0.33849926625504168)	1.0	z	1.11937
25	N	A	B	A	M	M	N	B	B	8	7	shapes	B	0	True	115	(7.2064352780518721, 1.2874803087864972)	(-4.4733751192816902, -4.1942664814977801)	(8.7168541619767375, -7.8841245819125785)	(1.0168928681482381, -7.9397775332194476)	1.0	slash	1.15689
26	M	A	N	N	B	B	A	M	M	8	7	shapes	M	0	True	115	(8.7184830319775379, 0.25959052557465867)	(-7.3552321860154271, 1.00395399997333)	(-1.1028712121482949, 6.6861614561905611)	(-5.0470075541733301, -5.0508260909860487)	1.0	slash	2.10655
27	M	A	A	B					B	4	1	shapes	A	0	False	115	(7.8886483937833276, -3.0537570933758573)	(6.2809187717914536, 8.2682720768867064)	(-8.7273412988451398, 0.73763006184868729)	(-2.1615989246965936, -6.9465831058056509)	1.0	slash	0.815947
28	M	B	A	M					M	4	1	shapes	B	0	False	115	(-7.8291537959059125, 7.3163941916563537)	(-2.8645729075691388, -5.9448428798235771)	(7.8318872058748035, 4.9061366442366285)	(3.2135792855841707, -0.73558736940631597)	1.0	slash	0.839912
29	M	B	N	B					M	4	0	shapes	M	0	True	115	(2.7612790538561391, -1.0280678954818887)	(5.8296771412507056, 7.7630991329998622)	(-8.4086826966382322, 7.1948823638068795)	(-7.8323211615514152, -2.2192653231599522)	1.0	slash	1.14547
30	M	A	M	B					M	4	0	shapes	M	0	True	115	(6.4737222382353803, -6.5030659144740985)	(1.4674544659563651, 0.488476790782574)	(-2.8081487194517996, -3.5809686893235346)	(-4.0435988273908832, 4.1698199760137271)	1.0	z	1.27124
31	N	B	B	M	M	A	A	N	M	8	6	shapes	A	0	False	115	(4.0996017013104531, -7.6023428897152101)	(-2.4057174762160249, -7.337686546670021)	(1.9013930814624729, 2.1410080181398214)	(-2.0889896478565193, 1.7159431359712443)	1.0	slash	0.932561
32	M	A	A	B	M	N	B	N	B	8	2	shapes	A	0	False	115	(8.3506522138364971, 2.6264602866497953)	(6.1509078262848345, -6.1705610186187112)	(1.9707594035193008, -6.4142853373067661)	(-2.8536523975181654, 1.1511270720837459)	1.0	slash	2.49423
1	N	B	N	B	M	M	A	A	A	8	7	shapes	A	1	True	115	(3.6710412096438709, 5.5896690175817287)	(-1.460760894447481, 3.5413758008581304)	(-1.5561757527607218, -6.695345407194238)	(4.0255799942504407, -3.3796593422041772)	1.0	slash	1.52792
2	M	A	A	B	M	N	B	N	A	8	2	shapes	A	1	True	115	(2.9668227198675101, 4.9469284336797177)	(-3.5382805074948296, -7.7253266746881986)	(-5.1165678792060305, 4.5433301424877737)	(7.0160590556457301, -8.2417140915439067)	1.0	slash	1.79545
3	M	B	N	A	N	M	B	A	B	8	1	shapes	B	1	True	115	(1.4637193606134282, 1.9729185701972654)	(7.9027694193593341, -3.1632489083223261)	(5.8276502047998715, 2.4887250734931499)	(-0.59530099872667464, -8.5071827074734809)	1.0	slash	8.6648
4	N	B	N	B	A	M	M	A	A	8	7	shapes	A	1	True	115	(-0.94505638787209278, -3.1106239230101531)	(5.4692470057369071, 2.0587234243722445)	(3.3118542732463361, 7.8616172434221205)	(-4.156076219264075, 7.3856840280835634)	1.0	slash	0.605503
5	N	A	M	N					M	4	2	shapes	M	1	True	115	(4.8702497264578071, -5.1221029731770091)	(4.0097289084371273, 0.82412040474129)	(-4.341331161932473, 3.0927236077121236)	(-7.602744697833713, -2.0039307386303316)	1.0	z	1.39153
6	M	B	M	A					M	4	2	shapes	M	1	True	115	(-1.0180056427747779, -5.7391447841445409)	(2.8202902493244313, 2.1795280052515391)	(3.026995802815561, -1.9006924355300061)	(-3.7326635750555033, 4.7172865548158214)	1.0	slash	1.57882
7	M	B	A	N	M	N	A	B	B	8	7	shapes	B	1	True	115	(-2.1091171695087922, 2.7365976700974226)	(-8.0635384722621612, -2.5399197837413219)	(1.4314486407721461, -5.831283665993892)	(3.052333622972359, -0.70541840025376423)	1.0	slash	0.924729
8	N	B	N	B	M	A	M	A	M	8	5	shapes	A	1	False	115	(-0.31228408015500975, 8.2373399454907066)	(-4.3458581497329103, 8.1705353797118754)	(7.0525913428613212, 2.0248564667594042)	(0.86849066708853329, -7.3493293824856849)	1.0	slash	0.944506
9	N	B	N	B					M	4	2	shapes	N	1	False	115	(-8.7472670066738605, 4.6910008098133567)	(-5.2730026419783709, -4.5307287002369705)	(6.0542514673960497, 3.7837734760171635)	(0.7424007106456969, -4.6419584207764224)	1.0	z	1.88625
10	N	B	M	B	A	M	A	N	B	8	0	shapes	N	1	False	115	(5.3211834963176177, -4.9594834146460851)	(-4.8100074125566294, -3.582566554161347)	(-8.033566557385404, 8.0172087478725835)	(6.5274741786654928, 5.986869541420818)	1.0	slash	2.00181
11	N	A	B	B	A	M	N	M	M	8	1	shapes	A	1	False	115	(-2.3378966633928453, 6.9481818466265697)	(5.2553159555905857, -7.7402071463817181)	(-6.9856741816899479, 8.7400610604507136)	(0.31953237801290513, -5.0650807943973888)	1.0	slash	2.41321
12	N	B	A	N					B	4	2	shapes	A	1	False	115	(-0.49187427021349528, -7.8283514921847903)	(5.3797473097394111, 4.2588928441514575)	(3.3968579275930377, -5.0605132360415848)	(-0.3112435309270758, 7.2476733835855747)	1.0	z	1.55481
13	N	A	B	M	N	M	B	A	N	8	0	shapes	N	1	True	115	(6.3379730328456514, -2.5954081643842217)	(4.4084104985188581, 4.5173455473085795)	(0.48895811563280311, -5.1413577324986992)	(-5.5997320910123562, 0.56082717537134918)	1.0	z	1.48052
14	M	B	M	B					A	4	2	shapes	M	1	False	115	(1.7439878207876447, 3.4797268214989909)	(-3.8310001291571973, -3.9855285459971119)	(-5.2497857348186336, 2.9614338979768959)	(6.7216246969582194, -5.1060690544139558)	1.0	slash	2.266
15	M	A	B	A					A	4	1	shapes	A	1	True	115	(5.0457416115519376, -1.0251437500581497)	(-4.2143020088899652, 3.1060762399523423)	(-4.5049962503103931, -3.6099384099685095)	(5.8745866349362323, 6.7369088767277781)	1.0	z	0.991364
16	N	A	B	A					B	4	3	shapes	A	1	False	115	(5.9027214148124187, 3.4774401910276822)	(-7.4310991828872677, -6.0466180283203412)	(8.1528558743755859, -3.670144822308286)	(-8.0537579428571675, 2.3399768064839499)	1.0	slash	2.21922
17	M	A	A	M	B	B	N	N	M	8	4	shapes	B	1	False	115	(1.1348686589435264, -1.1920001707595436)	(7.8795867509315585, 3.3030697140306025)	(-7.5406002530666969, 4.2569889968161903)	(5.7950664601290995, -5.8907234617840212)	1.0	slash	1.541
18	M	A	M	A					B	4	2	shapes	M	1	False	115	(-5.6641338926602618, -1.0054974969319561)	(-4.9802850999433783, 7.3477558507569789)	(2.3268832624923377, -6.4546535198542152)	(1.755813594574386, 4.3762606728358584)	1.0	slash	1.41823
19	N	A	N	M					N	4	2	shapes	N	1	True	115	(-5.1135755440690502, -8.0865424784808493)	(-2.0984364403772888, 2.1348885321651849)	(0.59113655564590317, -2.7782390606269525)	(4.7242706439702129, 8.6171371709694107)	1.0	z	2.2079
20	M	A	A	B	M	N	N	B	A	8	1	shapes	A	1	True	115	(6.9065441310926765, 4.3117773103348824)	(7.3367124431977828, -2.2506672766525853)	(4.6017451432452194, -5.7192727136261849)	(0.13986944685395741, 1.502982642772869)	1.0	slash	1.21954
21	M	B	M	B					N	4	3	shapes	B	1	False	115	(-0.38037186318213223, 2.3996190976407945)	(3.7448366041541057, 3.8383012363113185)	(8.2513171668605665, -8.5040404947274499)	(-0.65598825636451608, -5.7771028166211211)	1.0	slash	1.17713
22	N	A	B	B					B	4	3	shapes	B	1	True	115	(2.0595802261318212, 8.6534083432938864)	(-6.5671610659432513, 2.7287480389082148)	(2.680938235306721, -3.4549533677923856)	(-1.9431704552253848, -0.83680612161993118)	1.0	z	2.15095
23	N	B	B	A					N	4	0	shapes	N	1	True	115	(6.03335635889953, -6.6815255534293083)	(3.1639401930506548, 1.3662887848316601)	(-7.0730438400201994, 5.1854910450328831)	(-4.1781950200675313, -7.1192349394107168)	1.0	z	1.35422
24	M	B	N	A	M	B	N	A	A	8	7	shapes	A	1	True	115	(-6.5320187716929992, -3.3756320844140184)	(2.1186571429506333, 0.42268408542123481)	(1.5129810008887734, 5.7787324074965642)	(-7.202997746879344, 8.3915394310262776)	1.0	slash	1.0518
25	M	B	B	A	A	N	M	N	N	8	6	shapes	M	1	False	115	(-1.9137556362215076, -4.9996016414075379)	(0.80958498570523574, 5.5471347179263546)	(-5.8284289687484598, 0.013895594672840517)	(-1.008010566939606, 0.35946610762688636)	1.0	slash	1.09146
26	M	A	A	M	B	N	N	B	N	8	0	shapes	M	1	False	115	(8.6668796886381756, 4.4202928202727918)	(3.1517221448043795, -3.2043347033910416)	(-4.2072810462975045, -5.5138368492147896)	(-4.4936098130480451, 2.8769894721354436)	1.0	z	1.26698
27	M	B	N	A	N	B	A	M	B	8	0	shapes	M	1	False	115	(-3.7118762503297447, -7.3297883356050519)	(5.6597018333904163, -8.294481961783017)	(3.9753635311382727, 8.2202130105407072)	(5.9148643637661884, -0.39284834447101602)	1.0	slash	2.11461
28	N	A	M	N	B	M	B	A	M	8	0	shapes	N	1	False	115	(-2.7890523805589655, -1.7282787241818367)	(0.40840815089327442, 5.5580008997621047)	(-2.3391742968907385, -7.4782315636069612)	(-7.8287722377484412, 5.8253792201622243)	1.0	slash	1.5123
29	N	B	N	A					B	4	3	shapes	A	1	False	115	(4.0579557438787806, -5.560416449416568)	(-2.8543020103694605, 7.9295439417123745)	(-0.044590311275518602, -7.1336078678498458)	(0.82434205342298483, 5.3470353079760695)	1.0	slash	2.084
30	N	A	M	N					N	4	3	shapes	N	1	True	115	(7.2903579870686599, -3.0638707323134522)	(-0.6588542631382488, -1.4604062923508661)	(-7.8053017644008555, 3.7223658289350361)	(6.8200448103196933, 5.1938162943064938)	1.0	z	1.7653
31	M	B	N	M					N	4	1	shapes	B	1	False	115	(2.5211753375073833, 6.6061425880309166)	(-7.3586353331013461, 5.0198316040002364)	(-2.8940032870386201, -7.7080332868203083)	(3.6411384969768186, -7.3071242806543131)	1.0	slash	1.22311
32	N	B	A	M					N	4	0	shapes	N	1	True	115	(-7.3051987422853788, 3.6254557032988153)	(-3.926806576114048, -5.2843431332064732)	(4.2422309178336377, 7.3514192299853569)	(2.1693213284240649, -3.798021853222644)	1.0	z	1.03676
1	N	B	N	B	M	A	A	M	N	8	5	shapes	A	2	False	115	(-1.2846148900067886, -7.2576003436815668)	(5.0005969330413738, -2.0702416971008208)	(-0.89772277406496226, 7.4665510951298337)	(-0.22374993297012047, -2.5316689247134301)	1.0	slash	1.1802
2	M	B	M	N					A	4	2	shapes	M	2	False	115	(5.1595090112256692, -1.6927890518255282)	(-1.5795205384993469, -2.2508154144126147)	(4.2025892237604587, 2.3132519775824854)	(-2.0623490118344012, 2.5015241817016953)	1.0	slash	1.27384
3	N	A	N	M					M	4	2	shapes	N	2	False	115	(2.0701150825588961, -7.5144597135210729)	(3.7962341535075392, 4.0705746090692667)	(-1.8114079430368646, -6.1197603223468668)	(-2.767087283782887, 4.2011233726204082)	1.0	slash	1.38943
4	M	A	B	B	M	A	N	N	B	8	7	shapes	N	2	False	115	(-1.223767836064785, -0.96797000319558002)	(-3.645486863762831, -7.6674450097135329)	(8.4963229449200881, 0.59187836641416069)	(8.2176131917051514, 7.4458091655258443)	1.0	slash	1.01329
5	M	A	M	N					B	4	3	shapes	N	2	False	115	(5.2577992766823165, -6.5278534066540796)	(-6.9450543580526327, 7.7259630085186828)	(2.8993825621746261, 5.385039741306672)	(-2.6219924794410341, -1.3341664474024002)	1.0	slash	0.868263
6	N	B	B	A					N	4	0	shapes	N	2	True	115	(-6.0700783304435362, 7.7605510239727629)	(4.9813050926671316, -7.7868232872495042)	(0.097193070553975858, 7.9398732205510356)	(-1.8478111022687971, -5.660447382985188)	1.0	z	1.17639
7	N	A	B	M					B	4	1	shapes	A	2	False	115	(-6.9663070283615127, 6.1046902022389453)	(3.7389382064162895, 1.8858728026568041)	(-8.3957685278643623, -6.2021186860156901)	(4.3363588402336397, -7.3271651363581469)	1.0	slash	1.28
8	N	A	A	M	M	B	B	N	M	8	7	shapes	N	2	False	115	(7.5019976505265085, -3.4741623444562739)	(-1.3975443417249851, -6.2417594622239605)	(-4.8281330189967395, 7.3615603058221488)	(7.083292504165291, 8.6630437112656473)	1.0	slash	1.15777
9	M	A	N	N	M	B	A	B	N	8	5	shapes	B	2	False	115	(3.1850846456510862, 5.749918512910039)	(-2.9228973872107993, 2.8925177747827213)	(-0.34622457562783993, -3.0057749779022629)	(-8.7480180068929663, 6.9911478196229737)	1.0	z	1.6673
10	M	A	B	M					M	4	0	shapes	M	2	True	115	(8.0361804269089632, -4.5694368455477203)	(-4.6283722967177159, 8.7029326075778108)	(-3.7377880665151029, -2.4602353690679069)	(3.5010591654053176, 5.9975710392330512)	1.0	z	1.51886
11	M	A	N	N	M	B	B	A	N	8	3	shapes	N	2	True	115	(8.7036128974856553, 8.3093253458679648)	(6.2803421185836807, -7.2174460772142783)	(-5.7253600489287653, 5.2438344280983333)	(-8.2524152603395162, -0.8159824191183418)	1.0	slash	1.2286
12	N	A	N	B					B	4	0	shapes	N	2	False	115	(4.2287664011384383, -2.2020474014499571)	(-8.4429960731806482, 4.2424846279696258)	(8.2215627788276997, 6.1716522318443658)	(-0.39299755896446165, -7.6166295622119176)	1.0	slash	0.976063
13	N	A	B	M	A	B	N	M	N	8	4	shapes	A	2	False	115	(0.47731196609072768, -3.5809209902891137)	(0.74255457275324943, 5.5423693762035384)	(-7.7533068879687415, -4.6533332150157358)	(-6.664805153732333, 6.9607040872964046)	1.0	slash	1.50371
14	N	A	N	M	M	A	B	B	B	8	7	shapes	B	2	True	115	(-2.9284875819605496, 3.441634824318486)	(1.3870282858175731, -4.7584688380881532)	(7.1072951777071864, 3.8620860304667044)	(-5.4742476416284811, 8.1649523337010628)	1.0	slash	0.744967
15	M	B	N	B	M	N	A	A	N	8	4	shapes	M	2	False	115	(6.3214121580457405, -4.3184678361756372)	(-8.5764622024915838, -6.0873797696667058)	(3.7200506762611774, 7.0491110003532231)	(-2.5053344163888589, -8.5863988872243873)	1.0	slash	0.84686
16	M	B	N	A	M	A	B	N	B	8	1	shapes	B	2	True	115	(-5.6821550893378605, -4.1444435410982905)	(-0.29410891019783847, 8.4659336650753794)	(-6.8609331390706849, 8.0903864250121629)	(5.3903207379727522, 2.5909452526395036)	1.0	slash	1.49072
17	M	A	A	N	N	M	B	B	N	8	4	shapes	N	2	True	115	(-0.44884646347770385, -7.2135327746718492)	(1.5864972366735426, 5.9593370832938515)	(-5.2631716978425507, -5.8570515297767418)	(3.459156219841045, -1.1102489860314257)	1.0	slash	1.70787
18	N	A	B	N					A	4	1	shapes	A	2	True	115	(-8.3878342562303434, 1.6595964926541455)	(-6.6986555647710579, -7.4182139479154037)	(5.6672329683028178, 0.98133238137920209)	(4.9249872799246699, -3.5464054937660903)	1.0	slash	2.09574
19	N	A	N	B	B	A	M	M	B	8	4	shapes	B	2	True	115	(7.5574441342051379, 0.63028301156251842)	(8.5636711076827972, -7.2230907233498867)	(4.7017801024861523, 5.6722245749088156)	(-5.4796611367422923, -2.9869662462750215)	1.0	z	1.56942
20	M	A	A	B					A	4	0	shapes	M	2	False	115	(-4.09173785446617, -7.1322033786510985)	(8.3033125059620794, 7.8456336780770854)	(-8.6700950188737611, 3.7408578155107381)	(2.6127628958831615, -5.7986018514478008)	1.0	slash	0.985009
21	N	A	B	A	M	N	B	M	N	8	6	shapes	B	2	False	115	(-1.9671772975005952, -3.6501597762499323)	(2.1813125983087716, -3.628676199373805)	(6.7959172337575566, -7.2734254716864069)	(-6.9383138459061389, 6.8369188261891445)	1.0	slash	1.13657
22	M	A	B	B	A	N	N	M	A	8	4	shapes	A	2	True	115	(2.9972466014467152, -5.6839835298356105)	(4.7279640821960474, -1.1226975445869307)	(-3.3139932528570792, -1.6445040512733922)	(5.241074955008644, 6.3293784366876746)	1.0	slash	1.25019
23	N	B	B	N					A	4	1	shapes	B	2	False	115	(-3.6752237971078872, 3.7356151314103698)	(-8.3956957961060841, -5.3022192128281729)	(4.3364633410575273, -7.4678896386820437)	(6.0289706195656638, 4.2870579179866812)	1.0	z	1.76173
24	M	A	B	M	A	B	N	N	N	8	7	shapes	N	2	True	115	(4.9438688988709583, -3.1218843762976602)	(5.6311384168926359, 3.8650389409661514)	(-1.5953623316358598, -2.6724569290402149)	(2.1981805357416686, 0.67770238019796381)	1.0	slash	1.28536
25	M	A	M	N					M	4	2	shapes	M	2	True	115	(0.056011950740014527, 4.6484701379681503)	(-5.4885564860943772, 8.1689347083327881)	(-1.9262824778573169, -2.2413287428445505)	(4.5974970797462458, -6.3498229695851194)	1.0	slash	1.29502
26	M	A	M	A	N	B	B	N	M	8	6	shapes	B	2	False	115	(6.0741157634438547, -1.1094879766988202)	(-3.9830712474119885, -3.1059232924448352)	(-7.3865276590814233, -7.254547516585605)	(-6.5980729952216652, 4.0387113876169334)	1.0	slash	1.23274
27	N	A	A	B					N	4	3	shapes	B	2	False	115	(1.5455676394718374, -7.2219323996439506)	(3.0978490746723164, 4.6136402402343002)	(-3.716424741448134, -6.234955430277239)	(-7.6086520054707263, 3.4402070678470249)	1.0	slash	1.20431
28	N	B	N	M					M	4	3	shapes	M	2	True	115	(2.1995656485563568, 1.311463875103124)	(-7.499603557867613, -6.6576098699170334)	(-0.63319398966098461, 6.6063393788640425)	(7.1080978686157685, -2.4538962490347833)	1.0	z	1.26974
29	M	A	A	N					N	4	3	shapes	N	2	True	115	(-2.8495766164038603, 2.9013536091973151)	(3.5172380094465616, -6.7363724131350047)	(-5.1209213491365322, -4.4106718340301532)	(7.9024160770146104, 6.1304278999884687)	1.0	z	1.39342
30	M	B	N	M	N	A	B	A	N	8	4	shapes	N	2	True	115	(1.1430483526245858, 7.6847068006820294)	(1.2044385415019097, 2.3002780406896584)	(-6.4483615076579541, 0.23281624248599719)	(-7.8081545234235357, -7.1492410326956026)	1.0	slash	1.47714
31	N	A	M	A					A	4	1	shapes	A	2	True	115	(2.6112716417662725, -8.6844182574038733)	(-5.3555644173877965, -3.7002937897773469)	(-5.6108791834971861, 8.709910919003466)	(7.4641342469051324, 3.4778801360559992)	1.0	z	1.39272
32	N	B	B	N					B	4	1	shapes	B	2	True	115	(-3.6451889348446063, 3.159064442612717)	(2.737501694621697, 7.5193640270479492)	(7.9833712960556547, -8.2833743223221354)	(-5.5637619641881972, -7.4694930662806822)	1.0	z	1.89237
1	N	B	A	M					B	4	3	shapes	M	3	False	115	(-4.8504398901339014, 0.30640565173943912)	(8.6507683624675025, -1.0907946974075466)	(2.6159580997237661, 5.0230104673260279)	(-2.365596540271218, -7.3513352711107238)	1.0	slash	1.18985
2	M	B	M	A	B	A	N	N	N	8	7	shapes	N	3	True	115	(-8.2082549287563076, 0.49573262468645574)	(1.9950576889617917, -7.2029659151975807)	(-4.479718631271993, 7.5694076148058187)	(7.3556002678455208, -6.854528814442773)	1.0	slash	1.23752
3	M	B	B	A					A	4	3	shapes	A	3	True	115	(5.0520426383467605, -2.5453704128067205)	(-8.1164265984174495, 1.4844720798767028)	(2.7422671311004319, 2.5454005771392048)	(-5.7562730165584686, -3.7327798074508705)	1.0	z	1.18304
4	N	B	B	N	A	M	M	A	A	8	6	shapes	M	3	False	115	(-2.2238881670192567, -6.6751154424838681)	(-1.2430787756441228, 0.95720594946490145)	(5.9841578159972943, -6.7344650646194761)	(3.7139542831351733, 8.4812543869293577)	1.0	slash	1.17481
5	M	A	B	B	A	N	N	M	A	8	5	shapes	N	3	False	115	(-2.0595933256951513, 5.7728114275639228)	(5.3821591543721929, -5.0716354549621379)	(-7.1187557830133308, 6.7801685611294378)	(-0.91224007092570059, -7.3006111387547712)	1.0	slash	1.53638
6	N	A	M	N					A	4	1	shapes	A	3	True	115	(-2.2581996036543073, -0.41405899225941489)	(6.8265666697607728, 0.70427651398000179)	(6.8093607507910594, -8.7485107282222057)	(-2.3583020076183399, 6.8944113136115366)	1.0	z	1.18403
7	M	A	B	A	N	N	B	M	M	8	0	shapes	M	3	True	115	(1.7848203759422301, -1.2134446333593329)	(-5.6322049809634791, 1.880729213902983)	(-5.8254831814421415, -8.1143422009775161)	(-3.0963954408538452, 7.4748144076120902)	1.0	z	2.03166
8	N	B	A	A	B	M	M	N	A	8	2	shapes	A	3	True	115	(7.6001623800916498, -0.7793389488294924)	(-6.0568043698164997, 8.6789348225920229)	(0.065582235011612866, 6.7678302611027679)	(0.7478840990386928, -6.1866090413812653)	1.0	z	1.40514
9	N	A	A	B					N	4	3	shapes	B	3	False	115	(7.8408300795355501, 8.7436677826287053)	(4.7648566686597391, -4.3840073301382869)	(-3.009680850406089, -3.1037082803002569)	(-0.60185807924426449, 0.14418629693043883)	1.0	slash	1.0388
10	M	B	N	A					A	4	3	shapes	A	3	True	115	(5.2271455005412619, 3.6677774904305398)	(-7.9811816056238793, 4.1374045678219584)	(-3.9570204667983084, -5.2203688846290079)	(2.6951340114223594, -2.8456798458250185)	1.0	z	1.16035
11	N	B	M	A					M	4	0	shapes	N	3	False	115	(4.9475322278366036, 0.21298154386336599)	(-2.5009931007211588, 8.6293653911028692)	(-0.12734250754798992, -6.0771551464923803)	(6.1901796883033704, -4.2298249974870989)	1.0	slash	1.16993
12	M	B	A	N	N	B	M	A	A	8	7	shapes	A	3	True	115	(4.006487024631566, 2.0785260899928453)	(0.47492546707247207, -3.6305942251486316)	(-0.90605000241992339, 3.5551959355392366)	(-6.8538297847988527, -5.5826407725123595)	1.0	slash	1.60368
13	M	A	M	B					B	4	3	shapes	B	3	True	115	(-3.6874795843111547, -4.3308581860328754)	(6.1201245029393156, -3.1173628637510937)	(-0.7073159304970229, 7.6371807762188446)	(7.0909378015117372, 8.2223129131273787)	1.0	z	1.19718
14	M	B	N	N	M	B	A	A	M	8	0	shapes	M	3	True	115	(4.2964957044767011, -4.4921378800423097)	(-3.2734631516191071, 2.3716030226998583)	(6.755216125816375, 4.2965497761484528)	(1.1901788587038808, 2.9689890425833809)	1.0	z	1.21858
15	M	B	A	B					M	4	2	shapes	A	3	False	115	(-7.5776167229254092, 1.0527697266482789)	(6.1069718110191999, 5.2476302058122677)	(-6.2319130908225002, -7.2047550597344756)	(2.4628699856865897, -7.2229088469595482)	1.0	slash	1.16027
16	N	A	A	N					A	4	2	shapes	A	3	True	115	(7.1457325963838567, 1.7964880299995656)	(-8.6607651833542487, -2.469996297603851)	(-3.0165851952445104, 4.9232295169421381)	(0.26593429388645617, -1.4279115889987626)	1.0	z	1.12019
17	M	A	N	B					M	4	0	shapes	M	3	True	115	(6.209658576449872, -4.2855205754004153)	(8.1707682380336664, 7.7374600880433526)	(-6.8210486890686752, 6.1891479942535312)	(-7.9184215976587593, -5.744989414931668)	1.0	z	1.11387
18	N	B	B	A					B	4	1	shapes	B	3	True	115	(-5.2394352459814861, 7.3725191099441965)	(4.1484087850186366, -3.7192468410288821)	(5.418801859517643, 2.6214494278483063)	(-4.005938197311421, -5.2731827607813528)	1.0	z	1.08546
19	M	B	N	B	N	A	A	M	B	8	3	shapes	B	3	True	115	(-5.0509652435461039, 5.1381182320673364)	(4.3486267917554695, -4.3702381819876255)	(-4.2596657046740027, -5.3484089712043943)	(8.6385246606163761, -5.1820277709103273)	1.0	z	3.87283
20	M	A	B	A	M	N	N	B	N	8	4	shapes	M	3	False	115	(1.5566077568627801, 2.6665510961012409)	(-4.2382065285394015, -5.430681305121273)	(7.5298207470626544, -0.52762149472821207)	(-4.8041588238638653, 6.560008342909093)	1.0	z	2.67641
21	M	B	N	M					A	4	2	shapes	N	3	False	115	(-4.4976305059653736, -3.8247678209071481)	(0.45716071055721308, -5.1060344940613005)	(-1.9818463760559215, 7.6503998163367974)	(3.124871847025176, 7.6717940396119602)	1.0	slash	2.27189
22	N	B	A	M	B	M	N	A	A	8	2	shapes	A	3	True	115	(3.3659109612582228, -0.87187660198908734)	(4.5692944874365349, -6.2038270097904267)	(0.57799788461928436, 3.7363888910853369)	(5.019358599032584, 8.3936099104779345)	1.0	slash	2.38741
23	N	A	N	B	M	B	A	M	A	8	0	shapes	N	3	False	115	(-2.6944048155442362, -3.9598908936035677)	(-4.0051124896412542, 6.7532338148501818)	(-5.6833967825140164, -7.9508488976228548)	(0.72518911021863985, 1.1789372300615533)	1.0	slash	1.43294
24	N	A	M	A	M	B	N	B	N	8	4	shapes	M	3	False	115	(-2.7952088066866034, 7.3979201493995816)	(7.2886884460613146, -7.9067012518536561)	(-1.6117688212481918, 2.2664214647791017)	(3.7706379636581051, 7.226864089446293)	1.0	slash	1.40656
25	M	A	A	M					M	4	0	shapes	M	3	True	115	(3.9227875180632275, -0.40636707496736868)	(-0.59225883984132821, -7.0920303644119693)	(-5.6465901372841261, 1.9289983382722529)	(5.0897995549430224, 6.7653639121432985)	1.0	z	1.112
26	M	B	M	A					B	4	2	shapes	M	3	False	115	(1.7161592461361508, 7.7275841772242728)	(-8.5930162959718714, 8.4145961156550904)	(-8.6287966191366294, -4.119062998619178)	(6.5831360019217726, -5.6450769187777148)	1.0	slash	1.0919
27	N	B	N	M	M	A	B	A	A	8	2	shapes	N	3	False	115	(0.51834313062684778, -1.844496299783839)	(-6.9343135596194978, 6.0944616579612756)	(-0.09036532012834364, 4.6058961180068856)	(1.3040779855493074, -7.1537673640110491)	1.0	slash	1.22159
28	N	A	B	M	N	B	A	M	B	8	6	shapes	A	3	False	115	(6.6474249104874854, -3.1147507642209487)	(1.4348382320583664, 0.34022400579048906)	(7.1585056933248072, 8.1367028585860695)	(-2.079881703527545, -4.7261722196362399)	1.0	slash	1.10918
29	N	B	A	A	B	N	M	M	M	8	0	shapes	N	3	False	115	(-1.9638782518399989, 2.0492363849361315)	(-2.8811778108456805, -2.0043445893766849)	(7.2618872298268577, -3.2851270403743902)	(2.0585076366024744, 1.6513176295663765)	1.0	slash	1.18872
30	N	B	N	B					N	4	3	shapes	B	3	False	115	(6.6453476327406591, 0.67220732066752653)	(-4.0394575303172369, -6.2061187603855537)	(-8.4105116025382465, 1.0158742309983833)	(0.11068573029010942, -2.966643270110648)	1.0	slash	1.03232
31	M	A	M	B	N	B	N	A	M	8	0	shapes	M	3	True	115	(4.1518318990964094, -3.124340899980524)	(-4.1270133144553292, -7.7984017299560326)	(-5.8608192072167924, 0.67601968990171457)	(-8.3325492969864214, -8.2883372571531577)	1.0	z	1.23004
32	M	B	B	A					N	4	0	shapes	M	3	False	115	(1.4402748653750042, -7.0023301019740867)	(-3.8391760295138013, -2.8920783091408406)	(-7.6193545966755716, 8.3659207890325753)	(5.9134088716569373, 8.0287763614549412)	1.0	slash	2.72951
1	M	A	M	N					A	4	2	shapes	M	4	False	115	(-7.8558470946837513, 6.7119575810726193)	(0.15778446420753944, 0.33664418670707619)	(3.7200330121104397, -8.517186552539723)	(-1.8006973767266281, -7.1862760859325112)	1.0	slash	1.08101
2	M	B	N	B					B	4	0	shapes	M	4	False	115	(-8.7445544749990294, -7.2113710669153308)	(7.4133584397122583, -5.2847328244792671)	(-4.8243713478233516, 1.1489191567235792)	(2.0414970937209169, 1.9585778132624014)	1.0	slash	1.13883
3	N	A	M	A	N	B	B	M	M	8	0	shapes	N	4	False	115	(6.21058521486923, 8.6798908680550539)	(-4.4164095491667421, 6.2542876280884165)	(-7.1105259812268873, -6.8590922123650575)	(6.3383914276211666, -2.5583083744325679)	1.0	slash	1.13018
4	N	B	N	B					B	4	3	shapes	B	4	True	115	(0.5328095205242569, -3.2758221499173192)	(-6.9801229120957746, -3.1088929132820446)	(-5.4354453673578105, 8.106368729444938)	(2.5535524156355791, 7.9558557931994258)	1.0	z	1.24212
5	M	B	M	B	N	A	N	A	M	8	0	shapes	M	4	True	115	(-4.9047260666114747, -0.57358915410934408)	(-1.5010861607432275, -5.2298934960875894)	(3.7392202529557323, -2.3855324360830403)	(0.51095350400171391, 6.873655224173854)	1.0	slash	1.45157
6	M	B	B	M					B	4	1	shapes	B	4	True	115	(4.9232656005440898, -2.6548114362467379)	(-5.7587193005174395, -4.0719067438127556)	(5.4551363495594742, 5.8826568453841492)	(-4.6997577088774012, 5.05888654628993)	1.0	slash	1.06723
7	N	A	N	M					N	4	0	shapes	N	4	True	115	(-2.6079516914764662, -7.8004756391072423)	(7.7776619705827059, -1.2265993105536488)	(8.4822186800563379, 8.4559434647367944)	(-3.3182573198249399, 4.030147330696721)	1.0	z	1.53677
8	N	B	N	B	A	M	M	A	A	8	7	shapes	A	4	True	115	(-0.68269403369551718, 4.3532051113765977)	(0.87427976453918355, -4.3605646055000671)	(-7.5455133568430481, 7.1112246687692)	(-5.9408187618790604, -1.5212412118085794)	1.0	slash	1.27238
9	M	A	M	B	N	B	A	N	B	8	5	shapes	B	4	True	115	(4.7014303231154564, -4.5229628732909077)	(-1.1359758641734885, 8.30949980579814)	(7.1947241101324373, 8.3915163859256126)	(-2.2908602823747488, 2.5402958140867682)	1.0	slash	0.99799
10	N	A	A	M	N	M	B	B	B	8	0	shapes	N	4	False	115	(2.7031541621259088, -7.2386071398333183)	(4.0718854409661986, 7.7491107815525098)	(6.5311041388835207, 0.44747343449782839)	(-8.7026512668978775, -7.2954556547384382)	1.0	slash	0.987445
11	M	A	N	N	M	B	B	A	M	8	2	shapes	N	4	False	115	(-3.0931328819392387, 1.5697314201955734)	(-2.7095038449772071, -6.8014633974588792)	(-3.8390918851667104, 8.7356714654897267)	(1.8902555235718452, 7.7257678242694077)	1.0	z	1.8172
12	M	B	M	B	A	A	N	N	N	8	6	shapes	N	4	True	115	(8.5602933743376362, -3.7925769418324338)	(8.323729450318222, 0.54569076713046805)	(0.18330183715622717, 7.043148153562063)	(-0.44636919514921125, -2.5874762349351137)	1.0	slash	2.51476
13	M	B	M	B	A	A	N	N	B	8	7	shapes	N	4	False	115	(-0.83061784868713318, 0.075489191783345788)	(-6.1079560134749551, -1.8286932478471645)	(3.7434635651258645, -7.3127848382682838)	(-0.44155089819616755, 6.8141841437825832)	1.0	slash	1.72851
14	M	A	B	N	A	B	M	N	N	8	2	shapes	B	4	False	115	(1.2011822935134386, 8.0456843515644749)	(2.5100888831219326, -3.4369981099487985)	(8.0337355141238476, -2.1942637931037137)	(4.7732668788600172, 3.2255221966566285)	1.0	slash	0.986009
15	M	B	B	N	A	M	N	A	B	8	3	shapes	N	4	False	115	(-0.90472059621045009, 7.7756542276496141)	(-1.1023954471743265, -8.1487953316683939)	(7.5791660753538963, 6.9492576528617107)	(5.2720709827462038, -3.9923252853070244)	1.0	slash	1.04744
16	M	B	B	N					B	4	3	shapes	N	4	False	115	(-3.9936559847335458, -7.0815935503210534)	(-0.31948918231438839, 3.5424066694362892)	(5.0501742392462852, 3.4224266868765376)	(1.6596123108729124, -0.11178227080853276)	1.0	slash	1.03935
17	N	B	B	N	M	A	A	M	B	8	2	shapes	B	4	True	115	(6.2852376396397123, 7.230265342828762)	(-2.2079945513500405, 1.640423171688365)	(-0.92788995925132056, 5.6457633109183547)	(2.6796109769988306, 0.84013724591637207)	1.0	slash	1.11685
18	N	A	A	N					M	4	0	shapes	N	4	False	115	(-8.3493053117672726, 7.9650595026376436)	(2.1822892528959432, 3.6492736280253464)	(8.3924996089036199, -7.2106967294045807)	(-5.0508144049030674, -4.9404599391592026)	1.0	z	1.40054
19	M	A	M	B	B	A	N	N	M	8	0	shapes	M	4	True	115	(2.0280162618765019, 8.5138646804520448)	(-1.0126835561067526, -5.2626021275644064)	(-6.8538515479814146, -2.3588374268883472)	(5.7595844631711746, 2.5153537261385068)	1.0	z	1.18817
20	N	B	B	A					A	4	1	shapes	B	4	False	115	(-0.10280349458653326, 1.4658700221565937)	(3.4522952038802117, 4.2222174915547779)	(-4.7969076465643603, -4.4319206551153689)	(3.3096964611871922, -7.3344584913442681)	1.0	slash	1.11184
21	N	A	B	M					N	4	3	shapes	M	4	False	115	(6.1417810079597697, 0.81270962117706524)	(-7.8939975389983275, -7.6609239811917185)	(-7.9010524137276477, 8.0516681156600001)	(5.2423727412875589, -7.3281265054102329)	1.0	z	1.41922
22	N	B	A	B	A	N	M	M	N	8	0	shapes	N	4	True	115	(-4.9384935178141216, -5.8038430277692257)	(4.9699074203048426, 6.6755607001686688)	(-8.2941031510066878, 6.2774212935337221)	(-1.3090235485756949, 7.7957402836208338)	1.0	slash	1.25285
23	N	B	M	A					M	4	2	shapes	M	4	True	115	(-4.6910629665661849, -1.351426907359647)	(0.67804466953496956, -8.3711081777093028)	(-2.2781142989086387, 4.690114600637239)	(7.9699408346559117, 7.5711949414301891)	1.0	z	1.17267
24	M	B	N	N	B	M	A	A	A	8	0	shapes	M	4	False	115	(2.3919534421840254, 6.1299564423102701)	(-2.1208843543111433, -0.77960805085791929)	(6.2764572516907204, 1.3469176485528305)	(-5.4978966996815171, -8.5810000779748279)	1.0	slash	0.966077
25	N	B	B	A					N	4	0	shapes	N	4	True	115	(3.2187903580652417, 8.1351477559143781)	(-3.8633173477594625, -4.3345763012245788)	(-5.7170948792402019, 7.1678815452748594)	(1.2932709777060332, -3.9586308525703098)	1.0	z	1.07774
26	N	B	N	M					M	4	3	shapes	M	4	True	115	(-5.9183535423888616, 1.0252713997450886)	(7.6322434280334939, 7.8170545917334131)	(2.1330644357850055, -5.1713862994759427)	(-7.5352987911035978, -7.6909902019977583)	1.0	z	1.72945
27	M	A	B	N	A	M	N	B	A	8	1	shapes	A	4	True	115	(6.4737362060413712, 1.5450150871755071)	(2.0857617443185799, -7.4419856871704724)	(-6.4029575099777913, -3.8327994411140427)	(3.3510231385379967, -3.0062950928970364)	1.0	slash	1.50699
28	N	B	A	B					B	4	3	shapes	B	4	True	115	(-7.7388135841803471, -2.6674740258191516)	(-2.8574514304078109, 4.9551341580896491)	(3.2198796258102558, 6.3712191449764877)	(5.9348622174548407, -1.2114573636991297)	1.0	slash	0.9208
29	M	A	B	N					A	4	1	shapes	A	4	True	115	(3.0949733472826857, -5.2446680380094772)	(7.0485415221395815, 7.5315370034658145)	(-2.3567336012092399, -7.7150129660473246)	(-0.88871134229242355, 1.9103817685058377)	1.0	slash	0.866392
30	M	B	A	B					N	4	0	shapes	M	4	False	115	(-3.297166209405491, -0.37244965476708458)	(6.0756855394771314, -3.6484704138516655)	(6.2580707040203407, 7.9004106876710836)	(-0.29705982954769183, 5.7693230491621783)	1.0	slash	1.89542
31	M	A	M	N	N	B	B	A	N	8	7	shapes	A	4	False	115	(5.6588859507496423, -1.5648814759253176)	(-4.7715770153969483, -2.3702504053286626)	(7.016243351101954, -8.5624860238664109)	(5.0240471685452022, 5.3542066342072552)	1.0	slash	0.953542
32	M	B	N	N					B	4	3	shapes	N	4	False	115	(5.0249663484737148, -7.3718450351495282)	(-7.224038057145588, 1.1979681955246022)	(-5.2898968447393173, -4.1387851817736996)	(1.6535591126589857, 5.0541685584340375)	1.0	slash	0.925227
1	N	A	N	M					A	4	1	shapes	A	5	True	115	(-0.48202914246511774, -0.96883288269685153)	(4.1737616536069737, 6.6357287728457663)	(6.1270437828649964, -3.9966077569448997)	(-7.7834205252858171, 1.2668059893952304)	1.0	z	2.16876
2	N	A	N	B	M	A	M	B	M	8	3	shapes	B	5	False	115	(-3.4763144516942202, 8.1314741024300616)	(6.5563360519818108, 0.90293079253799036)	(3.0468325216420844, 7.6632552363812181)	(2.61693721902048, -7.8224547532662703)	1.0	slash	1.77248
3	M	A	N	B					M	4	0	shapes	M	5	True	115	(-7.3092461609175938, 1.6988225754197241)	(-1.4528072506890446, -8.6989250569111132)	(5.6636218422394524, -5.6357388860204587)	(5.5395364138007874, 7.6508840262198525)	1.0	z	1.33993
4	M	B	N	A					M	4	0	shapes	M	5	True	115	(-3.4604601652965687, -6.1510828672824376)	(-8.1720472137141655, 8.6080730526055831)	(7.1187858325375402, -4.0117808884065793)	(6.4302763259219979, 4.6825706254689212)	1.0	z	0.961508
5	M	A	A	M					M	4	1	shapes	A	5	False	115	(1.7988778649204917, -8.4357606047140425)	(-2.1334194266642621, 0.15774829951210023)	(5.5342098626506928, 3.1449441417458939)	(-5.6628274186284706, -4.1912693882469405)	1.0	slash	0.786998
6	N	B	B	M					B	4	3	shapes	M	5	False	115	(-7.166526981336407, -0.97471829414761846)	(3.2895407923985029, -1.9217576797108222)	(0.75491573182100247, 6.8474996209324193)	(-7.4834735177949661, 3.1728605066852804)	1.0	z	0.07285
7	N	A	B	M					N	4	1	shapes	A	5	False	115	(8.1585058127838259, 2.7301557483825221)	(-4.8888498573481218, 5.4246867016357943)	(-8.680027079439105, -6.111337291689825)	(1.3116397216777855, -7.2601719624006513)	1.0	slash	0.820527
8	M	A	B	M					M	4	3	shapes	M	5	True	115	(5.9946815591939107, 3.5117430221860904)	(-4.7531793470941803, 4.7495829573889328)	(8.5295781411278035, -2.048031711107865)	(-7.8114443540393657, -2.3890077585224665)	1.0	z	1.01823
9	M	A	N	A					M	4	0	shapes	M	5	True	115	(6.0357474112029958, 1.3522006836178235)	(-6.0099718571167751, -1.9316923951503924)	(5.7020251426093118, -6.7635254767620614)	(-4.1466996884843699, 3.9175381537885556)	1.0	z	1.2798
10	N	B	B	N					B	4	0	shapes	N	5	False	115	(4.0718844816808435, 6.5979579085833819)	(-0.75298698670107633, -6.2871245805147495)	(-3.2266519397964926, 7.1227406653022527)	(5.6240539939130478, -8.5285967900891855)	1.0	slash	0.809447
11	N	B	N	A					A	4	3	shapes	A	5	True	115	(-8.2468527808265435, -7.3621520185554754)	(0.82461619621619953, -6.7813214922901395)	(6.644224352116618, 8.1481686071046511)	(-1.4731790759573613, 3.0706220760219676)	1.0	z	1.42508
12	N	B	N	M	A	M	B	A	B	8	2	shapes	N	5	False	115	(0.3998554383237849, 3.0766601658930437)	(7.6260428524075756, 5.0047472269705473)	(-7.6139790882007121, -7.4959575615160929)	(-6.0074203901063221, 1.9785928781639175)	1.0	slash	0.824848
13	N	B	N	M	B	A	A	M	B	8	4	shapes	B	5	True	115	(7.164882638515083, -4.4392624929181963)	(-0.45309161398782472, -6.7061587972137264)	(-8.23285359461185, 6.5583076067079791)	(-7.0116070158425172, -5.9143583694826889)	1.0	z	1.18243
14	M	A	M	N					A	4	1	shapes	A	5	True	115	(3.8029684293656629, 7.3538006870629786)	(-3.7267784335141219, 2.9469987444420553)	(8.1382354174306819, -7.4429820847118533)	(-0.54069685975946236, -8.2119181642069883)	1.0	z	1.02791
15	M	B	M	B	A	N	N	A	A	8	7	shapes	A	5	True	115	(3.9585520783679424, -6.944735920682632)	(8.391183168534976, 0.44688769834098707)	(0.89727950166023085, -2.6844623711579123)	(4.0238171935635574, 5.345158481866493)	1.0	slash	0.833729
16	N	B	M	M	B	N	A	A	N	8	2	shapes	M	5	False	115	(-3.843623648903713, 6.049447102959574)	(-5.2092446580299789, -4.3111142969990981)	(-0.83414456279736893, -5.35923344483147)	(3.7500152924782046, 2.3961775656183804)	1.0	slash	0.879374
17	M	A	M	N					M	4	0	shapes	M	5	True	115	(3.6691947403390994, 5.124598701682169)	(-1.4729529110606974, 1.1330036360290929)	(5.4084100799245185, -5.5333358574034897)	(-2.1066037827916242, -5.654189208017284)	1.0	z	0.937115
18	N	B	B	M	A	N	M	A	N	8	5	shapes	N	5	True	115	(4.8685678107905481, 4.4117233452696762)	(0.15579487601634057, 0.20636648411421632)	(-2.1070599996666664, 7.3373138713851951)	(0.33155218183644841, -7.781052099550581)	1.0	slash	1.04248
19	N	B	M	B					M	4	0	shapes	N	5	False	115	(6.8437019941778274, 1.6703905982807736)	(-5.8208475830065272, 6.2005640087017717)	(-0.69279482404533077, -0.66341410857283201)	(8.637611384999559, -2.89562783150991)	1.0	slash	1.0602
20	N	B	N	M	A	B	M	A	B	8	2	shapes	N	5	False	115	(-2.9116632619569653, 3.0550607027904491)	(3.2931685612734665, 6.5843024477692342)	(-4.0115313147446932, -7.9528716459219275)	(5.201677672095224, -5.3134674524818521)	1.0	slash	0.949804
21	M	B	A	B					B	4	2	shapes	A	5	False	115	(6.5382527102012311, 4.5064206818438475)	(5.4645242259154632, -2.003810789926205)	(-3.620491853052072, 5.8924483616988539)	(-5.8536747774253701, -0.09713713683944647)	1.0	z	0.88966
22	M	B	M	B	N	N	A	A	M	8	0	shapes	M	5	True	115	(3.5095857809845228, -5.1921222412537729)	(-0.57387338819587086, 1.0885927020184134)	(3.7928891422649773, 1.8486854602661378)	(-3.9487134394902279, -2.1242613677055928)	1.0	z	1.075
23	M	B	A	A	N	B	N	M	N	8	6	shapes	N	5	True	115	(-6.7238842001372081, 4.1835672625900759)	(2.2696413141109897, -1.5350309816862691)	(5.4490488629370137, 1.9030993368878875)	(-4.2741925975551815, -1.5071331444456417)	1.0	slash	0.880549
24	N	A	N	M	B	M	B	A	N	8	4	shapes	B	5	False	115	(1.9187993773987202, -3.2597226393083893)	(-8.2455911899036671, 5.2419130503852731)	(4.7658647808203902, 3.4676394999554141)	(0.43636221487003546, 1.238028232101394)	1.0	slash	0.996435
25	N	B	N	A	B	M	M	A	N	8	2	shapes	N	5	True	115	(4.9035563957061168, -0.51370493782867399)	(0.98891605676022643, 7.3305039299975761)	(-5.5280771909483679, -6.8131005291480129)	(2.1489300220425491, -8.3876783534468693)	1.0	slash	0.746142
26	N	A	M	N	B	B	A	M	M	8	1	shapes	A	5	False	115	(-6.0222545256741036, -3.8600755021278736)	(-1.7095839601215594, 7.8865585363779331)	(6.8843800597440357, -1.8019007625552881)	(0.76697816539062025, -6.7311379089057173)	1.0	slash	2.11363
27	M	A	M	A	N	B	N	B	M	8	0	shapes	M	5	True	115	(-3.5849794443223528, -2.1049902487264784)	(-6.660913201202705, -8.4542192109964081)	(6.9269585157161018, -5.8387743896331941)	(1.9688254436351063, 4.1102154082630165)	1.0	z	1.48907
28	N	A	N	M					A	4	2	shapes	N	5	False	115	(1.9823094951711742, -3.9276732966040431)	(-2.5718438496044156, 1.3306003741508103)	(-1.1948274001219996, -6.8640368184814342)	(3.0645198155376967, 7.6182493015864914)	1.0	z	0.840706
29	M	B	N	N	M	A	B	A	N	8	1	shapes	B	5	False	115	(4.1019941935569282, 7.6451316268457816)	(4.1203368476777449, -3.4998397123759446)	(1.6008604928336148, -0.11476742591086442)	(-7.239794311204296, -3.6987933368549069)	1.0	slash	0.87651
30	M	B	N	N					B	4	3	shapes	N	5	False	115	(-6.4330136920405554, -4.0936699193558743)	(0.78179656910806905, -6.812461994684087)	(-2.3503078109224713, 0.5818947044850642)	(8.6482566413016073, 8.5682289909830764)	1.0	slash	0.688162
31	M	A	B	A	N	N	B	M	M	8	7	shapes	M	5	True	115	(1.586846309877938, 0.42844312500646353)	(-6.9802331060838059, 1.5027417806012249)	(-1.4092772136907907, 3.5927283879408058)	(-7.7668016088004732, -2.4596643272013017)	1.0	slash	0.819874
32	N	A	N	A	B	M	M	B	A	8	7	shapes	B	5	False	115	(-0.96640673290503276, 1.3118680601750778)	(2.2739229148068141, -3.9089893193809928)	(7.6705169003009779, 5.6680034124404433)	(4.4839045010587366, -0.46990422589552239)	1.0	slash	0.725521
1	M	B	A	N	B	M	A	N	N	8	7	shapes	N	6	True	115	(-8.3477442903231225, 7.5678647355086461)	(6.5314936011449696, 7.5051228577007407)	(-6.1624204050918978, 0.57738112804573127)	(5.9146581505562992, -0.56336195455136107)	1.0	slash	0.707189
2	M	A	B	B	M	N	A	N	A	8	5	shapes	N	6	False	115	(-3.4955526710202589, -1.1182045133316354)	(-5.4675535717750439, -8.4962780894374301)	(0.31960840928303824, -7.83981597938992)	(4.7182591551285178, 4.4163516878883069)	1.0	slash	0.968825
3	N	B	N	A					B	4	2	shapes	N	6	False	115	(-5.0670894159169393, -3.2211902040594067)	(7.4696272163360966, -5.8909497673661972)	(-7.3871299611657326, 1.8900859308985236)	(5.4910802180828462, 6.5208996492179914)	1.0	slash	1.33641
4	N	A	M	A	B	B	M	N	N	8	6	shapes	M	6	False	115	(6.3560213186849985, 5.9868537748418884)	(5.5211484369843955, -1.7344900677822501)	(0.38738622939761491, 7.9754546512760029)	(-8.1487439679091711, 0.55640971581031096)	1.0	slash	1.27996
5	N	B	M	B					N	4	2	shapes	M	6	False	115	(-7.0833879163221596, 8.3180530846898613)	(0.98795829796409684, 3.2782187852427267)	(-8.4297563897909047, -7.3520048683583372)	(0.21547292889330372, -1.7576091298495413)	1.0	slash	0.713419
6	M	A	M	B	A	N	N	B	B	8	7	shapes	B	6	True	115	(-3.2255672976350347, -1.0937130079645172)	(0.64324127294607258, 8.2482879531371687)	(-3.5149942451982934, -8.3496924085737199)	(4.3831555569540264, 1.8462256588575876)	1.0	slash	0.83942
7	M	B	A	B	A	M	N	N	A	8	4	shapes	A	6	True	115	(-3.9288459072461048, 4.4880209476347197)	(-7.5141701301651498, -2.7452030249878314)	(5.1002110191780456, -7.9920795721399127)	(0.70911444886342601, 4.2071731808433501)	1.0	slash	0.859021
8	M	B	A	N	A	M	B	N	A	8	7	shapes	N	6	False	115	(-3.785254601351661, 0.47104569438370092)	(-3.0023099523997194, -4.8166305275670922)	(-7.5585666748063698, -3.1377112582468962)	(2.9070061262583717, 6.9850338476924225)	1.0	slash	0.642518
9	M	A	N	B					M	4	2	shapes	N	6	False	115	(7.418027440645492, 3.4727933036398628)	(-7.3900712250997538, 0.32781688298556411)	(7.8464551771837812, -1.5706174299603495)	(-5.948265272357796, -3.6216206038468037)	1.0	slash	1.49227
10	N	B	B	N	M	M	A	A	M	8	5	shapes	M	6	True	115	(-0.55203144756286449, 6.8992433222926532)	(0.54254839334171479, -1.7820523578623844)	(-6.9601070149336, 3.1303455796731452)	(-0.98535843015553759, -6.3066467364069183)	1.0	z	1.43794
11	N	B	A	A	B	N	M	M	N	8	1	shapes	B	6	False	115	(-1.8848455617655864, 0.41849678213038466)	(4.5072077697478417, 5.5432003675953343)	(-4.0290825504964687, -7.0002334430131059)	(2.6628825776563421, -1.6193602999516452)	1.0	slash	0.787518
12	N	B	A	M					N	4	0	shapes	N	6	True	115	(4.5697962016734621, 1.3418657073980427)	(-7.5054518023667907, 2.9955711988302944)	(-4.7424384666063881, -7.7727711625878637)	(2.8569055091171034, -4.5230298766632817)	1.0	z	1.17311
13	N	B	B	M					B	4	2	shapes	B	6	True	115	(6.9846716493812409, 0.44600967603542685)	(-6.0085832484976285, 4.530554239621992)	(-0.099696880410499844, -7.986664183153545)	(2.9313562579997807, -1.8548568064143858)	1.0	slash	1.14871
14	M	A	N	B	M	B	N	A	N	8	3	shapes	B	6	False	115	(2.7516057875160911, -6.3387057757375453)	(-5.3842113560078477, -5.7761378771426255)	(-3.6531467674254143, 1.547553440662444)	(7.8059269430541498, -4.2835062167761233)	1.0	slash	0.882464
15	M	A	B	N					N	4	3	shapes	N	6	True	115	(6.1294865944817936, -8.1147602918702031)	(-4.722499664191985, -6.607456785620812)	(-6.9964661999222679, 3.8544396632804894)	(6.1973033572149188, 0.54659342416633372)	1.0	slash	0.924117
16	M	B	M	B	A	A	N	N	B	8	3	shapes	B	6	True	115	(-4.1538806606170446, 3.3635164799988182)	(-6.3041050107631147, 8.0211474752469414)	(1.9036049417670071, -4.3710905429088047)	(5.1163649218442568, 8.0848253246358652)	1.0	slash	0.967769
17	M	B	A	M					M	4	3	shapes	M	6	True	115	(4.4658905027503302, -5.0737971060416704)	(-1.8287870729325855, 4.4287693730277891)	(-5.4648041252684596, -8.1465904321482014)	(4.5627834640045322, 3.934072924384699)	1.0	slash	0.799227
18	N	A	A	N					B	4	1	shapes	A	6	False	115	(4.6106230019898931, -2.971460388541411)	(5.3464714366721626, 4.5812275481193403)	(-2.7040544129581185, 7.6487093843110294)	(-7.1188452404035196, -1.2896981756441548)	1.0	slash	0.800982
19	N	B	M	M	A	B	A	N	M	8	1	shapes	B	6	False	115	(0.13251857940439393, 0.44606895814794889)	(-8.2771810695442429, 1.3681996118379605)	(0.83695130751595492, 4.5524939792030619)	(7.9256725067130489, -0.43361133032384558)	1.0	slash	0.910559
20	M	A	B	B	M	A	N	N	B	8	5	shapes	A	6	False	115	(-0.78599395016509366, -6.420950470704029)	(6.2580283420218326, -5.4845635526259322)	(6.1008556245553223, 6.7096580444214329)	(3.452051506480224, -1.0838534025554409)	1.0	slash	0.846334
21	M	A	B	N					M	4	1	shapes	A	6	False	115	(-7.4750548838201407, 0.36362753640366563)	(0.84638228239392532, 0.084976495431956067)	(0.92643822025621247, -6.0659803408180331)	(-3.3071042349784712, -3.0262969710887591)	1.0	slash	1.52786
22	M	B	M	A	B	N	N	A	B	8	4	shapes	B	6	True	115	(2.1412781923764825, 5.7015534637815186)	(-0.10131147868623458, -8.367478203482035)	(7.9685969808696768, -2.0600109384154264)	(-5.5747687567561908, -4.9353381254483732)	1.0	slash	1.09152
23	M	B	A	N					A	4	2	shapes	A	6	True	115	(3.9449986549650795, -2.8867389023253995)	(5.9902749589224236, 7.1253720671196792)	(-7.2057509902712029, 1.7441414117487941)	(-1.3081967956146139, -6.552754195013355)	1.0	slash	3.04316
24	M	A	N	N	A	M	B	B	N	8	2	shapes	N	6	True	115	(5.7112755372362134, 3.6694930908209891)	(2.0543279985975182, 6.3871497838249081)	(-6.158118018639164, -5.3182320733507638)	(1.9635135980302039, -3.707997138060751)	1.0	slash	1.09258
25	M	A	N	B					M	4	0	shapes	M	6	True	115	(-3.2566773236066338, 7.6161707023130454)	(5.3575073727769382, -6.5249717962689084)	(-3.494893191388984, -6.0885838242073742)	(1.7355817310932693, 1.8749396429234153)	1.0	z	1.32418
26	M	B	B	A	N	M	N	A	M	8	3	shapes	A	6	False	115	(-4.0726058533958645, -4.3096805262010083)	(3.2245952327413203, 7.7542314791712244)	(2.2242341260913499, 2.6732286017786961)	(-7.4996113233757189, -7.7987274301342477)	1.0	slash	1.34982
27	N	B	B	A					M	4	1	shapes	B	6	False	115	(-1.8615837752317823, 1.3197426260506884)	(4.0612744479983665, 7.7348122069228005)	(-8.6961883075411475, -8.4801705221855777)	(5.5009091597748725, -6.8260319494361452)	1.0	slash	1.07341
28	N	A	M	M					A	4	1	shapes	A	6	True	115	(-6.9453679729321163, -1.3543868371302539)	(-5.2769817353700272, 3.2045413629992581)	(6.6208941547732625, 7.1510353665830735)	(0.059305078329035865, -7.1013957861144981)	1.0	slash	1.16502
29	M	B	B	A					M	4	2	shapes	B	6	False	115	(1.3814750570739704, 1.4304843798779903)	(-8.2483404257292836, 6.4634942183701067)	(3.7824681897686361, -2.3318117122602144)	(-3.9181137374195343, -5.1398871945596394)	1.0	slash	1.00671
30	N	B	N	A	M	B	M	A	B	8	1	shapes	B	6	True	115	(-7.3586075464985354, 5.5219739958793532)	(0.44129709371252268, -7.2563798496406458)	(2.1262272879146433, 7.7573813496008448)	(2.8876293882096089, 2.1788221239282741)	1.0	slash	1.37033
31	N	A	N	B					M	4	2	shapes	N	6	False	115	(-2.7952757288925936, -3.4887249246825975)	(5.4975748841263528, -8.2220034326356313)	(-3.6361192394169422, 1.8372545989082791)	(7.3785426893463431, 5.5053605785557487)	1.0	slash	1.13797
32	M	B	B	A					B	4	2	shapes	B	6	True	115	(-7.9098339016337675, -2.9461173876136453)	(-5.8459706558864735, 5.7894161389951737)	(7.7435900242298494, 6.7873827077951816)	(5.3978649518595532, -5.9690413388534758)	1.0	z	1.10369
1	N	B	A	A					M	4	1	shapes	B	7	False	115	(-4.0432177349514857, 2.3747845958193885)	(5.7348127156240363, -4.6966548022685677)	(6.1283463666974232, 6.5559889757104397)	(-7.975914739602759, -2.4102924906168921)	1.0	slash	1.31927
2	M	A	A	B	N	N	B	M	A	8	2	shapes	A	7	True	115	(-7.8066604003770736, -3.7186752883582335)	(3.8733873227848985, -3.0607730315656045)	(5.8039820692130633, 8.6942118932079708)	(-6.2251133557152052, 0.037881247115972627)	1.0	slash	1.12473
3	M	A	M	B					M	4	2	shapes	M	7	True	115	(-0.33564410559533897, -5.2612161132106765)	(5.144900719220006, -4.8802983861074303)	(5.1289318063566931, 6.8124975031934838)	(-8.6323864894372111, 3.4523776369760029)	1.0	z	1.54846
4	N	B	A	B					A	4	1	shapes	B	7	False	115	(7.2754800991868045, 7.6306253325421594)	(1.6187998752830737, -7.6015581154737895)	(-2.0352951277207012, 0.36930164983853153)	(-4.0366978730477729, -4.7827993615244591)	1.0	slash	1.5281
5	M	A	M	B	A	B	N	N	A	8	6	shapes	N	7	False	115	(-7.4896647886323846, -0.33907427057524231)	(0.65167191080620412, -0.40983346692427602)	(1.0959122111709672, -4.5087536303550815)	(-7.8238801625568977, -5.0827749838665399)	1.0	slash	0.993693
6	M	A	B	B					N	4	3	shapes	B	7	False	115	(-1.4151672590796887, -2.8077430293424142)	(-4.0128124781988737, 7.3669648934374372)	(6.5285015950128322, -6.3224203920963067)	(3.0023925042108299, 0.72282245078343799)	1.0	slash	1.32533
7	M	A	N	M					N	4	1	shapes	A	7	False	115	(-0.9362179085901543, 6.2093017378759612)	(8.2049787023492193, -3.9910012592420605)	(-3.6714526728158248, -6.9582344483319023)	(5.5031596503470919, 8.1082980769661646)	1.0	slash	1.12686
8	M	B	A	N	N	B	M	A	B	8	2	shapes	A	7	False	115	(8.623716099640518, -6.8729197343888417)	(6.8639191652897793, 0.40393025252694592)	(-1.1026283444858747, -6.3962529480752712)	(3.703725421217424, 7.129377511129487)	1.0	slash	1.10658
9	M	B	N	N	M	B	A	A	M	8	1	shapes	B	7	False	115	(0.10628654850878583, 2.3952760175315362)	(4.070383279192523, -5.9612491435330357)	(7.977672148149022, 1.9930085737513217)	(-2.2639432324981499, -5.2228612956455471)	1.0	slash	1.5119
10	M	A	A	M					M	4	0	shapes	M	7	True	115	(-5.7760194409508294, 2.3392510905689026)	(6.4967299742920357, 2.790782282208097)	(1.4349192232681105, -2.5550273412304918)	(-7.2164594773237027, -2.8134975687162616)	1.0	z	1.48984
11	M	A	M	B					B	4	3	shapes	B	7	True	115	(-4.3570107495333339, -1.2767481110004546)	(-2.5545663614368506, 8.3526538994577244)	(2.1303919249414278, -2.2382370021321716)	(3.665711546552755, 4.6561555593532482)	1.0	z	1.66515
12	M	B	N	B	A	M	N	A	M	8	2	shapes	N	7	False	115	(5.0630571514936964, -2.4246421916045726)	(-8.4497288224905347, -8.383637293043396)	(1.0167699640424992, 0.47566357204200926)	(6.71431843729723, 8.5894692253194052)	1.0	slash	2.94282
13	M	B	B	M	A	A	N	N	N	8	6	shapes	N	7	True	115	(-2.2526066522249604, -4.0145767466234057)	(-1.8228854130384518, 0.59154154758640054)	(3.7703939056861575, -1.4254314615354327)	(-8.527419907676677, -0.53898409498324362)	1.0	z	1.99848
14	N	A	M	A					A	4	1	shapes	A	7	True	115	(2.8790818036685355, -7.784322253155989)	(7.2014067498227874, 7.0513691635935096)	(-2.097688071538558, -7.1965006709965698)	(-7.9554292770317927, 1.4278285503165158)	1.0	z	2.31195
15	M	A	N	A					A	4	1	shapes	A	7	True	115	(-0.25769270244276576, 5.5254773122623213)	(-4.6631344645344894, -3.5993846926261428)	(7.3674325525927991, 8.4691155451914497)	(4.0802361416103672, -4.3399893185394207)	1.0	z	1.20341
16	N	A	B	M	B	A	M	N	A	8	3	shapes	M	7	False	115	(-2.5940598340817198, 0.73712837116375418)	(-1.4894823712976768, -6.9656436528314725)	(0.64838845117647281, 5.3172928920343523)	(-6.9139227110269061, -6.0217126273219588)	1.0	z	1.64512
17	N	B	N	M	M	B	A	A	A	8	6	shapes	A	7	True	115	(2.6464207014730867, 3.4898861129381373)	(-0.41803163048860981, -3.0020467112978606)	(-8.1957987328399469, 6.245781476001099)	(3.7578647627075661, 8.0920984282344648)	1.0	z	1.39084
18	N	A	M	B	A	B	M	N	N	8	2	shapes	M	7	False	115	(-6.4413556962022867, 8.469329958151782)	(7.5821151051076221, 4.6766068169802519)	(2.5482175266971119, 4.7603390256046296)	(-1.6966713385010141, 0.23461520800866076)	1.0	slash	1.33227
19	M	A	N	B					N	4	1	shapes	A	7	False	115	(-2.9508535916836856, 2.561817314824431)	(4.4175753323787301, -6.2499924482946136)	(1.729598079948536, 8.4199210637018993)	(-2.7292851378847693, -2.5308641716794202)	1.0	slash	1.34799
20	N	A	N	A					A	4	1	shapes	A	7	True	115	(-3.373043789946844, 1.8041788840285609)	(3.1915115638234983, 3.456192828533343)	(-1.4783615933805674, -8.2073813573087069)	(1.9013769057398626, -3.0403650842636782)	1.0	z	1.41361
21	M	B	N	M	B	A	A	N	A	8	5	shapes	A	7	True	115	(0.83866282259931424, -3.4222462500958937)	(1.422175386943886, 5.9312379532152644)	(-3.6271573506797221, -7.6052888316797631)	(-6.9406849684466172, 6.3561822497896046)	1.0	slash	1.3813
22	N	B	N	B	M	M	A	A	A	8	0	shapes	N	7	False	115	(-0.84127507957479253, 6.8335905276043292)	(-8.6936134512100836, -0.45288286669294564)	(4.1771503441091316, 4.0349496591095981)	(-3.6026942362876389, -4.4540874098697625)	1.0	slash	1.2988
23	M	A	B	M					B	4	1	shapes	A	7	False	115	(0.91998343166613594, 1.8408799957511341)	(-3.6027886052384375, -8.2346382832014946)	(-8.1599502339864838, 5.4396689043931712)	(3.4569264373303632, -8.2756990564590502)	1.0	slash	1.04845
24	M	A	N	B					A	4	0	shapes	M	7	False	115	(0.97284964603495894, 6.0551894466407585)	(5.6788933440625868, -5.1881374494060655)	(-5.4838654250263756, -2.6759370810567686)	(-5.5122347383032935, 8.1820972190170487)	1.0	slash	1.34413
25	N	A	B	A	N	B	M	M	A	8	1	shapes	A	7	True	115	(7.4116124784237876, 7.2200279353652235)	(5.0230609852379704, 2.7939394915860536)	(-1.7756108833902049, 7.0074961466841046)	(-3.7168708143756906, 0.76056348334670787)	1.0	slash	1.34364
26	M	A	B	B	A	N	M	N	M	8	3	shapes	B	7	False	115	(-5.7050983258190904, -7.5167741311508518)	(7.6567163904250748, 6.7922739027267323)	(-6.6271008990395606, -0.60099887780893546)	(-6.8147764002879203, 8.6174256839625158)	1.0	slash	5.60727
27	N	A	A	B					B	4	3	shapes	B	7	True	115	(-0.68769796060981569, 1.8226224246809899)	(5.3217797266187237, -3.4982735660146353)	(-0.22215825865015759, -7.6115899119404036)	(4.3321527289311934, 0.73887254842270522)	1.0	z	1.50435
28	N	B	B	N	M	A	A	M	B	8	2	shapes	B	7	True	115	(0.47312992063069004, 6.546095045982554)	(6.6892494203758321, -5.615105930543411)	(-6.0053863806300285, -8.2380897673530047)	(3.0076170464881677, 1.0332598428800672)	1.0	slash	12.4699
29	N	A	N	B	B	M	M	A	A	8	1	shapes	A	7	True	115	(1.3460454239290076, 3.924958989568724)	(-3.2111525163482506, 2.4783162840781401)	(5.1125356619141904, -0.24231892823650369)	(-1.7235606543470467, 8.7189389888951929)	1.0	slash	1.25297
30	M	A	A	B					N	4	1	shapes	A	7	False	115	(-3.8558001869651113, 6.9079743617128511)	(0.54612178073597129, 1.4164539489190062)	(-3.6470341047874371, -2.1712913897949688)	(8.5456984534682263, -4.6267178013322638)	1.0	slash	0.732572
31	N	A	M	N					N	4	0	shapes	N	7	True	115	(-7.6783176903174111, -0.56208317565559263)	(-0.65806727597441927, 0.64736667262020831)	(3.3634762060529173, 3.6211504663779444)	(4.5829383728779227, -1.8643393585682135)	1.0	z	1.33015
32	M	B	A	B	M	N	N	A	A	8	7	shapes	A	7	True	115	(-2.8821291735854722, -8.2859044291376467)	(-6.5137620156469618, -6.3835696666660215)	(5.5232761614606218, -2.1670505880222759)	(6.9867343528068595, 1.8465733483508462)	1.0	z	1.69973
1	N	A	B	A					M	4	0	shapes	N	8	False	115	(-1.4663835444577842, -1.3227644822888935)	(1.5947837363214781, 7.1974791428690104)	(5.4422714594036368, -8.4339789209970508)	(-8.0009617621854421, 0.91044701448853438)	1.0	slash	1.54331
2	M	B	M	N	N	A	A	B	B	8	4	shapes	N	8	False	115	(-7.3424492840819733, 2.0681542327007172)	(8.1303740978009849, 0.47530335599224216)	(-3.4242903601719972, 0.81763974379759752)	(0.60333605643484312, -3.9337030147648324)	1.0	slash	0.973152
3	N	A	N	M	A	B	B	M	B	8	3	shapes	M	8	False	115	(-7.8829895500568492, -7.3766769905428244)	(2.1113988979419496, 3.0831730382835509)	(6.1643139212211242, 5.5654006469947657)	(-3.1990288833135683, -2.9733692986548146)	1.0	slash	0.90262
4	M	B	N	N					B	4	0	shapes	M	8	False	115	(-6.8337879016864642, -2.2257499498817896)	(6.544228005910492, 8.4159189184818928)	(4.8696158493422725, -0.325702176258444)	(-6.1906803419755576, 4.3865350167964969)	1.0	slash	4.11603
5	N	B	B	A	A	M	N	M	A	8	3	shapes	A	8	True	115	(-0.077637551664098581, 5.1071815196584023)	(-4.5337813774999356, -3.6964107396723067)	(3.3258836481547078, 2.0826407793384369)	(-2.8611361774747914, -8.645989012432107)	1.0	slash	3.11957
6	N	A	M	N	M	A	B	B	N	8	4	shapes	M	8	False	115	(-2.6898032743005746, 5.2941049153577708)	(6.7922391548271062, -8.6347989196802803)	(5.899824765677149, 1.4822668655087217)	(5.7950913235809445, 8.4995877828929913)	1.0	slash	4.97104
7	M	A	N	A	N	M	B	B	B	8	7	shapes	B	8	True	115	(-3.4109714301193295, 3.4519134133261762)	(1.5101352836397925, -6.4529491075607996)	(3.5193674303588889, 6.6167925607430487)	(-3.7630352996904488, -7.6364846539317606)	1.0	slash	1.12245
8	M	A	A	B	B	N	M	N	N	8	5	shapes	N	8	True	115	(8.2033368958448065, 0.95956332092134389)	(-2.381116473649965, 4.4774126059841279)	(3.7321418315857802, -8.5070423751471349)	(2.3895541228695247, -1.9712512409399876)	1.0	slash	1.25985
9	N	B	B	M	A	N	M	A	A	8	7	shapes	A	8	True	115	(-6.0739048663142157, -4.478989981946369)	(-7.1656771247850166, 2.3418536782400867)	(8.7392171959819223, -8.7274210115041022)	(-2.1758056169132605, 4.1666027453298948)	1.0	slash	0.913726
10	N	B	B	N					N	4	0	shapes	N	8	True	115	(-1.7036071853073222, -4.3133091494421922)	(-7.2844025549504723, 8.0774365594603239)	(1.1653883692216844, 2.4140266763555545)	(3.0644859463568821, -7.2317824598325133)	1.0	slash	1.18123
11	N	A	M	A					M	4	3	shapes	A	8	False	115	(5.9957646229298351, 5.6162233633711089)	(-0.18735042472038366, 5.7774894016598211)	(3.5777345035731454, -3.0238572581640142)	(-2.775749747084336, -3.135508619254467)	1.0	slash	1.33893
12	N	B	B	M					B	4	1	shapes	B	8	True	115	(-7.1142935879545943, 4.8760249390703905)	(-1.6415267124954163, -3.9836132516151679)	(4.8447857853465166, 8.6269589394809927)	(8.6788096282898799, -0.60603414367163566)	1.0	slash	0.712422
13	M	A	M	N					B	4	2	shapes	M	8	False	115	(4.0790843242675123, 5.7546852747094466)	(-5.706669501663888, -4.7637995260559833)	(3.0239231815416474, -1.1039642819868405)	(-4.1072777217979226, 0.48920273148186411)	1.0	slash	0.748094
14	N	A	M	A	B	N	B	M	B	8	6	shapes	B	8	True	115	(5.1390162477794554, -3.4888307845654047)	(0.094354892885293751, 3.1513432069839276)	(-2.13066334254676, -2.3316927151060307)	(-6.1580747369572872, 3.3550677980322732)	1.0	slash	1.0357
15	N	B	A	B	M	N	M	A	A	8	4	shapes	M	8	False	115	(7.4161562948804765, -4.0899859107313805)	(-8.4942556728706862, -2.8872348945998905)	(1.7619863692862801, -2.5438210349305423)	(-2.1737598361811177, 4.1971258158970546)	1.0	slash	0.623452
16	M	B	N	N					N	4	2	shapes	N	8	True	115	(6.238000698538924, -0.40549789359944022)	(-7.6451193685063128, 8.0686767703713826)	(7.1968986415454097, 6.7960292483083897)	(-6.3018184177359835, -8.134982945960644)	1.0	z	1.35702
17	N	B	M	A	A	N	M	B	A	8	4	shapes	A	8	True	115	(7.3697885537347183, 0.060797784661106746)	(-7.8277443993247244, 2.8885778178418544)	(7.6268669264749249, 4.6006781987478167)	(-2.9921600847720251, -4.9942383443530645)	1.0	slash	1.32877
18	N	B	A	B					A	4	3	shapes	B	8	False	115	(3.5117303322695328, 7.4149762319125934)	(2.2840879549175082, -4.2483763396850964)	(-8.0483910213956893, 1.9617326885371291)	(-5.0567234292476559, -2.0309478102204643)	1.0	slash	1.24039
19	N	B	B	N					A	4	1	shapes	B	8	False	115	(-5.9403219204146254, 2.3235131309663792)	(1.3889437821857538, 1.3718854472440416)	(4.3749888670044719, -8.6216475194622788)	(-6.8865444951234442, -6.3469999997694915)	1.0	slash	1.17805
20	M	B	N	M	B	A	N	A	A	8	5	shapes	A	8	True	115	(-6.5233477063592424, 1.2370071221567294)	(2.6632006737406826, 4.5844420055044122)	(0.76877186548556686, -5.2679446571661623)	(5.5631486584568854, -0.68166625080216647)	1.0	slash	1.5556
21	N	A	N	B	B	A	M	M	M	8	0	shapes	N	8	False	115	(5.5700749823888884, -3.6339472409196878)	(-7.579812935609116, 2.957965476798325)	(-4.7048589957116089, -0.70640644924217533)	(-1.3357621970657725, 6.0322735972833286)	1.0	slash	1.15312
22	M	A	N	A	N	B	M	B	B	8	3	shapes	A	8	False	115	(-3.3401186227119437, 4.8080335885094598)	(5.9411701430211536, -2.5637902117718943)	(-7.0519395829693696, -8.7145058408498421)	(1.8050329981780546, 8.2153005327260686)	1.0	slash	1.07688
23	M	A	A	B	N	B	M	N	N	8	4	shapes	N	8	True	115	(1.8302455435384974, -5.3139264799476411)	(-7.5599000047956295, 6.4915287899541525)	(-4.0403062388087019, 0.88991429352650187)	(6.316351233775519, 6.7606789447887365)	1.0	slash	0.961669
24	M	A	M	A					M	4	2	shapes	M	8	True	115	(-7.4456701716026652, -6.8791735578643145)	(6.563234708446025, -5.2032597399930847)	(-5.978191241775729, 1.8016488958521144)	(4.9943319209698416, 0.20827698776817094)	1.0	z	1.53194
25	N	B	M	B					M	4	2	shapes	M	8	True	115	(-7.4660069194719725, 4.7872598491068548)	(-8.1870821323830185, -7.6131626896628442)	(5.1522868041927463, -8.5414424460623728)	(0.4305565710110546, 2.2257656738927842)	1.0	z	1.23563
26	M	A	B	N	M	A	B	N	N	8	1	shapes	A	8	False	115	(-8.5778895262107664, 4.2953855095436015)	(8.6034705179253521, -8.0011190146114917)	(-1.0346296532661512, 6.3489337008510081)	(-4.7074873201122909, -0.33953344208797809)	1.0	slash	1.1833
27	N	A	N	A					B	4	3	shapes	A	8	False	115	(5.117534136187885, -2.0365375333410984)	(-5.2323919692894414, -0.12301794383631481)	(-7.0682163332320629, 4.7662127963933933)	(7.2824997163621781, 3.8767960708700517)	1.0	slash	1.12481
28	N	A	M	N					A	4	1	shapes	A	8	True	115	(-4.0582238615803199, 4.1574938246085829)	(-8.0045642935185821, -1.5772517058642741)	(2.9428804170575518, 2.394647484845347)	(2.2210532792749067, -7.2074278735902126)	1.0	z	1.98259
29	M	B	B	M	N	A	N	A	N	8	1	shapes	B	8	False	115	(6.9457622351400001, -4.3680078533824753)	(5.3383955688937412, 5.3754195624364325)	(-0.026857487527182755, -3.4762367114070072)	(-6.6049038355474652, -6.3616925815987742)	1.0	slash	0.907998
30	N	B	B	N					N	4	0	shapes	N	8	True	115	(5.8661744572507608, -0.11192323401862225)	(-7.4224981419926861, 7.4222104123363408)	(-1.3378977411382733, -5.6472228520797358)	(7.8654347783098473, 3.7691455936381768)	1.0	z	1.31973
31	N	B	N	B					A	4	1	shapes	B	8	False	115	(2.1900967030162306, -4.1923197104752461)	(-7.4441098939154342, -6.1449834833203916)	(7.3722923887136211, 3.7466213118753817)	(-0.48328615161176813, 3.8615211028711425)	1.0	slash	1.43319
32	M	B	M	A					M	4	0	shapes	M	8	True	115	(-6.3836456471135747, -8.1815784571166912)	(8.5339384325951251, -6.3166264487489237)	(5.9937331676398156, 5.4542179100702466)	(-0.94011459453379231, 6.8197455443441477)	1.0	slash	0.941055
