TrialNumber	stim0	stim1	stim2	stim3	stim4	stim5	stim6	stim7	stim.probe	ttl.stims	corr.num	trial.type	stim.corr	block	match	Subject	stim.pos0	stim.pos1	stim.pos2	stim.pos3	ran	resp	RT
1	N	A	B	B					B	4	3	shapes	B	Practice	True	12	(-7.4258122578118524, 8.4236930826866647)	(5.8613072999606679, -0.66180936552105507)	(-7.1844873689317117, -2.5317490427084399)	(7.0288475470112743, 7.6492912309968411)	1.0	slash	4.76736
2	N	B	B	N	A	A	M	M	B	8	6	shapes	M	Practice	False	12	(-3.7435173033737428, 4.4595664590817865)	(0.12321952542154868, -0.36683863395154148)	(3.0760530097138581, -6.9308387311110611)	(-8.0173773052645618, -5.7860309345326062)	1.0	slash	2.30667
3	M	B	M	B	N	A	N	A	A	8	7	shapes	A	Practice	True	12	(-5.2861224748345199, -7.4801446753826459)	(4.1187131775733015, 6.9253793297309247)	(0.24771745396686917, 2.9636743767575542)	(1.4205464996689567, -5.9314893017913395)	1.0	z	2.39434
4	M	A	A	B	N	M	N	B	N	8	0	shapes	M	Practice	False	12	(-7.0131767664111502, -3.7286589147044209)	(-8.4732869198660925, 4.920668398232138)	(4.6157776281635741, -4.0862596565527038)	(4.4961388358059278, 0.45270701212522546)	1.0	z	1.56746
5	M	B	N	A					N	4	0	shapes	M	Practice	False	12	(-6.7466778931725333, -7.6963187045152921)	(5.4464790615444105, -4.2297032267055128)	(6.3261500934000772, 4.7060735778422753)	(-4.4283024802964439, 7.2472515166048037)	1.0	slash	2.25544
6	N	B	M	N	A	B	A	M	A	8	6	shapes	A	Practice	True	12	(1.3771689388897244, -0.90395610516121572)	(-8.3399871514508241, -3.2785536156308277)	(-4.1251051392556963, -2.5507209902436161)	(8.4429394333721781, 4.7639704123149151)	1.0	z	1.79295
7	M	B	B	M					N	4	0	shapes	M	Practice	False	12	(6.1544096022815324, -5.5679580589254147)	(-4.6552783384072178, 7.2475270797672646)	(-7.1340857816669425, -3.0992150449828602)	(4.9834558873277075, 1.9372535214822761)	1.0	slash	2.48441
8	N	A	M	M					M	4	2	shapes	M	Practice	True	12	(-3.6126101986972703, 0.70461216640111424)	(6.1275345439421116, -5.6549663555674892)	(3.9417546312149714, 0.47124904942271861)	(-6.7494221551900182, -4.4242454776788405)	1.0	z	2.22202
1	N	B	B	A	A	M	N	M	M	8	6	shapes	N	0	False	12	(0.81611573489412059, 4.1537799238208404)	(-0.29734117240275637, 0.28806175019702884)	(-6.3613907309701094, -4.2712390301392595)	(1.8018803575603002, -7.7812500615861655)	1.0	slash	1.9154
2	M	A	M	N					B	4	2	shapes	M	0	False	12	(5.7441926795901477, 3.2169285604208344)	(-3.1908727217861781, 6.8667248470950124)	(4.1150802065272529, -6.6550890966948897)	(-6.3533156444140602, -2.4266071886017784)	1.0	slash	1.47088
3	N	A	A	B					B	4	3	shapes	B	0	True	12	(-7.814349276100323, -8.4427161390122212)	(0.69645043773227755, 4.8957635431654474)	(5.8855548002960916, -4.9407392894902662)	(-6.0581014289312538, 3.5794237119885235)	1.0	slash	1.91453
4	M	B	M	A					A	4	2	shapes	M	0	False	12	(2.2157243087417537, 6.8070694339285378)	(6.7333059152336769, -3.6337759871702655)	(-4.9460795988574695, 3.0032712938118138)	(-7.3104737902308337, -7.9077626366539713)	1.0	slash	1.87792
5	N	A	B	B					A	4	3	shapes	B	0	False	12	(6.9470659381250019, -4.0273580967731775)	(6.4272333555881467, 4.1304078524938248)	(-2.9589334555375544, 2.7300206814656924)	(-2.4682053102343513, -5.9008417414487244)	1.0	z	1.18361
6	M	A	B	M					A	4	0	shapes	M	0	False	12	(5.1351032337779277, 2.3556504609348679)	(-0.55603872882007721, -3.6345934952092804)	(7.3451425182915351, -7.3878034470823168)	(-8.1402813926761262, 5.186715854113146)	1.0	slash	1.51739
7	M	A	N	N					A	4	1	shapes	A	0	True	12	(-3.0160200885366821, 6.1834242764903333)	(4.3560896245841896, 0.92617927665670052)	(8.3635036248607406, -7.0531191207078212)	(-5.6488140322505647, -8.6528895067343754)	1.0	z	1.53703
8	M	B	M	N	N	B	A	A	B	8	3	shapes	N	0	False	12	(-6.7690647744743382, -2.2119120183006151)	(0.49529604301138264, 2.8350532972321361)	(4.4965064017774541, -4.2217780340966913)	(-0.46294109928860827, -6.6744927706961228)	1.0	slash	1.64245
9	M	B	M	N	N	A	B	A	N	8	4	shapes	N	0	True	12	(-6.667799144480048, -4.7421101215934494)	(5.0951026340807974, -2.3603316364426812)	(-6.2403421731889228, 6.0686403451672231)	(5.8189672520560514, 4.411645458592373)	1.0	slash	2.71012
10	M	A	A	M	B	B	N	N	M	8	0	shapes	M	0	True	12	(4.8959988930156833, 6.114420753452519)	(7.6470933926054876, -5.6391862321042616)	(-4.6788790530723308, 0.13355254502983804)	(0.90799652337623549, -2.3727253429427115)	1.0	z	1.8458
11	M	B	A	B	M	A	N	N	N	8	3	shapes	B	0	False	12	(3.8860934784107535, -6.4652593660801019)	(8.5925522042044413, 1.1682102255153026)	(-0.13966085982562326, -5.6532741345200677)	(3.9743624665484276, -2.3009251242443307)	1.0	slash	1.92109
12	N	A	B	A	N	M	B	M	M	8	6	shapes	B	0	False	12	(-2.2364041950901123, -5.8492913097476347)	(7.4015622953517877, 3.9776675800260346)	(-8.2137023833888101, -4.6527828744298008)	(4.4411976367496298, -1.79838542234853)	1.0	slash	1.69278
13	N	B	N	A	M	B	A	M	M	8	3	shapes	A	0	False	12	(-6.3378322973901788, -5.3187011193509877)	(7.2904819498646987, -2.6146466225414695)	(-0.7929441811332536, 4.2053100055725157)	(-1.1912101527730226, 8.5113677273140382)	1.0	z	1.53429
14	N	A	N	A					A	4	1	shapes	A	0	True	12	(-2.0471751607111734, 7.1014236511188038)	(-6.6397556465687613, -2.952940597535072)	(5.0877486839000543, 5.5592310888745544)	(4.854780684628011, -7.1892259744716638)	1.0	z	1.26203
15	N	B	B	M	M	N	A	A	M	8	6	shapes	A	0	False	12	(0.778313005367405, 0.15397959526803362)	(-7.5876550250514683, 1.054850066236181)	(-3.7773360482428489, 6.9745347938160887)	(1.3990472201013269, -8.3838586150551571)	1.0	slash	1.61351
16	N	B	A	M	A	N	B	M	B	8	6	shapes	B	0	True	12	(-0.34446666956064931, -4.9151435815748963)	(-5.3367050084108243, -6.686256717334329)	(-1.8981633400470574, 2.9523041697610566)	(4.9170176820830953, -2.2549579952543439)	1.0	slash	1.99913
17	M	A	N	A	M	B	N	B	M	8	0	shapes	M	0	True	12	(0.29042009306519034, 4.7053094890225857)	(7.7289655904849823, -2.9459024931345432)	(-5.0498308171327837, -2.359606056615398)	(3.5921815570093685, -7.379136891576568)	1.0	z	2.3646
18	M	B	N	M					A	4	2	shapes	N	0	False	12	(1.4909944903188173, -5.938370871296204)	(-8.6661210042662233, -5.7557995309300392)	(6.8274439497788055, 2.2719654973362609)	(-7.5925125002869773, 5.1326598802199204)	1.0	slash	1.66225
19	N	B	M	B					B	4	1	shapes	B	0	True	12	(-8.326364121439001, 4.2011923491368215)	(5.3962376071412717, -5.6815080740132462)	(3.040572665642669, 7.6488856344973115)	(-6.7128088207583296, -1.7585144861056223)	1.0	slash	1.78766
20	M	B	N	A					N	4	2	shapes	N	0	True	12	(4.9516272801478163, -7.8369374019830582)	(3.8207987413982742, 8.7314971970987116)	(-8.5076737695808102, -4.3908304044761728)	(-7.4429778327610654, 6.4376666688519979)	1.0	slash	1.95932
21	N	A	N	A					N	4	1	shapes	A	0	False	12	(6.3088628237061286, 3.0326340565900587)	(-3.2583816606570961, 2.4876481388892255)	(-1.5799053637516174, -2.0864348845714638)	(1.8612916229220371, -6.3380314594727416)	1.0	slash	2.34478
22	M	A	N	N	A	B	M	B	B	8	7	shapes	B	0	True	12	(-1.6524280704361773, 7.5082429294093203)	(8.4758049602560064, 7.1294336936404257)	(4.1716517013949073, -3.2263604106699892)	(-8.0093276126623305, -4.4728327528119642)	1.0	slash	1.5605
23	M	A	A	B					N	4	3	shapes	B	0	False	12	(-1.896974939158202, 0.23583170286633681)	(2.7542513767103252, -6.0424602039582211)	(-7.2597197863623997, -1.2001919076178442)	(4.7437055973657838, 7.358031781355443)	1.0	slash	1.69001
24	N	B	M	B					B	4	1	shapes	B	0	True	12	(8.0431198385000755, 0.6427610069768992)	(-7.9896966518918653, 3.9884088657165258)	(1.575909891785928, -6.9967968601503383)	(-8.3059391191324607, -0.66026325578231493)	1.0	slash	1.99359
25	M	A	M	A	B	B	N	N	B	8	5	shapes	B	0	True	12	(-6.717753235392995, -8.6619222666895048)	(7.8021311648574212, 1.8873828003590525)	(-4.9424044381461893, -3.2786192963072356)	(3.0820292915023604, -5.9024016687170864)	1.0	slash	1.60727
26	M	B	B	N	M	N	A	A	N	8	5	shapes	N	0	True	12	(4.4396953065533324, -3.8888530409321849)	(2.8354029837694092, 8.1326737628189889)	(-2.766400900254081, 1.2605200615496521)	(-8.2614615532408457, 1.8406468393171078)	1.0	slash	2.53089
27	M	B	A	A					M	4	0	shapes	M	0	True	12	(1.6001076945453647, 7.8581287699588955)	(0.15975047960679589, -2.9987960699349925)	(-3.7336080657200208, 8.224149083417359)	(-5.8809042395956395, -4.7585454151895323)	1.0	z	1.34623
28	N	B	A	B	M	A	N	M	M	8	4	shapes	M	0	True	12	(8.3665919695499298, -7.9460542790630218)	(1.6553351402615668, -2.2149583417319727)	(0.91407501284480475, 6.5367645068254827)	(-6.6312398396069945, -2.1370692866826628)	1.0	z	1.60194
29	M	A	A	B					M	4	3	shapes	B	0	False	12	(6.3085754059223138, 7.98661187223788)	(-3.1533476142489327, -7.4973324203563401)	(3.7597754792860343, -2.4134624900017378)	(-1.459438605855059, 5.8497374567887679)	1.0	slash	1.97164
30	M	B	B	A	N	M	N	A	B	8	6	shapes	N	0	False	12	(-8.2457358475428251, 4.4119764773816907)	(-8.7112593193755963, -3.4597710494214251)	(5.2723919047378587, -0.046757443429541468)	(5.3108532125279311, -6.2296499379060926)	1.0	slash	1.82107
31	M	A	B	N					A	4	1	shapes	A	0	True	12	(-5.7206299347043785, -7.5092573681550361)	(-0.35789378029455499, 3.4996771172131727)	(8.5636478310687956, 1.4607999764793611)	(4.1015999906104774, -0.25353058883291446)	1.0	z	1.25064
32	M	B	B	A	A	N	M	N	A	8	2	shapes	B	0	False	12	(7.8050090065579418, 5.2102439081011571)	(-5.3607160839016874, 5.7363323745214636)	(3.2783003800008146, 7.6727250512448109)	(-5.1042792664326635, -7.9215612051555713)	1.0	slash	1.28433
1	N	B	A	N					N	4	0	shapes	N	1	True	12	(-2.4493706970013109, 5.3383488775440053)	(7.2124780154115928, -2.3168484160154037)	(-3.978327599670715, -6.1397245947583592)	(3.8594787386330829, 4.0582754467425985)	1.0	z	1.16982
2	N	A	A	B	N	M	M	B	N	8	0	shapes	N	1	True	12	(8.2752721735465222, 6.37908754612236)	(-6.9083661936308038, -0.47189838722296251)	(-8.7249168635338812, -8.6635958411817899)	(5.4595684011679104, -3.0328817558928955)	1.0	slash	2.18954
3	M	B	A	A					M	4	0	shapes	M	1	True	12	(-5.6556532016625418, -3.5675408951347807)	(8.4715986494518845, 4.8928368788684669)	(-6.2985019685693056, 6.2275504222913973)	(0.82232867189545189, -1.2208703703624995)	1.0	z	1.31311
4	N	A	M	N					A	4	2	shapes	M	1	False	12	(-2.0151448077352976, 6.1451556094876061)	(4.8719541571349207, -1.2693128476246587)	(7.7045562451650191, 2.4669654104116212)	(-8.4546774545450329, -3.7935776838566149)	1.0	slash	1.68462
5	M	B	B	A					M	4	0	shapes	M	1	True	12	(2.6135910296464147, -1.1437196468728938)	(-0.0081143299682402414, -8.0861485287489838)	(5.5720841600636071, 4.2417776106823162)	(-4.4613609731318862, 4.4842758841747941)	1.0	z	1.41459
6	M	B	B	N	M	N	A	A	A	8	7	shapes	A	1	True	12	(-7.0893002885266512, -3.8347699243225923)	(7.7961584919097895, 3.6064012490511068)	(-7.9483081354740284, 6.5752197010020055)	(-1.1154490644630863, 5.498112621704788)	1.0	z	2.15197
7	M	A	M	N	N	B	B	A	B	8	5	shapes	B	1	True	12	(-3.246444435422096, -0.19208761480424386)	(2.9814897111492051, 2.4850148302442587)	(-8.229692865301395, -2.991373872515525)	(-7.1519260663205353, 7.6774129950903678)	1.0	z	2.01337
8	N	B	N	M					B	4	1	shapes	B	1	True	12	(8.0986247036546892, -4.2208654079639505)	(-0.4445060757059327, -0.44361209627722431)	(-1.1147445559943181, 8.4936936179691784)	(3.5458846224188871, 6.1012077951171282)	1.0	z	1.25692
9	N	A	A	M	M	N	B	B	B	8	7	shapes	B	1	True	12	(0.73853784990582483, 4.8894513518799503)	(-7.1152296248342317, -0.94839065668220979)	(-6.8314411491993043, 6.8142706188444429)	(-4.2702493351058797, -7.855144837850828)	1.0	slash	1.51465
10	M	A	A	N					N	4	2	shapes	A	1	False	12	(2.617947054336117, 6.6135367039452078)	(-4.9075913163753917, -1.536306413435816)	(0.67206507948229088, -0.10157970181679765)	(-3.139404040359147, 5.8004140355512845)	1.0	slash	1.42219
11	N	B	M	M	B	N	A	A	B	8	1	shapes	B	1	True	12	(5.1709238419334902, 3.8989081363632483)	(0.77402288847732592, -3.2918136315671864)	(-2.074868141027407, -6.3370423340809658)	(-8.6151846883283731, -8.3091241257019526)	1.0	z	1.83779
12	M	A	A	N	B	M	B	N	B	8	2	shapes	A	1	False	12	(6.5653938411672019, 2.0828747987694971)	(-6.4867419534030129, -1.8164235007533867)	(8.1397657838733863, -4.8304779668382585)	(2.6978433973718037, -2.2874686268409068)	1.0	z	2.16343
13	M	A	N	B	B	M	N	A	A	8	3	shapes	B	1	False	12	(3.892483437771407, 4.3409437591001279)	(-3.379277125821428, -4.1706598041435523)	(-6.7985757799207107, 1.6060551679545281)	(3.7993329182923858, -1.0327680463672086)	1.0	z	1.71875
14	N	B	M	M	B	A	N	A	A	8	1	shapes	B	1	False	12	(-6.4153785037064779, 7.1775263421233664)	(4.3001302735387696, 6.674099050937226)	(4.4034804466451387, -7.4987695516016792)	(-1.0132859008211543, 6.8568805744653289)	1.0	slash	2.86047
15	N	A	M	N	A	M	B	B	N	8	0	shapes	N	1	True	12	(-2.5224042368078345, 0.39301566506852836)	(7.0953295669629988, -0.48316894904652052)	(0.63345779860644313, 4.2684458856575898)	(-8.16728634036253, -3.318211489086722)	1.0	slash	1.79788
16	M	B	B	A	A	N	N	M	A	8	2	shapes	B	1	False	12	(-7.7378071443840231, 6.8023995115184981)	(2.0275152578331159, 6.2163298059048451)	(2.8290073764828829, -1.3107842621800909)	(-2.8799935976961359, -4.444611837016593)	1.0	slash	1.32944
17	N	B	B	A					A	4	0	shapes	N	1	False	12	(-5.6691863477966074, -3.9734673416349899)	(-2.0866457061766752, 2.3525502579736752)	(1.3700883809463491, -2.0341654253011541)	(5.3147080763469976, 1.1420281466272435)	1.0	slash	1.64908
18	M	B	A	A					M	4	0	shapes	M	1	True	12	(4.4888372563413625, -2.9031524860124973)	(-5.6246088259397373, 1.7034427714369436)	(1.9793303118308181, 5.1772736923876383)	(-6.3000658069979725, -4.6411103426826985)	1.0	z	2.45667
19	M	A	N	B	A	M	N	B	M	8	2	shapes	N	1	False	12	(5.7237878657902925, -3.2214958279230315)	(-7.5921521032624195, 3.3708237110395807)	(7.7668430540416473, 1.8385746725558914)	(2.1028416075947298, 5.6656676318238031)	1.0	slash	1.51409
20	M	B	B	M					A	4	2	shapes	B	1	False	12	(-7.8043800655645068, 2.6798771174977514)	(0.62001547004760305, 2.9598460885368709)	(-1.3702757670533394, -4.6831432578787382)	(4.8303488020561414, -4.3690186499270496)	1.0	z	1.31785
21	M	A	M	B					M	4	2	shapes	M	1	True	12	(-5.0372480659683081, 5.5586234657295659)	(2.8466777782686119, -0.866315562680116)	(6.9936628012616069, 2.2528442929885681)	(-2.8504437169241958, -6.1027457029740653)	1.0	z	1.29545
22	M	A	M	N	B	A	B	N	B	8	5	shapes	A	1	False	12	(-6.8012477931801048, 5.1670045332661996)	(-7.8038130331739621, -4.5539431007871034)	(-3.3768856127475191, 1.9223601769556318)	(6.3483370568291306, 3.2566605322582891)	1.0	slash	1.84908
23	N	B	B	N					B	4	0	shapes	N	1	False	12	(0.48290345517057531, 0.039977941491928348)	(-1.8968938683664609, 8.1492989374331763)	(2.4902174384216664, -6.94796329946755)	(-4.5922478925536891, -8.5074529041813829)	1.0	slash	2.14466
24	N	A	B	A	M	M	B	N	B	8	0	shapes	N	1	False	12	(3.7307374695040156, -5.7216810479423756)	(8.255895329533562, -1.2045495165880942)	(-1.173769851743601, 7.7461032413579112)	(6.3218561366352475, 5.252329329359668)	1.0	z	1.8483
25	M	A	A	N					A	4	2	shapes	A	1	True	12	(-4.7147289226271445, -4.4929246888383298)	(3.5896941098475281, 5.3309987880532574)	(6.261268013576764, -6.5914338720132601)	(-4.6748751991438571, 5.95873977031005)	1.0	slash	1.52778
26	N	A	M	B					N	4	1	shapes	A	1	False	12	(7.7475474176308055, -3.5472434216389344)	(0.58297470699304199, 0.49572553343178782)	(-4.3478836188804761, 7.6033656457674539)	(-7.2591515429031412, -5.5798250185200828)	1.0	slash	1.59925
27	M	A	N	M					N	4	1	shapes	A	1	False	12	(-8.1875674325564454, -5.1292566496541294)	(-3.8429194229725736, 4.7147833168662565)	(0.86257271839781602, -4.0685392883972176)	(2.0430351540018794, 1.2000538116226149)	1.0	z	1.71304
28	N	A	N	A	B	B	M	M	B	8	3	shapes	A	1	False	12	(-5.3443285710777824, -8.0591173992880734)	(-2.1652170666237538, 6.0170518116415543)	(-7.9132106882992339, 7.3830536866317686)	(3.8708635729721479, -4.3831519203577898)	1.0	slash	2.10236
29	M	B	N	B	M	A	N	A	M	8	4	shapes	M	1	True	12	(-3.196071911759514, 7.4827860203942755)	(-8.2344861299657275, 0.99488364553054609)	(7.4155098415755845, 5.801002519827458)	(-7.8776444810685531, -3.405558136187568)	1.0	z	2.06172
30	M	A	B	A					N	4	3	shapes	A	1	False	12	(-0.10904846212770103, 4.7599881882438808)	(-2.8831349580783545, -2.2466776452244144)	(6.0043324942638989, -2.0309577226649527)	(7.2875517673110757, 6.0338535378505895)	1.0	z	1.58773
31	N	A	N	M					M	4	3	shapes	M	1	True	12	(7.9340464953915522, 2.160655918463652)	(-0.31769600739603021, 1.087781316359294)	(1.2926545953120137, -4.928982765487512)	(-3.4787922275741847, -5.752167140147705)	1.0	z	1.23134
32	N	A	N	M	B	B	A	M	M	8	7	shapes	M	1	True	12	(4.6878371708883684, 6.6248850466216673)	(-2.0634288396520644, 7.104342450473677)	(-0.4033119280637667, -2.9128494350493659)	(8.5994325242630474, 4.6555926405793002)	1.0	z	1.1489
1	M	A	B	M	A	B	N	N	N	8	6	shapes	N	2	True	12	(0.37241266320703303, 1.6060166606515196)	(0.35069109758690864, 6.7558378568135673)	(-6.6505187784590385, 5.7255779452511018)	(3.1549258816489427, -1.5530572230236315)	1.0	slash	1.56869
2	N	A	N	M					N	4	0	shapes	N	2	True	12	(-1.2523350276272343, -5.7000641177961597)	(-4.4406259759008107, 8.2941165807620649)	(5.7886368469039251, 8.4536320021904992)	(7.4018534703820329, -5.1528299368872217)	1.0	z	0.920171
3	M	B	N	A					B	4	3	shapes	A	2	False	12	(-8.0398208054508906, -7.3917803167187062)	(8.5029299254313031, 3.7034123461316568)	(-6.5911722673720838, 7.3723930283813388)	(7.4227137995454875, -8.7440324903463758)	1.0	slash	1.80975
4	M	A	A	B					B	4	1	shapes	A	2	False	12	(-3.8135813169339929, -7.0483241480466461)	(5.7038472211357298, 0.8297605752116759)	(1.4202959380375724, -8.112868218694393)	(-1.1902006399284595, 2.2854908834872738)	1.0	z	1.82524
5	N	A	N	A	M	B	B	M	M	8	2	shapes	N	2	False	12	(0.14759313852785816, 3.350485512068083)	(-5.0936902041942087, -3.7119020863545558)	(0.70096810169870061, -4.978969484649749)	(5.1786392130338292, 0.64638973477571326)	1.0	slash	1.28078
6	M	A	B	M	B	A	N	N	B	8	7	shapes	N	2	False	12	(2.9948926367395412, -2.9687218012486198)	(8.2235307922123475, 8.0638808713268517)	(4.7587668810051031, 1.7895188388312437)	(-0.50063338017268855, 2.0052966545472515)	1.0	slash	1.27635
7	N	A	A	M					B	4	1	shapes	A	2	False	12	(4.5743073029532955, -2.3769041882353443)	(-8.0401266051583189, -8.3306179067239832)	(-7.333395049568626, 2.7993382734810464)	(2.0988057843494019, 2.4292397623693294)	1.0	slash	1.58406
8	N	A	N	A					A	4	1	shapes	A	2	True	12	(4.1629582055784926, -1.6497527753481069)	(-0.65303415046911262, -7.9773811299941038)	(4.9399115447580169, 3.6053965709992042)	(-7.2862306599857574, 8.3844149841634028)	1.0	z	1.23758
9	N	B	B	N					A	4	0	shapes	N	2	False	12	(-8.1069233285025906, 4.2453199052460313)	(-5.9559703761834761, -8.3256643828576724)	(6.9381198757762892, -5.3696480666511546)	(4.6944886786419069, 7.9631505467194472)	1.0	slash	1.49517
10	M	A	A	B	M	B	N	N	N	8	7	shapes	N	2	True	12	(7.8565296237714826, 4.7036800025835017)	(0.2066357136960999, -1.9219076780546862)	(-4.5584563350748626, 4.2924777352710777)	(1.4623684714154628, 2.4099786469505311)	1.0	z	0.864987
11	M	A	B	M	N	N	B	A	A	8	3	shapes	M	2	False	12	(-2.7920161968855863, 0.61477776416580987)	(2.2600219317657313, 3.2465887179644)	(-2.8364864560078162, 8.4947871857954809)	(8.6274676023379655, -7.1384466996932119)	1.0	slash	1.28056
12	M	A	B	N					B	4	2	shapes	B	2	True	12	(-5.7476769296144763, -3.3851429114949294)	(-5.4126606430016748, 7.0153629882488033)	(5.2046644637189559, -5.303102218628025)	(2.7717622515675249, 8.3047417109264323)	1.0	slash	1.70613
13	M	A	B	B	N	N	A	M	B	8	0	shapes	M	2	False	12	(5.6222181104165116, -2.1000559000510686)	(-7.5416329825458108, -7.2553333876085393)	(3.8834434390170447, 7.3522303360104857)	(-1.9794782429249826, -1.4976790688658417)	1.0	slash	1.88979
14	M	A	B	A	N	M	N	B	M	8	0	shapes	M	2	True	12	(3.1895302932362135, -1.0029952014678178)	(7.3464972112049409, 4.2555463088339192)	(-7.2134657083818627, -2.6810441941340395)	(-0.68529450762147093, 5.2924147818055065)	1.0	slash	1.54097
15	N	B	N	B					B	4	1	shapes	B	2	True	12	(3.8334870650273345, 3.987724955892574)	(5.5687884595426933, -1.490022447382005)	(-8.6047839729206181, -7.3382561253903056)	(-1.7590832985306291, 6.656615755419109)	1.0	z	1.54698
16	N	B	N	B	M	A	M	A	M	8	6	shapes	M	2	True	12	(8.0482475294972247, 5.0193106268936187)	(-1.1745364841394732, -6.9198700334022138)	(4.1233140995845616, 8.2060116005211583)	(-8.6138451047583739, -4.9822863252607013)	1.0	z	1.89847
17	N	A	M	B					A	4	1	shapes	A	2	True	12	(4.9704003925314755, -4.4268539515086118)	(-6.7469735329017739, 0.56739435577837583)	(8.2071076491926434, 5.2513037360253225)	(-3.969960895479212, -2.5774124951926236)	1.0	z	1.55202
18	N	B	A	A					A	4	2	shapes	A	2	True	12	(-8.2715038569363006, 7.9051934475927794)	(5.8121392335581525, 3.2823453585169133)	(-8.6930588940233733, -8.1654279525911857)	(8.5640640549535156, -5.9231325575707743)	1.0	z	1.07579
19	N	A	M	B	M	A	B	N	A	8	6	shapes	B	2	False	12	(-8.332759516441179, -4.8483749794566418)	(-6.1246303453063593, 1.4472645773683119)	(-3.6053828225099869, 7.9158653758048381)	(3.3467537781109797, 6.8537345467203998)	1.0	z	1.24935
20	M	B	A	M					N	4	2	shapes	A	2	False	12	(3.8907316682251061, 3.4680139777973089)	(-3.4011926970949027, -1.9558604717795252)	(4.6641850749891702, -6.5869134194211938)	(-7.9364204964804559, 5.8992509722057775)	1.0	slash	1.22505
21	M	A	N	N					N	4	3	shapes	N	2	True	12	(6.0138402062331, -4.4627499468585858)	(1.1618796595640966, 6.3491041444270948)	(-1.9323302085902974, -2.4870662018235103)	(-5.9320161533372104, 8.4533164264884704)	1.0	slash	2.22264
22	M	A	M	N	A	B	B	N	B	8	6	shapes	B	2	True	12	(-2.9094902154767066, -3.0167909552780587)	(4.5733276037669199, 4.0445930072512297)	(-6.6314633918719768, 4.7236836015045167)	(6.313588795413807, -2.079141682834333)	1.0	slash	1.55805
23	M	B	A	B					B	4	1	shapes	B	2	True	12	(4.2049332075846362, -5.259286454939982)	(3.802463827351465, 1.9168766058115541)	(-0.60986662930751301, -2.3022367928448313)	(-0.10899340719407391, 8.362284427032904)	1.0	z	1.74366
24	N	A	M	M	N	B	B	A	N	8	7	shapes	A	2	False	12	(-0.072140783318305424, 6.592336919448476)	(-7.9570379433577889, -0.35833501200527529)	(-1.5991375490432924, -7.6741424729075387)	(-6.3420448092625925, 8.1206261114664535)	1.0	slash	2.80736
25	N	A	N	M					N	4	1	shapes	A	2	False	12	(-0.0088023796659708609, -1.1139714201282072)	(-8.5244815514981447, 6.1920600601818183)	(2.4382730348244745, 6.3274835215597385)	(2.2346636981374743, -4.9163333182104916)	1.0	z	2.09677
26	N	A	N	B					B	4	1	shapes	A	2	False	12	(5.4143812386947996, 1.9766261622828978)	(-7.2202948452700921, 4.9082082880890336)	(-7.8476866211687364, -2.1745768030834878)	(7.8414220680208615, -3.4145935761800876)	1.0	slash	2.20832
27	M	A	M	A	B	B	N	N	B	8	2	shapes	M	2	False	12	(0.084016696430573745, -8.5886726231983435)	(-2.1429689492431319, -0.92024359894187935)	(-8.2932942255279105, -8.1438861000573119)	(-7.5920265965943328, 3.6138468210400578)	1.0	slash	2.29186
28	M	B	A	N	M	N	B	A	N	8	5	shapes	N	2	True	12	(-5.9248757787588859, -0.46562491457753019)	(-6.3388572835316381, 7.1943161047370516)	(-0.44840079538015409, -8.5900244357652795)	(2.749532252507521, 2.4100421932983753)	1.0	slash	1.26935
29	N	B	B	A	N	A	M	M	M	8	7	shapes	M	2	True	12	(-4.404722491770511, -7.9249196389940586)	(-7.7133185803839099, 8.6617644528531841)	(3.2853442583503227, 0.81765926371978814)	(3.6836856982001525, -5.5048437302875222)	1.0	slash	1.34891
30	N	A	N	M	A	B	B	M	N	8	7	shapes	M	2	False	12	(0.021940327236642077, 2.2481760265806106)	(-2.8896310052489689, -4.2336342993160789)	(-2.4154027762936918, 6.9660340732056039)	(6.8428174867446234, -7.5659720042752223)	1.0	slash	2.10872
31	M	A	N	N					B	4	3	shapes	N	2	False	12	(-6.2746671809028456, 2.1919461475657922)	(6.4891293375373831, 1.8565265864239127)	(2.4388965519403047, -6.1993959899274209)	(-4.0082433817313143, -7.5814030219654009)	1.0	z	1.64824
32	N	B	N	M	B	M	A	A	M	8	5	shapes	M	2	True	12	(-2.8513962215861994, 6.8940952670999884)	(-7.5213963434394282, -5.2653632752455515)	(0.36694678457514662, -2.6109153483911971)	(5.8073081244912572, -1.1504147925655488)	1.0	slash	2.01985
1	M	B	N	B					N	4	2	shapes	N	3	True	12	(-2.2526239940484514, 4.1408716558780014)	(-7.297149191880008, -7.8321836052577183)	(2.3816269771944629, -8.1761956387203245)	(7.676401628581587, 7.124036575395559)	1.0	slash	1.9074
2	M	A	A	N					B	4	0	shapes	M	3	False	12	(-4.348317622922429, 6.5131439927725694)	(0.16529507431695656, -8.4847424548173009)	(7.6364233866767286, 4.4618489347307122)	(-3.3436734271608559, -5.9975166262291015)	1.0	slash	2.31085
3	N	A	N	A	B	M	M	B	B	8	4	shapes	B	3	True	12	(6.1186967492346422, -4.6872248968226282)	(-8.4304278257068308, -5.1408113104502418)	(2.7103347977992875, -8.131716063038068)	(-5.2375603814279224, -8.3036068445663869)	1.0	slash	3.37444
4	N	A	N	B	B	A	M	M	A	8	1	shapes	A	3	True	12	(-1.6849420618919204, 4.3535479333487093)	(6.6509375284489263, -6.7553577955760584)	(-2.8950108332483389, 8.6577844358227409)	(2.5799235326055534, 6.387292783419662)	1.0	slash	1.35983
5	M	B	A	B					A	4	1	shapes	B	3	False	12	(5.6692789935488133, -8.0659182186331115)	(8.7453728519726113, 1.0195290964272026)	(-4.3157886356123987, -1.8087802150158634)	(-7.4573828489252607, 3.4106014774212969)	1.0	slash	1.36149
6	M	B	B	M	N	N	A	A	B	8	0	shapes	M	3	False	12	(0.60786377598673447, 4.7329192181761623)	(4.5408977778436128, -2.4531293518744315)	(-5.8784534648649425, 1.9852300799909735)	(-0.62795288504186608, -1.8999173769157069)	1.0	slash	1.40527
7	N	B	B	A					N	4	0	shapes	N	3	True	12	(4.6844367567668481, 0.9837413731901492)	(-1.8033335200167127, 3.4216408561493186)	(7.4169073371334484, -5.9545233325066249)	(-7.6126339123227647, -8.0674528758679198)	1.0	z	1.64676
8	M	B	M	B	A	N	A	N	A	8	1	shapes	B	3	False	12	(4.9776121599217031, -1.4890525927710296)	(-0.96349016615820116, 3.9637691162497593)	(-4.6186194611164826, -6.7490492511362454)	(-5.5380160676317374, 5.1120184001842901)	1.0	slash	1.51431
9	M	B	A	M	A	B	N	N	A	8	5	shapes	B	3	False	12	(-1.5235991396869943, -5.0725525068552137)	(6.6108929451751273, 1.1888966662884357)	(5.147351997475992, -7.888969808014207)	(5.3961190771014031, 5.2380905683610521)	1.0	z	1.48804
10	N	A	N	A	B	M	M	B	B	8	7	shapes	B	3	True	12	(-3.6818505059798508, 3.7325039466080909)	(3.6482500937038083, -1.9260394576922106)	(-7.1184417353502454, 6.3585148996432963)	(5.9420969429216939, -5.9923933644308072)	1.0	z	1.17947
11	N	B	M	A					M	4	3	shapes	A	3	False	12	(-8.5408905783442925, -4.8927231247938403)	(0.72259615560704482, -0.38849665592414695)	(5.180672463367781, 2.8228675556044553)	(-6.8005629942629584, 3.7451874994737775)	1.0	z	1.52121
12	N	A	N	M					N	4	1	shapes	A	3	False	12	(6.9883465213999489, 8.634329557627975)	(-7.3869173395232188, -6.5909231586825898)	(-2.6689155277286272, 3.5028832042288922)	(6.5572643417115479, -4.6796282756602965)	1.0	slash	1.61879
13	M	B	N	N	M	A	B	A	A	8	3	shapes	N	3	False	12	(1.488888759452669, 8.1841719178623045)	(-3.412434953488054, 6.8309738222915417)	(-6.5927411172360895, -1.1854995167395366)	(1.3391522996296867, 1.3379519242201852)	1.0	slash	1.75631
14	M	B	M	B	N	A	A	N	B	8	3	shapes	B	3	True	12	(-5.0097011738639727, -2.0858512720511886)	(7.9073137584559277, -6.8467130559038818)	(6.3484561222906706, 3.7754111072798562)	(-7.2018028046617983, 4.5462296529683872)	1.0	z	1.36192
15	M	A	B	A					A	4	1	shapes	A	3	True	12	(-6.6333528246138744, -6.8376598168259415)	(2.1686539748257392, 4.4815372961713589)	(-5.6713838912234547, 7.158649648093709)	(0.37641438385450776, -5.2746011255085694)	1.0	z	1.47555
16	M	B	M	B					B	4	2	shapes	M	3	False	12	(-0.74736234998872142, 7.6260590663697201)	(7.2512730587386436, 1.0692302188790883)	(-7.1402887385630187, -5.4659663327039771)	(0.12209570109326506, -8.2308820762480437)	1.0	slash	1.65505
17	N	A	N	B					N	4	0	shapes	N	3	True	12	(-5.8547682245506616, -6.3272832260091079)	(1.3261709521375185, 3.7540231967323638)	(6.7860344167403071, -4.6510707861930145)	(-7.5833814689248067, 8.5586166608250522)	1.0	z	0.934808
18	N	B	B	N	A	A	M	M	B	8	4	shapes	A	3	False	12	(-4.175397940565424, -3.768918980463849)	(-7.5190296274648869, 5.1924534898574493)	(-0.31898023454701274, -8.6123637162998694)	(6.3707571825360212, -3.7344992454240495)	1.0	slash	1.40844
19	N	A	M	B	B	M	A	N	N	8	7	shapes	N	3	True	12	(2.4702385786800338, -0.80533722537397434)	(-3.4290951874592004, -3.7528287750163107)	(2.3855809675123734, -7.7749760356844515)	(-6.8419644784475864, -1.5515252132334982)	1.0	slash	1.88404
20	M	A	A	N	M	N	B	B	N	8	2	shapes	A	3	False	12	(-8.7269122737210942, -5.3340481661559505)	(-1.0609286076575133, -6.9750501150886386)	(-8.1935151243528779, 3.1450120041911021)	(3.2503514624597418, 3.0099056643251121)	1.0	z	6.97536
21	M	B	B	A	A	N	M	N	N	8	3	shapes	A	3	False	12	(6.0096573805545201, 0.52858621739327027)	(5.4222916741269387, -5.6519431135646627)	(0.99166359560301842, 7.2164238682649788)	(-0.87339951714964759, -7.2702211120519831)	1.0	slash	1.81672
22	N	A	A	B	N	B	M	M	N	8	4	shapes	N	3	True	12	(7.2165975222591126, -8.5839224552914839)	(-5.7063056812687538, -6.6593229060178762)	(1.2030493103729931, -7.3096614268280211)	(-1.0450953848088984, -1.1237481770495075)	1.0	slash	1.67425
23	N	B	M	B	A	N	A	M	B	8	6	shapes	A	3	False	12	(-0.8508189044243446, 8.2510171099184006)	(-6.1039412621762139, -6.5491342670383359)	(-0.73515101310951536, -0.49826402144726778)	(1.6867227541828704, 4.9472870733556817)	1.0	slash	1.40792
24	N	B	N	M	M	B	A	A	M	8	4	shapes	M	3	True	12	(-2.4651023207884997, -7.1564867803029735)	(2.6588248039113775, 8.7226367078857869)	(2.8951972872246721, 0.53844381663280672)	(-8.5753608720860939, 8.0569790729933466)	1.0	slash	3.33135
25	N	A	B	B					A	4	1	shapes	A	3	True	12	(-0.10406159568491447, 2.1826729976208039)	(7.3111398140952026, -8.3789583906432128)	(-5.7810879240175677, -5.0930291543167296)	(6.547002762808491, 5.3754482275664461)	1.0	z	1.62694
26	N	A	N	M					B	4	3	shapes	M	3	False	12	(-4.1707335725711907, 1.0274207322590367)	(2.1466619760796135, -8.6244847641777849)	(2.1557451304525497, 7.0461266736756141)	(-5.3327405174421729, -5.2009692674867152)	1.0	slash	1.75248
27	M	A	B	A					M	4	0	shapes	M	3	True	12	(-1.596624903809583, 7.3170337471710312)	(5.0022510627146115, 8.4769434009950615)	(-2.4074275295990821, -0.18265375337279899)	(3.9146434319190107, -8.7076367624074447)	1.0	z	1.31613
28	M	B	A	A					N	4	1	shapes	B	3	False	12	(4.348584408576194, -3.1937018463291711)	(2.1626234293042383, 2.2891019786062525)	(-1.7433589682904973, 3.7040511421609157)	(-8.2915698620975231, -1.8651109204031355)	1.0	slash	1.59153
29	M	B	A	M					A	4	1	shapes	B	3	False	12	(-4.7408391842044013, -8.0957464812380593)	(3.4670824503911408, 8.632391865190435)	(-3.1778888746903338, 6.8657077184980615)	(0.67013896529870465, -4.3402868607941452)	1.0	z	2.84334
30	M	B	N	N					M	4	0	shapes	M	3	True	12	(2.1860541973562864, -1.3937735018049988)	(-7.2620875028245084, -8.6435206289728761)	(-2.8390194332037586, 6.0219721914856983)	(4.4217246651069715, 2.3404121982726718)	1.0	z	1.56285
31	M	A	M	B	A	B	N	N	N	8	6	shapes	N	3	True	12	(0.58964994413643446, 6.7237932333842512)	(3.2666059527899183, -3.404905934227723)	(1.6233416779466854, 1.684770876612486)	(-3.1627110143638015, -8.3366483197237962)	1.0	slash	2.42246
32	N	B	N	A					N	4	0	shapes	N	3	True	12	(-3.9604526614785973, -2.3296659998686122)	(8.4671062221470592, 5.3803132987156523)	(-6.9274978169983648, 3.9634604682226549)	(4.0706371592632014, -6.7722761365284043)	1.0	z	1.2195
1	N	A	A	B	N	M	B	M	M	8	4	shapes	N	4	False	12	(-3.0292573246167587, -4.9339986852055322)	(-8.1837099036136109, 3.7809073634567518)	(4.8108929139118395, 7.988691251345859)	(-8.3036583951621505, -7.3005088208016291)	1.0	slash	4.21523
2	N	B	B	M					N	4	0	shapes	N	4	True	12	(-6.8400846733709875, 3.1603259777291104)	(0.24719229262897002, -2.5866723178154372)	(4.236108304969763, 4.6293861196828736)	(-8.4123179889195061, -3.9355787325188487)	1.0	slash	3.66276
3	M	A	A	B	N	M	B	N	A	8	2	shapes	A	4	True	12	(-5.9369367812515819, 4.4537539998130988)	(8.5172021538255187, -0.043565885434539098)	(1.5210080758647599, 2.175158990205146)	(-4.5316199585260328, 0.45066326803840973)	1.0	z	1.83825
4	N	A	A	B	M	B	N	M	B	8	2	shapes	A	4	False	12	(-7.9157383694284462, -2.2139630830903068)	(-5.263414394388902, 4.0682810145357617)	(-4.3721496039926615, -7.6759085877927919)	(4.726957004137736, 6.9213720236993534)	1.0	slash	1.72399
5	M	B	A	A					B	4	1	shapes	B	4	True	12	(4.5252479434345592, -3.608551255206689)	(1.3927795205651456, 4.1742042123901584)	(-3.719225623911659, -7.4569902193401854)	(-5.3874395913998816, 3.1740680171092972)	1.0	slash	2.05359
6	N	B	N	A					B	4	3	shapes	A	4	False	12	(-6.747194648093342, 7.675245062843139)	(4.9098232717056849, 5.5822655594974631)	(6.4838103452306832, -6.0117059752392699)	(-2.3991279718280927, -6.7043225589894195)	1.0	z	1.89102
7	N	B	B	M	A	M	N	A	N	8	6	shapes	N	4	True	12	(5.7709186532232106, -3.1199546720427414)	(-5.5287462882814307, -6.3998596849989919)	(2.3184175275155408, 2.0452256531197239)	(-3.6003876244244974, 6.9042598188640358)	1.0	slash	1.27671
8	M	B	A	A					A	4	2	shapes	A	4	True	12	(-0.16243707221593695, 7.6869052081963716)	(8.6747042427701651, 3.9041432100005036)	(-0.57877515288982018, -5.1063266710663324)	(7.4331916968206038, -0.12751993794572236)	1.0	z	1.24023
9	M	A	A	B					N	4	0	shapes	M	4	False	12	(-8.6883531148981952, -1.2586310740755726)	(-2.0909629153702696, 2.5636324969630913)	(6.642727279334224, -2.899309395250822)	(2.2168367542508154, 6.7304443632094024)	1.0	slash	1.18603
10	M	B	M	A	N	A	B	N	B	8	6	shapes	B	4	True	12	(-8.4481466803789118, -4.7759794645142923)	(3.6230371068235439, 8.1714049196781673)	(-1.9372254466594079, 2.0857423109663138)	(-5.2679471915406033, 5.9065509663103004)	1.0	slash	2.87356
11	M	A	B	N					N	4	0	shapes	M	4	False	12	(-5.9456709911840102, 1.9426403010671383)	(2.6797382929907414, 7.938237270072829)	(0.046086006952865688, -4.3357840532249687)	(-3.9632469765481808, -8.2292515325820492)	1.0	slash	1.61312
12	N	A	M	B	A	B	N	M	M	8	7	shapes	M	4	True	12	(6.7287509767287492, 1.5767887566436745)	(5.1895934684146425, -5.7724313335768231)	(-5.881428609800917, 6.9176957210311727)	(-1.3517896779373197, 5.1041156599522584)	1.0	z	1.41465
13	N	A	A	B	M	N	M	B	M	8	6	shapes	M	4	True	12	(4.0230233332172176, -1.7045879804002348)	(6.2538849248964148, 6.7203646640614139)	(-5.2585248430363682, 5.4348309595661615)	(6.8396514159086621, 1.423205553808307)	1.0	slash	2.40027
14	N	A	A	M	B	B	N	M	N	8	4	shapes	B	4	False	12	(-1.43850932389695, 6.2582861311981581)	(2.5034157032067696, 2.5618014037328454)	(-6.3645105805667157, -4.1990788331167659)	(8.2989518672779816, -0.78678817714815441)	1.0	slash	1.81374
15	M	B	B	M					M	4	2	shapes	B	4	False	12	(5.231879747855988, -7.4656409149873912)	(-4.1971591272525499, 2.876648304883954)	(-5.4045031897934805, -3.1416184888127585)	(6.9926896557356439, 7.7329353511049135)	1.0	slash	1.34933
16	N	A	A	B					B	4	3	shapes	B	4	True	12	(7.685196508830817, 1.8029821008897677)	(-1.2710423031973956, -8.2295303627778171)	(3.6884319115832778, -0.44905127490252639)	(-5.2454313746973789, 2.1281386627893006)	1.0	slash	1.28089
17	N	A	B	B					B	4	2	shapes	B	4	True	12	(-0.27378724542380795, -4.9786933694987754)	(7.5698681957176319, 5.8373519328180166)	(-1.3753809353409228, 2.9904430498446608)	(6.2589246446645443, -3.1014835989745837)	1.0	z	1.38649
18	N	A	M	N					N	4	0	shapes	N	4	True	12	(-0.27726241594424472, -2.4433007793885126)	(8.354526329978615, 3.4968946920184507)	(-4.9646006406387642, 1.9849817287035343)	(4.3429984643599813, -0.49737178880524091)	1.0	slash	2.43212
19	N	B	A	A					B	4	2	shapes	A	4	False	12	(7.861317692897817, -2.0165245483051129)	(-8.3195553830637738, 3.3841474331234949)	(-1.6047362530357168, -3.0000466140530087)	(3.4632215578544905, 2.0161253538439983)	1.0	z	1.37175
20	M	A	A	B	M	B	N	N	M	8	2	shapes	A	4	False	12	(7.4969991985679734, 8.4656067479563966)	(1.0869304380494054, -4.2658248262916381)	(-7.012670172909802, 6.5887756406241156)	(-6.7507113217492227, -1.2240893531937997)	1.0	slash	1.95726
21	M	B	M	A	B	N	A	N	N	8	7	shapes	N	4	True	12	(-2.5217468749097494, -6.2539377485847165)	(5.4177340255859541, -2.6275254886460075)	(-6.6646008102325922, -1.3066073575548645)	(2.128406638604476, 6.8212091045681227)	1.0	z	1.48279
22	M	B	A	N					N	4	3	shapes	N	4	True	12	(6.0676285891114627, 5.0090586675344575)	(-0.087434733307112822, 4.989515628700282)	(2.3112488436889027, -4.2724037150813263)	(-4.7235743194628386, -0.84443326316566836)	1.0	slash	1.2844
23	M	A	N	M	B	N	B	A	A	8	5	shapes	N	4	False	12	(-6.7372529679488675, 1.4663614495687849)	(-1.3319972113330394, -2.3101805440578662)	(7.0702832939986564, -0.024161101875673552)	(-6.5781928930918179, -8.6134547862534987)	1.0	z	1.79995
24	N	A	A	M	N	M	B	B	M	8	3	shapes	M	4	True	12	(-0.58044760092315784, 1.5636624625360671)	(6.3896852833496443, 1.840618247767873)	(-2.7248011425572667, 6.0959107855373826)	(2.0736174485659635, -5.0354991773397995)	1.0	slash	1.51751
25	M	B	M	B					A	4	0	shapes	M	4	False	12	(-0.63922433992782146, 3.9922201809694116)	(5.1101225543291058, 8.3458329530461128)	(-5.7413425454386022, -7.1770104365695815)	(5.6237269066977174, -8.205082754379724)	1.0	slash	2.32723
26	N	A	M	N	M	A	B	B	M	8	2	shapes	M	4	True	12	(5.3357383179738331, -8.5975386172044157)	(-3.5795650026283523, 4.0001732779337456)	(4.5969595129367224, -1.3846540159999599)	(6.6669936862440657, 5.7780052930651102)	1.0	slash	1.57871
27	M	A	A	B	B	M	N	N	A	8	4	shapes	B	4	False	12	(2.2113573841025289, -5.3865397846251089)	(7.7350011658364082, 7.0707167116546756)	(-4.6918156933317796, -3.481030236624)	(2.7132287622583995, 3.6439698102104501)	1.0	slash	1.9004
28	M	A	B	N					N	4	3	shapes	N	4	True	12	(-0.70910263075449542, 2.2177519802737251)	(3.5309388580470245, -8.1290087310545474)	(5.8554585355586841, 3.4616919281362737)	(-1.3959246846535809, -5.0601439532444701)	1.0	z	1.47402
29	N	A	A	M	M	N	B	B	M	8	1	shapes	A	4	False	12	(7.2367510497944281, -1.9180661759110809)	(5.0613322345125358, 2.7447258887611721)	(4.9004241200915111, -5.9250966258826505)	(-0.87063730343600998, 6.2668045246059982)	1.0	slash	1.30352
30	N	A	N	A	M	M	B	B	N	8	4	shapes	M	4	False	12	(-1.7681046251345816, 0.66381617064195453)	(-2.1542741915824557, -7.1309301107187437)	(1.3249297283271328, 6.2863551646582945)	(7.2061405948267563, -2.0491896732685833)	1.0	slash	1.81494
31	M	B	B	M					B	4	3	shapes	M	4	False	12	(3.3240855247912489, 6.9678778335800544)	(-3.7895503416686829, -6.4644867499693284)	(1.383681240360195, -4.3244844105375444)	(-3.3738613450961843, 2.706303564610252)	1.0	slash	6.21461
32	N	A	N	B					B	4	1	shapes	A	4	False	12	(0.82067027670805892, -1.0346188614990748)	(-0.85458944288594729, 7.2088473981576975)	(3.0664862122897674, 2.9860779488265567)	(-1.5854387343049181, -5.4207504821463672)	1.0	z	1.49384
1	M	A	B	M					N	4	2	shapes	B	5	False	12	(-8.0573323714151019, 3.571820114982847)	(8.480242212173593, 0.0050244725203025808)	(-7.1476006728866244, -0.54495956235129484)	(1.0841243964446363, -3.197173456371261)	1.0	slash	1.27333
2	M	A	N	N	M	B	B	A	B	8	6	shapes	B	5	True	12	(-0.60447499777132307, -6.4422471213269947)	(4.6937134412802877, 5.8935514873121253)	(-4.1992461984299911, 0.74783172697489597)	(-2.4810535798751916, 4.6497829964514104)	1.0	slash	1.69508
3	M	A	M	A	B	B	N	N	B	8	4	shapes	B	5	True	12	(-8.0438365034468919, 1.7463926308667901)	(3.1894995376321926, -4.8752899599638262)	(8.0681767650935114, 3.8172766046427018)	(-4.5322158953283651, 6.2428523753143317)	1.0	z	1.42465
4	N	A	N	B					N	4	2	shapes	N	5	True	12	(-4.7675582971102894, -8.3142832488158138)	(1.5053674385431481, -2.9650600224370418)	(-0.17504318385022266, 8.408724429483442)	(7.5696780507789008, 7.9720418084029738)	1.0	z	1.55844
5	N	B	N	M	A	M	B	A	M	8	3	shapes	M	5	True	12	(7.4896465343484238, 1.1916504211975738)	(-2.6391365586000282, 5.1568011672587701)	(-5.717958455952342, -0.70463615505478217)	(-1.8366440886365023, -7.0615299010141825)	1.0	z	1.25983
6	M	B	A	N					B	4	1	shapes	B	5	True	12	(-8.3546593358028005, -0.75733576179513751)	(4.0298240460827603, 2.9240682765928554)	(-8.3451011288908372, 4.5647692168139784)	(2.2087576205768826, -3.4106708784354627)	1.0	z	1.3616
7	M	B	M	N					N	4	0	shapes	M	5	False	12	(-8.2454724742762231, 5.6830905771316278)	(6.8249356381953561, 4.6480812077932487)	(3.712868884562381, -0.25984305389086693)	(-1.4221656102642068, -0.51011588212513637)	1.0	slash	1.81895
8	N	B	A	A	B	N	M	M	B	8	0	shapes	N	5	False	12	(-1.2571538132891646, -2.3618273014075841)	(6.9927117242847618, -8.5400562844226133)	(-4.033361789196598, 1.9507741842501805)	(-2.4138010304075985, 8.5116418138116607)	1.0	slash	1.7568
9	N	B	N	M					B	4	2	shapes	N	5	False	12	(6.2937912963790534, -4.4602440519737829)	(-6.1692779842512584, 8.5144308819357235)	(-5.6969596748267666, -6.5128199420188455)	(5.6211299809530484, 2.6016945357362964)	1.0	z	1.86445
10	N	A	M	N					A	4	1	shapes	A	5	True	12	(-7.2515358529979528, -3.831427288076287)	(8.7399726279036862, 0.7144114881717698)	(-8.1037590182269152, 8.5043626578389357)	(6.0451410224016691, -4.7341929390385271)	1.0	slash	1.51785
11	N	A	M	A					N	4	0	shapes	N	5	True	12	(-8.406935215387584, -2.7620452391455572)	(1.5153684206806517, 0.41340782983314028)	(-0.99208452499740662, 4.2000318289868055)	(1.760746005961396, -8.5913701741888371)	1.0	slash	1.80761
12	M	A	M	N	N	A	B	B	A	8	2	shapes	M	5	False	12	(-6.6244260810997719, -4.5815767823277858)	(-8.2297400704533299, 6.8689003155686148)	(0.79873518548526867, -4.6248509352195031)	(4.963045833044756, 8.1653354702781122)	1.0	z	1.78706
13	M	A	B	M					M	4	2	shapes	B	5	False	12	(3.7098272541581565, 6.7040894426105453)	(-0.42135180660043581, -6.3836425192620752)	(8.2141365585349853, -8.3943551103295739)	(-6.0166809811978714, 6.358026367598665)	1.0	slash	1.54271
14	M	A	N	M	A	B	B	N	B	8	6	shapes	B	5	True	12	(3.6357746159278541, 0.54462365569798621)	(-4.3014814285550163, -1.283577143350886)	(-8.6755497021987438, 7.4208111936765526)	(-4.2845520566143884, -8.0491393042669372)	1.0	z	1.84432
15	N	B	M	B					N	4	0	shapes	N	5	True	12	(-0.1652740741061578, -8.3705166895720016)	(-2.6210210943063235, 4.0619100015138176)	(3.2035388686159862, 4.7606521241371151)	(5.5515437917464467, -7.976529078533753)	1.0	z	1.16583
16	M	A	A	M					B	4	1	shapes	A	5	False	12	(-0.13527992759288843, 3.0942495965754109)	(8.6652517840834307, -1.6368961488308624)	(-8.6542885521449886, -8.4609884146477246)	(1.5832735101861619, 8.7242523103277847)	1.0	slash	1.3995
17	N	B	B	A					N	4	0	shapes	N	5	True	12	(-5.5503308597680743, 7.7224530683544543)	(-2.5743575774978016, -2.6520104251723371)	(5.0707316021813913, -4.6824631148153406)	(5.3842843987621833, 7.4845616313137882)	1.0	slash	3.87288
18	M	A	A	M	B	N	B	N	M	8	2	shapes	A	5	False	12	(-1.0749851179587369, 8.0378995627573389)	(1.9865535075295178, 0.26209149725077729)	(0.13923742842136377, -8.6636795119627656)	(-6.3075172238337078, -0.46074202364076378)	1.0	slash	1.71082
19	N	B	M	N	B	M	A	A	M	8	5	shapes	M	5	True	12	(-6.7737507045001131, -6.9992437628134585)	(6.2666295063962156, -4.1542773627899301)	(-2.2369171825882725, -0.53465349996430511)	(1.9097815008860657, -0.16394291367822689)	1.0	z	1.58015
20	N	B	A	M	B	A	N	M	N	8	6	shapes	N	5	True	12	(4.6380447077459213, -2.1535621650844066)	(8.4107587394877861, 3.5080518975894712)	(-2.8217301721693522, -2.5518365817222541)	(-5.2642861853758749, -7.1633191968240748)	1.0	slash	1.83763
21	N	A	A	M	B	N	M	B	B	8	6	shapes	M	5	False	12	(-2.4184922727071614, -4.5065958834619835)	(-6.9230064620778435, -2.7940820393676837)	(0.99341399417517096, 0.26420550689079292)	(1.250915110654466, -8.0564386532760182)	1.0	slash	1.73129
22	N	A	B	N					M	4	2	shapes	B	5	False	12	(-7.1842632469364816, 1.0227386800466771)	(5.5268128978101618, 3.0251954311298217)	(-6.0805122570565597, -8.4819170472245009)	(7.8639727848764274, -7.9955870225318559)	1.0	slash	1.85091
23	M	A	A	B					B	4	2	shapes	A	5	False	12	(2.9050398424531441, 4.2756620025306304)	(0.9772795210780103, -6.0749953434033062)	(-5.0351486383810204, 0.73497677656776084)	(-7.7097299594683211, -4.9333787034369445)	1.0	z	1.41838
24	M	B	M	B	A	N	N	A	A	8	1	shapes	B	5	False	12	(5.1971064056457923, -1.8340466845958439)	(0.22344221988670121, -0.5642925882799581)	(-4.3394291432831222, -1.8268913513970135)	(1.0665747315606797, 4.1825579847209191)	1.0	slash	1.38805
25	N	A	N	M					B	4	0	shapes	N	5	False	12	(-0.79655463039137064, -4.6367272712322132)	(3.6237917885148612, -1.3335088501266297)	(8.6227667646045454, 0.81052044454560956)	(-7.6615573742238219, 7.9280229763835166)	1.0	slash	1.27173
26	M	A	N	M					M	4	0	shapes	M	5	True	12	(6.3917968128818377, -2.2349656030142855)	(-0.7877546802164872, -2.8968575815191988)	(-4.6986361328545456, 1.2560789838534578)	(3.8700125248040127, 5.5783202755623549)	1.0	z	1.29918
27	N	B	N	M	A	B	A	M	B	8	4	shapes	A	5	False	12	(-6.3993979444228781, -0.23812960427436991)	(8.1397441694150032, 0.21749076948295709)	(5.1413821064385079, 3.3379679604613255)	(-6.0913106669682122, 4.6646793019445632)	1.0	slash	1.37267
28	N	A	B	A	N	B	M	M	A	8	3	shapes	A	5	True	12	(6.1366393092472968, 7.3014771163362759)	(-3.6134797112684769, 5.9756267487342907)	(6.9475796101912923, 1.7046782990622695)	(-2.7594605239337096, -3.0209091509709927)	1.0	z	1.45433
29	M	A	N	M					M	4	0	shapes	M	5	True	12	(-2.7668745900281007, -6.0313282861564126)	(-7.4070200174803329, 8.6338916295723038)	(3.2577907279454976, 3.0667701067284252)	(4.5542658638808966, -5.8781718641110841)	1.0	z	0.870194
30	N	A	M	B	N	B	A	M	N	8	0	shapes	N	5	True	12	(7.7172074889582944, 3.8631531728706641)	(0.29322326745570493, 2.082008242150879)	(-3.3606489463171014, -2.0776782940900524)	(-4.2435550668109405, -6.7148915739723734)	1.0	slash	1.20573
31	N	B	M	B	M	A	A	N	B	8	4	shapes	M	5	False	12	(-6.5207439930033164, -1.119469663765547)	(4.4057703550386744, 1.1279487301654978)	(7.3042680209204143, -2.0886627649294613)	(-7.1646926209591228, 7.9933624896158193)	1.0	slash	1.74532
32	M	B	B	M	A	A	N	N	N	8	2	shapes	B	5	False	12	(7.7533683653771455, -8.1272782229765816)	(3.7233072351717365, -2.3417540701327058)	(-4.5760785501445103, -0.86539123926392936)	(-8.2256351349686554, 5.7643489122833582)	1.0	slash	1.87285
1	N	A	B	M	N	A	M	B	M	8	3	shapes	M	6	True	12	(-2.9062136531304867, -2.3668545541132024)	(-5.7886190614645372, -6.0152686957923454)	(-3.9067522821687257, 8.6270238625555322)	(7.407800994835835, 7.4914436627804584)	1.0	slash	1.38461
2	M	B	N	A	B	M	A	N	B	8	0	shapes	M	6	False	12	(-2.0763742021261642, 7.8269091296324156)	(-8.4332293440955226, -6.4912324825932251)	(-0.7790090285277973, -7.2885948718563114)	(-4.5870829275630323, 0.19076749865572218)	1.0	slash	1.47211
3	M	B	B	A	A	M	N	N	M	8	0	shapes	M	6	True	12	(5.5960094782111334, 6.4389024905843222)	(-8.6268802183859226, 6.2566132527193261)	(2.7831298278676204, -5.4963906095205726)	(6.2446916603500142, -1.7000666347587181)	1.0	z	1.38172
4	N	B	A	B					B	4	1	shapes	B	6	True	12	(8.2335280491079814, -8.0382206586735823)	(-1.2820318734446392, 3.1447691983095449)	(5.1354145853151376, 4.7536963428046448)	(-3.4755068486589762, -4.7733891134920752)	1.0	z	2.12334
5	M	B	M	B	N	A	N	A	N	8	6	shapes	N	6	True	12	(-2.688885614726189, -8.0491077464237115)	(-1.6235237669404272, 4.1915430116457895)	(5.7022502570393065, 2.925610965112396)	(-4.291553380484399, -1.4059473413671117)	1.0	slash	1.16621
6	M	B	N	M	A	A	B	N	M	8	1	shapes	B	6	False	12	(-2.1768295801373716, -5.5736799431832349)	(3.2149417007855323, -6.836359430364074)	(-0.26443894668690326, -0.036457586410584497)	(5.3530476755314176, -0.32491328582749013)	1.0	slash	1.37853
7	N	B	B	N	M	A	M	A	M	8	0	shapes	N	6	False	12	(-1.7101984668474381, -1.1314647470429611)	(2.0501409136580371, -8.6746756680016901)	(-6.7156147375087869, 1.0313087955249429)	(-5.5852277945792128, -2.9027157289987802)	1.0	z	1.62813
8	M	B	M	B	A	A	N	N	B	8	3	shapes	B	6	True	12	(0.81801248957481931, 4.7043251848108838)	(4.6880770526830293, 2.2605287004612293)	(-2.9110158996268085, -5.0946886078682674)	(-2.5264155609274583, 0.062482233317767921)	1.0	slash	2.05771
9	M	A	B	M	B	N	A	N	N	8	7	shapes	N	6	True	12	(4.5766059379516815, -5.3314668298293402)	(6.5758798521836912, -1.0144556421748092)	(-2.0689221065933054, 0.43370383404319846)	(-7.4883252244610219, 2.1358127247854668)	1.0	z	1.93913
10	N	B	N	M	B	A	A	M	N	8	4	shapes	B	6	False	12	(-3.933813617724466, -7.8732201258337122)	(-6.0930526009251551, 6.4231662294253322)	(3.6633826706085983, -0.13958603064548214)	(0.096171220905231891, -3.8836237918860776)	1.0	slash	2.04481
11	M	A	N	N	A	M	B	B	N	8	3	shapes	N	6	True	12	(-0.95867721300471498, -0.98726524207271105)	(-3.6592842048860241, -8.1385889796216464)	(-6.9910190159837686, 8.5649836862896152)	(8.5582951943636552, -4.4784737419881706)	1.0	slash	1.47231
12	M	A	B	A					A	4	2	shapes	B	6	False	12	(-4.7573417173183108, -4.8819025136892789)	(4.2488810196660047, -1.0782338889810887)	(-6.6919404882754225, 8.1243541121865945)	(7.8250997762365309, 2.5586817037103096)	1.0	z	2.17163
13	M	B	B	M	A	N	N	A	N	8	4	shapes	A	6	False	12	(6.7593738304914375, 2.7203210173362162)	(5.8258021466596137, -2.2518492948452629)	(-6.6544917482786659, 4.8477531747242057)	(-3.4828941797847293, 0.33550490252895138)	1.0	slash	1.16348
14	N	A	M	B					N	4	0	shapes	N	6	True	12	(7.6287132194045952, -7.3244196018214023)	(-7.5616971533441957, 7.8963828399022695)	(0.83665141567609247, 2.733962966644242)	(-2.2522299368540564, -4.1353844343909962)	1.0	z	1.14896
15	N	A	N	M					N	4	2	shapes	N	6	True	12	(1.0851961167823951, -6.609755340918861)	(-0.86292379023068921, 6.3821734757002488)	(4.8788107383387853, 6.6845529920930282)	(-8.0265718884526152, -5.6691124059816431)	1.0	z	1.46476
16	M	B	N	B					A	4	2	shapes	N	6	False	12	(-2.5081183555177189, -4.9138821645432831)	(4.5250785144518844, -0.56953924201661543)	(-1.5032263803771837, 6.3076425494672641)	(7.3044157774957874, 5.6314864985190347)	1.0	z	1.55821
17	N	B	N	B					M	4	2	shapes	N	6	False	12	(-5.8966343416510352, -7.9540717245892294)	(7.1416771598044111, 4.9086210637568932)	(8.1127856939928726, -3.9064900567922116)	(-2.5350797857773681, 5.1128500484881592)	1.0	slash	1.71189
18	N	A	A	N					N	4	0	shapes	N	6	True	12	(-6.3817331206978647, 8.5838530677473415)	(-3.1005450957816301, -1.3630312552147315)	(2.8337319457230024, 5.2059479410322229)	(7.3467972848439373, -2.6807331470657916)	1.0	z	1.36349
19	M	A	N	B	M	A	N	B	B	8	7	shapes	B	6	True	12	(-0.95358995286571879, -5.4266039839718587)	(3.1515917632892165, -7.3353414690449732)	(3.9627890136725625, 0.70905966177291191)	(-6.5041399264806898, -4.1805898459885933)	1.0	slash	1.53508
20	N	B	N	B					A	4	3	shapes	B	6	False	12	(-2.0454659911799773, 4.6836197436935603)	(-2.9060302577517012, -3.3703672729979068)	(8.428771889205386, -1.5757022411941284)	(1.7007485044559161, 1.127773316255599)	1.0	z	1.77477
21	N	A	N	A					M	4	0	shapes	N	6	False	12	(1.1597607019233109, -1.8408013317037994)	(7.3332175219937277, 3.266537596539143)	(-7.3818640226396752, 1.1952344472621874)	(-7.890542088577849, -7.2084061601482539)	1.0	z	4.01217
22	M	A	B	A	N	N	B	M	B	8	0	shapes	M	6	False	12	(8.7249471246167403, -1.2466046336635674)	(-1.3795487061093468, -2.845949507640074)	(4.6463113381904506, -2.6870639445512285)	(4.9746301384250682, 1.3208132911301007)	1.0	slash	1.446
23	N	B	A	N					N	4	1	shapes	B	6	False	12	(3.029597175062845, -7.6131074359998436)	(-4.150352075091531, -6.3958318180715121)	(1.8615956705604049, 2.0785176028116794)	(-7.1443042831120307, 3.4084996162378687)	1.0	slash	2.17518
24	M	A	A	M	B	N	B	N	A	8	5	shapes	N	6	False	12	(1.7096165281193052, 1.270540404517126)	(-5.9900760615362003, 6.9579935981229912)	(6.6118152529370171, -0.33073894391638881)	(0.35540642546667378, 6.2038743984883968)	1.0	z	2.54486
25	N	A	A	N					M	4	2	shapes	A	6	False	12	(5.3318087725694046, -4.6228833594396939)	(-7.6490706863983497, 2.4879711181945972)	(6.1905266577597597, 3.0773443215858922)	(-4.5097726058175809, -5.497259392824688)	1.0	slash	1.41441
26	M	B	M	N					N	4	3	shapes	N	6	True	12	(-4.1977295935575487, -1.0432312584892243)	(5.2925362317113951, -2.8536157023773052)	(0.76963763053233158, 5.9251765696574523)	(-6.0066287938861915, 5.8770355564358372)	1.0	slash	3.174
27	M	A	B	M					A	4	0	shapes	M	6	False	12	(7.9946915763101707, -7.4296267725281844)	(-0.2310656389960819, 8.2185873818901705)	(-6.9853535615656241, -7.6556496250571699)	(3.5850491485273732, 3.0466815510931333)	1.0	slash	1.58968
28	N	B	B	N					N	4	3	shapes	N	6	True	12	(-2.34163089235747, -7.8893970263394788)	(1.3247850222596327, -0.37150860859846446)	(-3.9102792693224311, 6.35879021551645)	(5.4551804197401221, 6.1817175213857425)	1.0	slash	1.3769
29	N	A	M	N	M	A	B	B	A	8	5	shapes	A	6	True	12	(0.71562227957302049, 2.5815272919215566)	(-2.8622300129641554, -4.5317898678547239)	(3.3371147774877024, -2.3334344389386175)	(5.1162766842631733, 5.8691725221987365)	1.0	z	5.03272
30	M	A	B	M					A	4	1	shapes	A	6	True	12	(-4.2551527904346873, -0.66790304531424738)	(-2.2297726517182817, 3.279737041128417)	(4.2587457391243273, 5.4193923737669021)	(0.43713592872632567, -0.36764606685644274)	1.0	z	1.53187
31	N	B	A	B	A	M	N	M	B	8	7	shapes	M	6	False	12	(2.3912674049733358, 6.860931055609587)	(-7.315547130322658, 0.098728847488445126)	(-0.19265949333948562, 0.11906773993053044)	(6.7521263476858149, 4.2458428392790726)	1.0	slash	1.3737
32	N	B	B	M					M	4	3	shapes	M	6	True	12	(6.3259110219887464, -0.66046979214165269)	(-4.5663149303892858, -5.7944973848497181)	(3.7930515748061957, 3.8247533890802003)	(-2.6550558494156205, 4.0950191488905379)	1.0	z	1.21303
1	M	B	A	A	B	M	N	N	B	8	3	shapes	A	7	False	12	(6.3413243097950645, 5.4021960584335584)	(-2.2473949865766967, 0.37053161070322282)	(-2.588418005023156, 7.6100541446421985)	(2.685931938723563, 0.80479352287948913)	1.0	slash	1.81877
2	N	B	B	A	N	M	A	M	N	8	4	shapes	N	7	True	12	(-3.9020588163408485, -2.0654290354886919)	(3.6997547963296178, -0.58035994010791114)	(-6.5046384171697866, 7.3345389324832837)	(7.8286233451488059, -7.807052362282124)	1.0	slash	2.25237
3	N	A	N	M					N	4	3	shapes	M	7	False	12	(-5.43461856716063, 8.1732542556547472)	(2.5880206979936773, -8.4149031408566657)	(4.6254859972604159, 7.0632503941534885)	(-1.5407632081231952, -0.1481873073288984)	1.0	slash	1.32429
4	M	B	B	N					M	4	3	shapes	N	7	False	12	(2.3038927682981161, 1.1716969494710252)	(-3.5644310119900506, -6.8643681206335527)	(-3.881621763933655, 2.3487396120864918)	(0.083628474030826183, -4.1121349231618751)	1.0	slash	1.58161
5	N	B	B	M					B	4	2	shapes	B	7	True	12	(-3.9382385494017988, -3.0546376161208881)	(1.080161141548718, 1.2812634453361991)	(-2.1638358784485305, 7.7084413886202867)	(4.2576221023930785, -7.2508931272355115)	1.0	z	1.05107
6	N	B	M	M	B	N	A	A	A	8	7	shapes	A	7	True	12	(-1.5425897281573784, -4.2870307318885734)	(2.8865826935159511, -4.3361635990014893)	(7.9809119204728134, -8.1688199114214175)	(-0.78204942877848005, 4.0422644197213007)	1.0	z	3.30073
7	M	B	N	M					A	4	3	shapes	M	7	False	12	(-3.9540553529602924, 5.2153992333004275)	(8.3112412552084827, 5.8438039524154455)	(-2.8070862584278533, -3.0111448868153587)	(2.8629462479879493, -0.31347678606989859)	1.0	slash	2.07428
8	M	B	N	N	A	B	A	M	A	8	6	shapes	A	7	True	12	(3.4194338925036778, 8.3306827829860381)	(-8.578610469856315, 6.6044827434167388)	(-1.2189356928073565, -1.9628748553105488)	(-5.6431708943320587, -7.6109526108649197)	1.0	z	1.93565
9	M	A	M	N	N	A	B	B	M	8	3	shapes	N	7	False	12	(4.541256729822468, -0.57227024022610706)	(0.52757920829688132, -0.16255651165633189)	(5.2506234965818308, 3.731369419757959)	(-1.0887386241407979, 7.7425283053394693)	1.0	slash	1.2152
10	M	B	A	A					M	4	0	shapes	M	7	True	12	(-0.54633935390604371, 3.7349280397320523)	(7.3538891782558942, -1.9416733397481893)	(-1.0527796520747632, -6.4303234581384245)	(8.700427850263555, 2.2802774381716375)	1.0	slash	1.52712
11	N	A	N	B					B	4	3	shapes	B	7	True	12	(-3.4891267358207951, 8.5261529959255036)	(-3.000442856129097, -5.8941438740772503)	(7.332688193439207, 8.7141053086118703)	(4.9473909446622066, -4.9644948168991032)	1.0	slash	1.27842
12	N	B	B	N					N	4	0	shapes	N	7	True	12	(-2.5541650336911017, 5.7762220465942971)	(2.5502148913001683, -0.079046527184482684)	(4.0695903555578372, 3.7630216039106354)	(-8.1839417761764874, -6.952518414064631)	1.0	z	1.68018
13	N	A	N	B					B	4	1	shapes	A	7	False	12	(-2.2590493347531497, -3.1762835636407409)	(-7.4511726734074646, 7.4814382626739082)	(4.1686612789153781, 7.8630563068190575)	(6.68265275885447, -8.4268427996483339)	1.0	slash	1.40968
14	M	A	B	N					A	4	1	shapes	A	7	True	12	(5.2903232504888873, 5.8440118825610661)	(4.003087904894663, -0.35075062931205458)	(-1.7009892831024471, -6.0202579166556447)	(-5.9004580204707295, 7.9721867517184926)	1.0	z	1.1614
15	N	B	B	M	N	A	M	A	M	8	7	shapes	A	7	False	12	(5.425988974817475, -4.6366096455810855)	(-4.4632065605898799, -7.6982958216556208)	(6.6900861366919777, 5.3365636097682678)	(5.3130136889699813, 1.2938691646781617)	1.0	slash	1.26869
16	N	A	A	B					N	4	1	shapes	A	7	False	12	(6.484678611079401, 3.8630150270002659)	(4.9666854339737831, -7.5278791157116629)	(-2.3450684135631024, 1.8640269700078331)	(-6.3563416567511375, -8.477013827912419)	1.0	slash	1.41662
17	N	A	N	B	B	M	A	M	A	8	6	shapes	A	7	True	12	(2.2430162879703399, -5.3385358435965324)	(5.9756977534803877, 2.2525546898714097)	(-1.8930309032343677, 2.9201198606662757)	(-5.5256018872398052, -1.0970675215342602)	1.0	slash	2.15424
18	N	A	N	A					N	4	2	shapes	N	7	True	12	(3.6901006553099016, 6.1562266930756788)	(8.6006276847627525, -5.4987311685236726)	(-1.6194277061475351, 7.0178956306106919)	(-6.7722701321521477, -2.0640730007276105)	1.0	z	1.69392
19	N	B	B	N	M	A	A	M	N	8	3	shapes	N	7	True	12	(-8.0250139071847606, -6.9175187982741875)	(1.4849834550238814, 2.4665537386924861)	(-3.4593122861517314, -5.8909674768697577)	(5.6121661613721496, 4.4051550413024039)	1.0	slash	1.36742
20	N	B	M	N					M	4	3	shapes	N	7	False	12	(4.2973479623622808, -1.0518822230769871)	(-2.5446350650893548, -6.6234139921696693)	(-4.6119443146173849, 3.6285550493369438)	(5.0810205564275002, 3.7623665141023555)	1.0	z	1.61695
21	M	A	M	N	A	B	B	N	B	8	1	shapes	A	7	False	12	(-5.659066422820124, -2.979077227305984)	(5.028671743445905, -0.48622470753845093)	(4.0233424230645571, 5.5032269044594226)	(-6.1019348176190995, -8.7438952394100671)	1.0	slash	1.31429
22	M	A	A	N	M	B	N	B	B	8	7	shapes	B	7	True	12	(-7.5714750886674835, -7.6750323572252999)	(6.8021947178696625, 7.2910094588903362)	(6.4732757776679186, 1.9512580372672019)	(5.7198813923662506, -3.5231605004346598)	1.0	slash	3.79217
23	M	A	N	A	M	N	B	B	N	8	7	shapes	B	7	False	12	(-6.5481159292712041, -8.7156254130661015)	(1.0069408444614236, -1.0861818305625954)	(-1.7236947595632541, 6.2402099632167456)	(-5.5075248460687645, -3.2004183487197952)	1.0	slash	6.46953
24	N	A	M	M	A	B	B	N	B	8	5	shapes	B	7	True	12	(-4.8040664300478362, 1.2300584749441779)	(-6.4004713503879973, 8.3242519087998836)	(0.24269923063410559, -6.9867978222178113)	(1.4817705270649917, 4.68156610846634)	1.0	slash	9.89247
25	N	A	N	M					B	4	2	shapes	N	7	False	12	(6.1046477042028258, -6.8852394204675305)	(8.1597579478194717, 5.1200244643929214)	(-4.4829853651590819, -1.003296769807994)	(-8.6924117915442505, 3.9948877796217381)	1.0	slash	4.25161
26	N	A	B	M					B	4	2	shapes	B	7	True	12	(7.697437836351618, -4.3406956726639638)	(-7.8775508640235072, 3.3850160873901913)	(-5.8331034468654153, -6.463194260045328)	(4.3459798928722346, 3.5630667787390315)	1.0	slash	1.44305
27	N	B	B	M	N	A	M	A	B	8	3	shapes	M	7	False	12	(3.1161395075283824, 1.0720454070652359)	(8.411382584586697, -0.16453551780686482)	(-7.8748980154135708, -2.7452132503484545)	(6.9429653560843292, 4.8521094595720129)	1.0	slash	1.37464
28	M	A	B	B	N	M	N	A	N	8	4	shapes	N	7	True	12	(5.5095539011578953, -4.9450395970693837)	(4.7681150356186155, 5.0933147681768371)	(-2.2041798885976336, 6.256038321381439)	(-4.6061075861222589, -4.6113050969021794)	1.0	z	1.64835
29	N	B	N	B	M	A	M	A	B	8	4	shapes	M	7	False	12	(-0.49132536492580847, -2.3337728988858784)	(5.2770939036897069, 1.4818651101818059)	(-3.8909037267919686, 6.001611996570432)	(8.3215694028460661, -5.0210211477111599)	1.0	slash	1.56384
30	M	B	B	N					B	4	1	shapes	B	7	True	12	(0.67626818249806142, -7.4665604546022202)	(-7.6432395453559963, -4.2884316373301417)	(-6.347379039010133, 6.7416069818261306)	(1.6005371730275524, 4.0399245809367521)	1.0	z	1.55754
31	M	B	M	N	A	B	A	N	A	8	3	shapes	N	7	False	12	(-1.8773788174840096, -2.7919795645905543)	(3.3215778540935066, -7.6804930944277405)	(5.9447574281957909, -4.0131877390889104)	(-8.4780111736313764, -4.6024171206491342)	1.0	z	1.65114
32	M	B	N	M					N	4	3	shapes	M	7	False	12	(-0.41647765775358714, -5.6142632224121787)	(-2.9200784063752225, 2.7096334811825376)	(6.0208757491185274, -0.41597794834912172)	(3.0170670043069876, 7.488867642385717)	1.0	slash	1.49866
1	M	A	B	A	B	M	N	N	A	8	3	shapes	A	8	True	12	(-1.271284697869894, -5.7555133716848861)	(-2.9150543557610362, 3.2162441454623636)	(0.20856243515483897, -1.5925212638663186)	(-7.0811120012963915, -1.355754009009484)	1.0	slash	1.8564
2	M	A	N	A					B	4	0	shapes	M	8	False	12	(-2.072471749387307, 4.191364012593441)	(0.12529713738557291, -3.3579261294813385)	(4.1009296267955939, 7.6740393149395345)	(-5.20024971888403, -5.2345828263901604)	1.0	slash	1.49585
3	M	A	B	B					M	4	2	shapes	B	8	False	12	(2.8756632140224863, -8.6011127698385152)	(6.3348830055591794, 4.7936455467854948)	(-0.37831477321853058, -0.33862244823091103)	(-8.5459122673541952, 3.5153950646729459)	1.0	slash	1.55147
4	N	B	A	M	N	M	A	B	N	8	0	shapes	N	8	True	12	(5.1226815135047516, -2.8818642686017935)	(-2.1822349384150934, -4.9664368016463651)	(-3.6157079141869923, 2.3384258063734134)	(8.4841620667188025, -7.0088747991703917)	1.0	slash	1.43503
5	N	B	M	B	A	N	A	M	B	8	7	shapes	M	8	False	12	(-6.9987640176459065, -3.8050003251232596)	(-7.2717325831864059, 5.0200206943393972)	(5.955978959323069, -2.3351256302788457)	(2.3985420833821802, -7.260829352416641)	1.0	slash	1.44887
6	N	A	M	B					A	4	1	shapes	A	8	True	12	(-0.50758010498110551, -4.3843867851377754)	(6.1353732702462658, 7.1512997566024623)	(-2.0128712838788374, 4.2019907237052507)	(0.91804621673530029, -8.7103645528664444)	1.0	z	1.97631
7	M	A	A	N					N	4	2	shapes	A	8	False	12	(3.4068357690600806, 6.0098858645197701)	(-4.8912142047411349, 5.1755443837245316)	(7.5092771188568648, -3.0849983410605217)	(-0.64957814498241007, -7.2699110873274133)	1.0	slash	1.03993
8	M	A	N	B					B	4	3	shapes	B	8	True	12	(4.0926469781305013, 4.0528506238848738)	(-4.6978895443466664, -3.300088844423624)	(5.4245897820155058, -7.7237179132057223)	(-3.3669753333170069, 3.1737195827305733)	1.0	slash	2.85743
9	N	A	A	B	M	B	N	M	N	8	3	shapes	B	8	False	12	(-6.2159284350786628, 3.2340623865276577)	(4.6838619631409877, 2.0276180204870808)	(8.3363111373825127, -1.8306429236705135)	(3.6773540736952075, 6.4644397672397513)	1.0	slash	2.33695
10	N	B	M	B	N	A	M	A	A	8	6	shapes	M	8	False	12	(6.3817166468331976, -2.4966861618901897)	(4.841657087018433, 5.6613482174510672)	(-7.429685069250759, 2.3117876893717497)	(-1.1979507909788936, 0.65525715739264001)	1.0	slash	1.50658
11	N	B	B	M	M	A	N	A	B	8	1	shapes	B	8	True	12	(8.091418528909184, -2.0768706158206935)	(4.6106071398477901, 8.1432071959398478)	(2.1936718144012328, -8.7146879314356305)	(-7.353986040337988, -1.8572267112070726)	1.0	slash	1.18616
12	N	A	B	A					M	4	0	shapes	N	8	False	12	(5.7867619920259816, 1.3340738269574786)	(-3.0820806848002089, -2.4848443213233011)	(-5.6742744786557537, 6.4669694303232799)	(2.4157454604693314, -2.5327090383388233)	1.0	z	1.47177
13	M	B	N	N	A	A	M	B	A	8	2	shapes	N	8	False	12	(0.025355946454430622, 8.0102666502476794)	(-5.3532429339531609, 7.6988780742642184)	(8.0693750451501884, 2.2107067774827964)	(-0.59156350720057382, 0.20369373969936966)	1.0	z	1.50132
14	N	A	N	M					M	4	0	shapes	N	8	False	12	(-0.82641925536598659, 4.6540260280441874)	(8.6805197345101242, -1.6345432406204727)	(-7.1001959238899612, -3.2541377777881904)	(6.1841756465250324, 7.9631580616461441)	1.0	slash	1.54689
15	M	A	B	A					A	4	1	shapes	A	8	True	12	(6.0030059666243094, 8.2952310809290495)	(-1.9689078211216495, -8.0607082129796019)	(6.9880227190923474, -5.8796590054523215)	(-6.7428238098844444, 3.8212643926129637)	1.0	z	1.01655
16	N	A	N	A	B	B	M	M	A	8	6	shapes	M	8	False	12	(-5.3605738965405898, 6.5843903517486719)	(-3.6076536515067961, 0.28567130522568185)	(6.8113620108061905, -2.6906340255267187)	(6.2013873404850379, 2.1196544596345124)	1.0	slash	1.43223
17	N	A	N	A	B	M	B	M	A	8	3	shapes	A	8	True	12	(-4.9093021385498012, 7.0979200212164493)	(-2.2594599317116515, -5.413003848555066)	(-4.7395957876459844, -0.4764686478773168)	(-0.3491865282289055, 3.0443629330576787)	1.0	slash	1.35185
18	M	A	N	B					M	4	0	shapes	M	8	True	12	(-1.3943177174581631, -0.13869346559469697)	(3.281389351398575, -3.9346005717861621)	(-3.0321610056301633, 4.8334105953213609)	(5.6782745904181002, 0.69985293034000406)	1.0	z	1.77945
19	N	B	M	N	M	B	A	A	B	8	1	shapes	B	8	True	12	(6.6699950625135802, 0.53547089539031312)	(1.669010184890352, 3.4300177500516238)	(-8.4831024264468677, 3.6876399083412643)	(-7.4984969617451265, -3.8356123792111934)	1.0	slash	1.34695
20	M	B	N	N					M	4	0	shapes	M	8	True	12	(-6.6392047729396584, -4.4997191627342774)	(5.0602712999652226, 7.4214884072795684)	(-6.7530514965243711, 5.8591564132737588)	(2.4829918720979052, -2.7669480576906915)	1.0	z	0.992587
21	N	B	B	A					B	4	1	shapes	B	8	True	12	(-0.4102321261788866, -4.4432202256780915)	(7.514974467859421, 4.7630958982420353)	(6.775511736024642, -1.5475243520775077)	(-0.9305369509389827, 2.2623320872232995)	1.0	slash	1.46825
22	M	A	M	A					A	4	0	shapes	M	8	False	12	(1.5816223865565124, -3.7371414284162041)	(6.1613681271148515, 1.4377933056017707)	(-4.3766915787702629, -4.414893600921201)	(-8.0270090947799062, 6.8636571746508057)	1.0	slash	1.08798
23	N	B	N	M	A	A	M	B	A	8	1	shapes	B	8	False	12	(5.501560205259258, 5.6033544082323345)	(7.2496332863150155, -4.9049289572939934)	(0.32990736005681676, -0.20341511620688557)	(-7.2785877387963289, -5.7093472402918373)	1.0	z	1.57149
24	M	B	A	M					A	4	2	shapes	A	8	True	12	(-0.44091211400556851, -2.7658368183624731)	(8.0232832841941288, -7.2896749771972802)	(5.0740089100324575, 5.5213676812737553)	(-3.0582401972472191, 4.2940300368816242)	1.0	z	1.50706
25	N	B	N	M					M	4	0	shapes	N	8	False	12	(-6.6527548348828027, -8.6174613246945384)	(6.3627032513709043, 4.563342769261963)	(1.7873959991075949, -7.467719321030784)	(-5.6566513176010282, 5.6814372874511108)	1.0	slash	1.26454
26	N	A	B	M	A	M	B	N	M	8	6	shapes	B	8	False	12	(0.41810982344278358, 7.5637792034004114)	(5.6930215418723993, -3.2114941901861185)	(-1.8920786841137955, 2.1036055842547441)	(-7.7154452412395873, -6.1465974746172529)	1.0	z	1.61425
27	M	A	N	M					N	4	1	shapes	A	8	False	12	(4.3728702585908437, -5.757250390033426)	(-3.5631629723655189, 6.3638361411224942)	(-8.2454319575338761, -6.8190323293098851)	(5.4617792047145119, 4.1495412329041006)	1.0	slash	2.94979
28	M	A	M	N	A	N	B	B	A	8	0	shapes	M	8	False	12	(1.3115286067272667, -7.6778985565494917)	(-8.5950080298790095, 4.8361853414327491)	(-2.6891063625133009, -2.0277649716263841)	(8.0973541582091428, 1.5573786145209514)	1.0	slash	2.2848
29	N	A	N	A	B	B	M	M	N	8	0	shapes	N	8	True	12	(8.4159944700570151, 1.2458766333134985)	(-3.1002951050257384, -6.8930166009404452)	(-6.4884761177409569, 4.1860738068512617)	(-2.3368538023190588, -2.2169279125818013)	1.0	z	1.53484
30	M	B	B	N	A	A	M	N	B	8	2	shapes	B	8	True	12	(0.83534383292363223, 6.2699730964157077)	(-6.6806472284226279, -0.60352607924152935)	(4.4918436882393493, 8.1053997589781694)	(4.3142065806223204, -5.4693874115236873)	1.0	slash	1.40837
31	N	A	M	A					N	4	0	shapes	N	8	True	12	(4.6330356594023403, 1.86738206033192)	(3.5914651973361487, -7.2794007895572648)	(-6.7836629165605533, 1.0146188818543944)	(-2.8482794226308359, -0.73187951810374763)	1.0	z	1.36019
32	M	A	B	M	B	A	N	N	N	8	6	shapes	N	8	True	12	(5.2380789567753965, -0.94733148871579598)	(-0.72208446285195826, 2.132095407518058)	(-7.858443017737085, -0.29229450308507232)	(-6.9450979476865555, 4.6021665477619891)	1.0	z	1.62168
