TrialNumber	stim0	stim1	stim2	stim3	stim4	stim5	stim6	stim7	stim.probe	ttl.stims	corr.num	trial.type	stim.corr	block	match	Subject	stim.pos0	stim.pos1	stim.pos2	stim.pos3	ran	resp	RT
1	M	B	B	A					A	4	2	shapes	B	Practice	False	120	(-1.7554398586142508, 2.047982815527698)	(-5.3272195318340136, -8.4419622264647547)	(4.3888170574240739, 0.12310793377821838)	(0.40854304840508604, -5.5641307546265626)	1.0	z	6.77557
2	N	A	N	M					M	4	2	shapes	N	Practice	False	120	(3.4614508046846666, 1.8952599536292514)	(2.9250437169668366, -8.6473159712168339)	(-5.0677639135789914, -0.92778551249360053)	(-6.9216727213779237, 3.9164877772960072)	1.0	slash	3.14283
3	M	A	A	B	M	N	N	B	M	8	4	shapes	M	Practice	True	120	(-6.8258587546052567, -7.5458578371834211)	(-3.4088346205392837, -4.2886050028237159)	(-8.4557474080510069, 2.7347029141674497)	(1.0786627446483781, 6.2164677301803977)	1.0	z	1.63828
4	M	B	B	M					M	4	0	shapes	M	Practice	True	120	(5.2359613827793794, 5.576949546721135)	(7.1964207890230636, -7.9173921140769474)	(-1.931956309806802, -4.60745737259841)	(-4.776253801564998, 5.5822686847954603)	1.0	z	1.42385
5	M	B	N	B					B	4	3	shapes	B	Practice	True	120	(-2.5911459371622154, 4.6056478776213954)	(8.2862898869683654, 0.90828441687063943)	(-1.0225528778917292, -2.4187910662663539)	(7.6685483309313724, -7.9346023708056768)	1.0	slash	3.16542
6	N	B	M	A	A	B	N	M	N	8	6	shapes	N	Practice	True	120	(7.3608242621647655, 3.2903446521205097)	(2.4435668225682541, 6.1754714541386644)	(2.9574591117538329, -6.6517135231116846)	(-6.1914681934214695, -3.1912083147216306)	1.0	slash	2.16898
7	M	A	A	M	B	N	N	B	B	8	3	shapes	M	Practice	False	120	(6.2470067091609049, -7.7391831564588207)	(-0.12180592901308884, -6.153479811694174)	(-7.6958220183515573, 3.6103671730904292)	(-5.7338439624989306, -4.5005164224972685)	1.0	slash	2.90863
8	N	A	B	M	B	A	N	M	A	8	2	shapes	B	Practice	False	120	(6.4584747528318243, -6.8525068646658864)	(-3.2152794489396861, -8.5084316553121457)	(3.5010282350995787, 3.6666072323908789)	(-7.1119648589236144, 5.4388840243122427)	1.0	z	1.602
1	N	B	M	M					A	4	3	shapes	M	0	False	120	(6.6241162567400771, 7.942334942563221)	(-2.3207062720316367, 0.017222962755074178)	(4.0761618351476123, -5.2691449517809907)	(-8.7483312482195661, -3.1854182683210883)	1.0	slash	3.08533
2	N	B	M	N	M	B	A	A	A	8	6	shapes	A	0	True	120	(-2.0493793592977436, 4.699043443916743)	(4.2056850839047026, 7.4047137734035182)	(-3.3501123467567551, -7.5916690614304638)	(8.4172799942019587, -1.9355253056025346)	1.0	z	1.20659
3	N	A	A	B	B	M	N	M	N	8	0	shapes	N	0	True	120	(6.2045083914842163, -6.7921162610447832)	(-1.8114402033322641, 5.879288374334708)	(-4.9872891768856427, 8.5257182375140879)	(4.7280899778842702, 8.2528876781770322)	1.0	slash	1.8264
4	M	A	N	N	B	A	M	B	A	8	7	shapes	B	0	False	120	(7.4278581086082518, -1.6269889932978483)	(-3.5780754532748151, 3.5470463615641012)	(-4.8413579408345493, -3.7991822929776173)	(5.0540518052194088, 1.7595961560008764)	1.0	slash	2.02204
5	N	A	N	B	M	A	B	M	M	8	4	shapes	M	0	True	120	(8.5153509239857677, 5.8588661182995221)	(-4.0756746730796971, 4.6688930182126924)	(-0.10865429563121864, -1.4731727691114465)	(5.3308710333277141, 0.55400796656575579)	1.0	slash	2.70141
6	N	A	B	M					A	4	1	shapes	A	0	True	120	(1.4629411505353662, -4.2869493829765641)	(-4.7996854412090872, -8.374783195374027)	(8.4962524500472298, 0.31646238943891802)	(-4.7342564128001978, 4.5079410732860126)	1.0	slash	1.48312
7	N	A	A	B					B	4	0	shapes	N	0	False	120	(-1.2814687111684062, 2.0609803066408769)	(6.5188612816614242, -7.2629899463790712)	(-7.0267186203391274, -0.034092200892809288)	(2.983683248443004, 0.080838840738310935)	1.0	slash	1.3885
8	M	B	B	M					M	4	3	shapes	M	0	True	120	(4.6518778628791626, -0.72161586617341555)	(4.6926940830440795, 6.525253178063064)	(-0.80723577382943201, 1.4295076194251735)	(-1.8069619987738905, -8.472603909310374)	1.0	slash	0.992322
9	N	B	M	M					B	4	3	shapes	M	0	False	120	(-7.8746825182958062, 0.2654039649061648)	(-5.4800072799275146, -5.7155628260520137)	(8.6156085334314518, -1.0478569855655939)	(1.0506380356697598, 8.1190881768002328)	1.0	slash	1.09196
10	M	B	A	N					M	4	0	shapes	M	0	True	120	(6.7877004079746452, 4.7282376501329377)	(4.7189053380692378, -0.16643736600768833)	(-0.4864592587244605, 4.3356425157256986)	(-0.55446705272074581, -7.5886098180998314)	1.0	slash	0.689588
11	M	B	N	M					N	4	3	shapes	M	0	False	120	(8.7021714436689059, 4.3048561904823632)	(6.9460282785272174, -8.6859815674421039)	(-8.2381187364312094, -0.83970889490383627)	(-1.4656725814748111, 2.6247577231430821)	1.0	z	1.30526
12	N	B	M	M	N	A	B	A	N	8	6	shapes	B	0	False	120	(1.7510742344554551, 6.0792811758244056)	(2.9406086636614042, -4.8827039684007776)	(-8.5628045374808384, -2.4854951183239544)	(8.3594571276549416, 1.3938058903549884)	1.0	z	1.40883
13	M	A	M	B	N	A	N	B	B	8	4	shapes	N	0	False	120	(-5.263552742179753, 8.1068535315742842)	(3.4200897699185813, -3.425778625016596)	(-1.0662517639870082, 7.2439680685528689)	(-5.9672524005314109, -2.8340451736843608)	1.0	slash	1.67649
14	N	B	N	A					N	4	0	shapes	N	0	True	120	(6.6846651096205214, -7.9909327202488276)	(8.0805888516045208, 1.1240358114538207)	(-1.1032275155711515, -3.4946372337929441)	(-3.6593459929996914, 4.7486747670921812)	1.0	z	1.7781
15	M	B	B	A					A	4	3	shapes	A	0	True	120	(-4.7179844902732224, -8.6098219634076258)	(6.5194456402088488, 0.21934863257524384)	(-8.669573313614471, 8.2647960448989863)	(7.1483215430975626, -8.2789260424719799)	1.0	z	1.64758
16	N	B	M	N	B	M	A	A	M	8	5	shapes	M	0	True	120	(3.205103580307151, 1.7475410961017701)	(-4.3388097937557104, 8.7139909836448446)	(2.5987669759326231, 5.8523921763571085)	(-0.66623265676266641, -2.7556657941692428)	1.0	z	1.17119
17	M	B	A	B					B	4	1	shapes	B	0	True	120	(-6.0382853910693184, 0.12579590991143164)	(4.0414107544229889, 4.8876171512468769)	(7.5224856876967898, -2.2434080363754987)	(-3.3045563378128904, -6.2038064269479039)	1.0	z	1.27488
18	M	A	A	N					A	4	2	shapes	A	0	True	120	(6.1008188567880328, -5.6011336754112016)	(-4.5963138013937224, -4.0453153363049843)	(-7.9185327513702664, 7.8669595930632248)	(3.2854349850528273, 1.5891130650599727)	1.0	z	1.15837
19	M	B	B	A	A	N	M	N	N	8	1	shapes	B	0	False	120	(1.7659692561172093, 2.0723587083176973)	(-3.8803466839699672, -1.3732565920163076)	(6.8064259000255678, 1.917645220169419)	(-6.1558872406645246, -5.8492826484019638)	1.0	slash	1.30756
20	N	A	N	B	M	M	A	B	A	8	7	shapes	B	0	False	120	(4.2869769955695904, -2.6527845261638756)	(-1.3146827948417528, 2.1344196677984471)	(-4.3225384588681992, -2.637199840267062)	(-7.9142191827900152, 3.040084271708313)	1.0	slash	0.931685
21	M	A	A	M	N	B	B	N	A	8	4	shapes	N	0	False	120	(-2.6642211911944225, 3.2743209195767609)	(0.068597055667320106, -4.5540624371333944)	(-8.1250634370653501, 1.6645250447201132)	(7.0536286426098993, 4.7043344873609882)	1.0	slash	0.877558
22	M	B	N	A					A	4	2	shapes	N	0	False	120	(-0.70400967015540594, -0.089761506801558255)	(7.8458254262611042, -2.6348480025563568)	(-1.557652883074562, 6.0417964007727516)	(3.119212130678191, 4.8869718444279204)	1.0	slash	1.13509
23	N	B	B	M					A	4	0	shapes	N	0	False	120	(-4.6167308492938366, 7.5997679466990462)	(2.2743075381562967, -1.3076421271973935)	(1.1050219438633224, 6.8186781909369163)	(-3.7239680283350411, -7.6253223346637364)	1.0	slash	0.966608
24	M	B	M	A	B	A	N	N	M	8	2	shapes	M	0	True	120	(-1.0174381643636794, 4.8727295805333206)	(7.2682603958355472, 5.8563606060965476)	(-3.3964574857718448, -6.1680217572552314)	(3.6806117048699036, -1.0174705229372227)	1.0	slash	1.19437
25	N	A	A	M	M	N	B	B	N	8	0	shapes	N	0	True	120	(2.7167670698033444, 6.8779994990400937)	(-5.2837791709329842, -8.3077605270718191)	(6.2463714856397434, -6.1176606842628161)	(7.3086552133947613, -0.7169423151568548)	1.0	z	1.66395
26	M	A	B	B					B	4	0	shapes	M	0	False	120	(5.6479477545217982, 5.3596466366411111)	(-7.209043211929318, -7.7529459595016075)	(2.5482937633493368, -3.389424520469416)	(-2.4495314044884342, 5.6082461059953914)	1.0	slash	1.10949
27	N	B	A	M	A	B	M	N	M	8	5	shapes	B	0	False	120	(2.4702052392840592, 7.4583195918919181)	(4.5716242711036621, -6.0068123299909999)	(-3.6539531523365056, 8.4848291499895581)	(8.5580800348921073, -7.346046725348832)	1.0	z	1.17304
28	M	B	M	B	N	A	N	A	N	8	4	shapes	N	0	True	120	(-5.4190725775615336, 6.5367598367930988)	(8.3267890528840134, 6.0605892567889033)	(-6.020360569361106, -8.6675606260507561)	(4.6249903261139096, 3.0344963961394349)	1.0	slash	1.43069
29	N	B	A	N	M	M	A	B	M	8	2	shapes	A	0	False	120	(7.1492872858950225, -2.970396718991287)	(-5.1190146501792881, -3.5834750665532527)	(6.4158698005786974, -7.4284664856285003)	(-8.7285060052172838, -8.2477316792363435)	1.0	slash	1.11032
30	M	B	A	B					M	4	1	shapes	B	0	False	120	(5.640801625926855, 8.4745620095334218)	(3.8649364375048929, -8.4140731179455184)	(-4.233733125610053, -7.1316086173987836)	(-7.4230224411718222, 7.6878308814673595)	1.0	slash	0.937849
31	N	A	N	B	M	A	B	M	M	8	4	shapes	M	0	True	120	(-0.33357021623744032, 0.53651275510305396)	(-3.1701016527963528, -7.2539350979413317)	(6.7004345429945218, -2.4888516869298325)	(1.788326309505603, -6.3638437522760176)	1.0	slash	0.899692
32	N	A	N	A					A	4	1	shapes	A	0	True	120	(4.6112219195975612, 4.1261037006509689)	(-3.9637678517545263, -0.66639885964067069)	(8.1890251227812918, -8.3793887963597165)	(-1.2623238155885126, 6.4635051922774789)	1.0	slash	0.809254
1	M	B	M	B					M	4	0	shapes	M	1	True	120	(3.7174991207519614, 6.7262885370534597)	(-5.912246575026546, -3.9066936652222299)	(-8.2533331139019168, 8.0707623681347265)	(7.4161868705458041, -1.2464732914307426)	1.0	z	1.30844
2	M	A	N	N	A	M	B	B	B	8	2	shapes	N	1	False	120	(7.9497964120599214, 2.0266074410005075)	(-6.845541511250639, -7.4787164988651469)	(4.689619850789013, -8.1504393693415373)	(3.7068542095193955, -0.41635751436276358)	1.0	slash	1.11655
3	N	A	B	M					N	4	3	shapes	M	1	False	120	(-0.73559340827607755, 2.0032350861409203)	(5.6109918776110135, 7.2405237069697481)	(3.7143227648872035, -6.6577523066660795)	(-0.8418079794847193, -3.8460840925444746)	1.0	slash	0.912108
4	N	A	A	N					N	4	2	shapes	A	1	False	120	(-8.4218285005261464, -3.790628282448548)	(5.860271213941509, -3.7821548358902177)	(1.05642451457296, 0.45738498372020331)	(-2.4956899092948008, 3.4043769069742744)	1.0	slash	1.20388
5	M	B	A	B					B	4	3	shapes	B	1	True	120	(-5.811116176244318, 0.33668459988584587)	(6.1399210212038913, -4.45719373727482)	(1.6033602800531259, 3.2764928679791083)	(-4.1546869579536754, -4.6706448317456299)	1.0	slash	1.93332
6	M	B	N	A					M	4	0	shapes	M	1	True	120	(-1.2417382919828324, 7.1267922965951946)	(4.1358633417625086, 7.0245782057665735)	(-6.6046017420589376, -0.48489220190763227)	(2.6662440573710295, -6.4264582368512713)	1.0	slash	1.26081
7	M	B	A	M	A	B	N	N	M	8	3	shapes	M	1	True	120	(-3.972524753131407, -2.6964384597185171)	(2.4115834768862161, -4.3119976690185746)	(-1.3941795909195207, -6.1365316244088568)	(-3.4918499060200876, 5.6503982837942086)	1.0	slash	1.08643
8	M	B	M	B	N	N	A	A	N	8	4	shapes	N	1	True	120	(2.7001762545745862, 7.2853101316485898)	(6.7986530943028036, -1.5861020498604539)	(1.5544666011879116, -6.1968085463652542)	(-4.0412273782325077, -7.9003511577312064)	1.0	slash	1.63417
9	N	B	M	A					A	4	0	shapes	N	1	False	120	(-7.3206602561944223, 6.5495792872865835)	(6.575452441821966, 6.3729111436886949)	(-3.6605456544588737, -3.2140029076788608)	(4.5647329511230588, -1.3176915052314131)	1.0	slash	1.53373
10	N	A	N	A	M	B	M	B	N	8	3	shapes	A	1	False	120	(-7.9138486835321666, 8.0334115640820372)	(-7.7554893604550141, -5.0716270152418677)	(-5.665510747636576, -1.5502987312023997)	(0.5153604717671012, 0.1443188947586993)	1.0	slash	1.23938
11	M	B	A	N					N	4	0	shapes	M	1	False	120	(3.642716005075842, -3.4452709903509318)	(-4.049352571776045, -5.147940875227718)	(-3.5094336419241081, 0.06987459436266974)	(3.928083377719636, 4.0904531158509982)	1.0	slash	1.08904
12	M	A	B	B	A	N	M	N	A	8	4	shapes	A	1	True	120	(-7.1104824056769314, -8.1037875684195235)	(4.3042937452713037, 1.4179707194402145)	(-1.5126032839749612, -3.7715671600111511)	(-2.7501524499844994, 0.29856543758493892)	1.0	slash	0.916687
13	M	A	A	B	N	B	N	M	A	8	5	shapes	B	1	False	120	(-0.87626201944311255, 3.4245507995193663)	(5.6909080425071075, 3.2309954332632334)	(0.41363399162566594, -0.73782248177721321)	(-8.09980569308828, 1.5376656302639482)	1.0	slash	1.29026
14	N	A	A	N					N	4	3	shapes	N	1	True	120	(8.0308375474130855, -5.0807616506142086)	(-6.9459285137318298, 2.8876867139576454)	(0.43674097530746181, 5.8933100977079711)	(-2.9354841743866995, -6.0819674426618215)	1.0	z	1.31193
15	M	A	A	N					A	4	2	shapes	A	1	True	120	(5.8733266098229393, -4.0966585257721375)	(-3.5787205922029175, -7.0339016824256539)	(6.8127466209445906, 6.3366985053918956)	(-6.4187524346234071, 4.9830448769540077)	1.0	z	1.33946
16	N	B	M	M	A	N	B	A	B	8	1	shapes	B	1	True	120	(2.881792898072014, -7.3665297148071485)	(-3.2042038442744207, 2.1974467628406753)	(6.5861193644532872, -2.4770575324834079)	(1.7919030572982422, 5.9636247147916706)	1.0	z	1.52478
17	N	A	M	M					N	4	0	shapes	N	1	True	120	(8.0453153798341539, -8.0546509883708257)	(1.5989892258082428, 4.8943701043236238)	(-6.81299674277893, 8.4511408449484442)	(-0.72656890561053622, -4.418097792281781)	1.0	slash	1.51873
18	N	B	B	A	A	N	M	M	N	8	5	shapes	N	1	True	120	(3.4519947225188847, -1.5811903947468222)	(-7.3347116380971222, -7.0767775528162407)	(-2.6133759395340039, -6.2113189038988814)	(-5.2259538652959572, 7.4823087868392335)	1.0	z	1.65033
19	M	A	N	M	A	B	B	N	M	8	0	shapes	M	1	True	120	(5.2565029492295885, 3.1815200789011797)	(0.6588039682424256, -0.6058941468894421)	(8.1285919730419671, -0.74914398662385828)	(2.9026335520246445, 8.5000200417742384)	1.0	z	1.65394
20	N	A	B	N	A	M	M	B	N	8	7	shapes	B	1	False	120	(1.0765161851132454, 1.6301416870283809)	(2.9098384187993762, 6.7185345693666978)	(2.1272241254273965, -4.3652996419669199)	(-1.1503548523437805, -7.0955968161108673)	1.0	slash	1.20752
21	N	A	M	A	M	N	B	B	B	8	0	shapes	N	1	False	120	(1.9436046168722889, -6.4835360708562195)	(5.4960739646234131, 1.9829999814494172)	(7.3033866123067241, 6.2742495701900012)	(6.8843532438830817, -5.7402403347917499)	1.0	z	1.29912
22	N	A	A	N	B	B	M	M	A	8	4	shapes	B	1	False	120	(-7.2573597874742424, -1.625993543995115)	(3.6498785633385609, 0.78174248500929444)	(2.4905370015373158, 6.4146967244842266)	(-1.5348203649642285, -5.0246489854753058)	1.0	z	1.35679
23	N	B	A	N					A	4	3	shapes	N	1	False	120	(2.5349935279726683, -0.018818264784657757)	(-5.4195190037128569, -8.630282545680112)	(-3.5755535741085431, 4.7085373850068368)	(7.8267884439179163, 7.3842458071251755)	1.0	slash	1.39988
24	N	A	N	B	A	M	B	M	B	8	0	shapes	N	1	False	120	(-2.6004632821515923, 8.4442755105275467)	(-6.6755476367361446, 1.0724943884966542)	(2.9156247139428331, 0.30097705044619616)	(5.4387045011291395, -6.5826846309356988)	1.0	z	1.86988
25	N	A	N	M					A	4	1	shapes	A	1	True	120	(-2.0554415473483809, 4.9055065139127514)	(0.36402716279529201, -7.625136179505696)	(8.44946501430206, 3.4094854063991953)	(-4.2835761284660547, -1.6810997287527751)	1.0	z	1.25752
26	N	A	A	B	N	M	B	M	M	8	5	shapes	M	1	True	120	(-5.2810936359161005, 6.8097323416050131)	(-2.6339140430137382, -5.2366037359024897)	(2.8470524594045212, 5.3004172588840053)	(-6.587053733346349, 2.8567913468437141)	1.0	z	1.17096
27	M	B	A	N					A	4	2	shapes	A	1	True	120	(-4.6214624124546804, 2.5641859285823649)	(-7.4493822449339318, -0.92456385024906851)	(6.9005590556154974, -5.733315367580448)	(1.8024402731956464, 7.7274548318019889)	1.0	z	1.18672
28	N	B	N	M	B	A	A	M	A	8	5	shapes	A	1	True	120	(5.0247298254272739, 4.5944783764991559)	(-3.5940203102346722, -8.3323866770572863)	(7.3104274196322869, -2.6000387172393813)	(-4.545471963822763, -2.2970209559018384)	1.0	z	1.28244
29	M	B	M	A	B	A	N	N	M	8	1	shapes	B	1	False	120	(-5.4223970789220957, 7.7162404980030139)	(0.85522098009536407, 1.1975075007136677)	(8.254349793889503, 2.202185682157074)	(-2.8766824551578027, -6.2222860264368975)	1.0	z	1.43188
30	N	A	N	M					B	4	1	shapes	A	1	False	120	(0.044916353520971342, -3.0615057645829626)	(-2.0867333080258232, 3.7613950707435286)	(-7.6156640949845844, -1.1321317762979408)	(2.4285274376599499, 2.3098227601403014)	1.0	slash	2.03778
31	M	B	N	A					B	4	0	shapes	M	1	False	120	(-1.0801599899952592, 8.7245647588115389)	(3.3104700449485964, 6.8609268834524002)	(2.7659415224026347, -4.0964753615387774)	(-2.8554307604970699, -2.0822758127207726)	1.0	slash	1.04706
32	N	B	B	N					N	4	1	shapes	B	1	False	120	(7.0817201115951001, 6.0435848263242189)	(-6.1225726941824625, 2.7117640045786846)	(-0.53561162805832652, -8.6988300973495409)	(4.3316464725119221, -6.7769189855466099)	1.0	slash	1.1967
1	N	A	M	M	A	B	N	B	A	8	1	shapes	A	2	True	120	(3.6470483092902022, -7.2024818727835562)	(-0.17809528703960709, -2.910420054316142)	(-6.6472367785269562, -6.348352018454813)	(7.8370480092119266, 8.4224385768256234)	1.0	slash	1.43851
2	N	A	M	M	N	B	A	B	A	8	6	shapes	A	2	True	120	(-1.807243128074294, -3.5511073010304601)	(-1.0355561892669796, 0.52137068563146016)	(-8.4467436080749216, 0.47944078479294383)	(3.8325895570760711, 2.4270176570045052)	1.0	slash	1.56381
3	N	B	A	N					N	4	3	shapes	N	2	True	120	(3.7211217622161499, 3.3662352116645859)	(-3.582116419317309, 5.4764196536978318)	(-2.7234699495022792, -6.0835745438650086)	(1.6238457733565301, -3.4298587725462371)	1.0	z	2.66936
4	M	A	M	B					A	4	3	shapes	B	2	False	120	(-2.1244351413771501, 2.2385710938054473)	(6.8587004656436807, 2.5099168462030974)	(7.7669955981317287, -2.825535489735552)	(-0.53572010522741564, -2.1613260459094912)	1.0	slash	1.45704
5	M	B	B	M					M	4	0	shapes	M	2	True	120	(2.3166051071293019, -1.9010085137330046)	(-8.3162746812116541, -7.4024091943905237)	(-4.7500241783434971, 2.3547441247134522)	(6.3938747810023422, 5.9550831452379391)	1.0	z	1.47621
6	N	B	M	B	M	N	A	A	N	8	1	shapes	B	2	False	120	(8.3344335634490676, 6.9095176324191883)	(-2.6590746814502912, -2.3352584870478275)	(8.2655497305197372, -4.3073848684921883)	(-6.0893152926911638, -4.6401730359658968)	1.0	z	1.94807
7	N	A	A	M	N	M	B	B	M	8	3	shapes	M	2	True	120	(-2.3997204611419312, -7.6545840554836779)	(-6.4170972404258206, 5.5064303678663364)	(7.8343540740357476, 4.5451088650414952)	(2.7553612976073687, 8.4500323454453223)	1.0	z	1.69162
8	M	A	A	B					M	4	0	shapes	M	2	True	120	(-2.4342972022987386, 4.9257775994380566)	(7.0367063965012999, 2.0378773670988135)	(-3.2651271377538222, -3.4778243576706052)	(7.0776153165899736, -7.1519694324307963)	1.0	z	0.81144
9	M	B	B	A	A	M	N	N	B	8	6	shapes	N	2	False	120	(1.9288406475430495, -5.6887364601550185)	(5.3138403249200259, -2.6239676244690031)	(-5.63660204405946, -1.5376731982830174)	(-5.3364155606076427, 4.6909558583884028)	1.0	slash	1.22122
10	N	B	B	A					N	4	2	shapes	B	2	False	120	(-8.455048615550341, -3.1532878665458979)	(1.7022216902776055, 5.7798453284193041)	(-3.6568590766568576, 4.3890625876190974)	(4.6478937762291803, -2.6360102023748988)	1.0	slash	1.25069
11	N	A	N	A					B	4	2	shapes	N	2	False	120	(-5.4449058875666729, 1.6011539217136583)	(2.4545663691409096, -7.6888476696933727)	(-5.7253311604633588, -8.2761389519147794)	(2.5252171845018516, 1.6638286977510344)	1.0	slash	0.770331
12	N	A	M	N	M	A	B	B	M	8	1	shapes	A	2	False	120	(0.30225615995321498, -7.1494858255081573)	(6.1529161187240469, 4.2971323933289831)	(-2.6374472737228869, -0.60797459822914846)	(0.35866980668132697, 5.4166415639656744)	1.0	slash	0.662152
13	N	A	N	A					N	4	2	shapes	N	2	True	120	(-8.0109490766948035, 3.0465045632360432)	(6.4408754620166704, -1.2582830626850061)	(0.19994516250672234, 1.7898547710685904)	(-4.1360773997520823, -2.3179557293117963)	1.0	z	1.01955
14	M	A	B	B					N	4	2	shapes	B	2	False	120	(3.1303920345525462, 3.1577494096812728)	(-1.8115397821140684, 4.7513859001057597)	(6.5844922116423934, -1.9478861670050165)	(-4.1543682278098171, -2.5407837945470622)	1.0	slash	0.822953
15	N	A	A	N	B	M	M	B	B	8	2	shapes	A	2	False	120	(-0.34387683765075927, 6.7194280250751621)	(3.3033602442067735, -8.4126469752062825)	(2.8667143828428081, -2.5925090676985363)	(0.62191357903886946, 2.710752409216548)	1.0	z	0.735151
16	M	A	N	A					M	4	0	shapes	M	2	True	120	(-7.1466581882252171, 4.5764097781350177)	(6.2586595345228808, 4.5329499542407383)	(8.6482451868057666, -6.2075327323759613)	(-0.71967180677500941, -0.95878200244076517)	1.0	z	1.02223
17	N	A	A	N					A	4	1	shapes	A	2	True	120	(7.9272236893773993, -7.5952865964689593)	(-2.8815930724250292, -7.0463476574761215)	(-3.772464427917197, 2.6070467706716549)	(3.8158975683370837, 0.78472004919716554)	1.0	z	0.588245
18	N	A	A	N	M	B	B	M	N	8	3	shapes	N	2	True	120	(7.1080625148745202, 7.3246408996648604)	(8.1160262516037989, 0.080664278586736415)	(0.962469911732029, -5.2309064265408836)	(3.9367053042673419, -0.70773174912470616)	1.0	slash	0.62797
19	N	A	N	M					B	4	0	shapes	N	2	False	120	(-4.6391546704164153, -0.53622316694863414)	(-1.3048134871643127, 2.0937905173661306)	(5.4871458271633955, 4.8984085860612865)	(7.6110950363637855, -4.1664609399534038)	1.0	slash	1.11166
20	M	A	M	A	B	N	B	N	A	8	5	shapes	N	2	False	120	(3.7862618293240544, -7.560942135774539)	(-3.7180600131184809, -4.9002552775186761)	(0.81097954734131505, 3.3843687200189976)	(0.95922849262612608, -4.2225605091249534)	1.0	slash	0.805155
21	N	B	A	B					A	4	1	shapes	B	2	False	120	(4.3616095166951681, 0.67542590590791463)	(-0.59120233666816091, -0.48870967034400614)	(8.0972997283249555, -7.8603340830245161)	(-3.2649627153828389, 3.1248046476776477)	1.0	slash	0.822779
22	N	A	M	A	B	M	N	B	B	8	2	shapes	M	2	False	120	(4.4269256841125486, -3.4404727818002385)	(2.1760042138519182, -7.5437292119069381)	(-7.6193549250491124, -6.7074718535916213)	(-5.9768617117860785, 4.363845854108396)	1.0	slash	0.814486
23	N	B	B	N	A	A	M	M	N	8	3	shapes	N	2	True	120	(-6.516882317451504, 4.4180072323414521)	(6.1385577681748877, 6.5165993032628844)	(-2.4283642909816114, 8.2176448922695293)	(5.7478423827351097, -6.9862251311291335)	1.0	slash	0.392161
24	M	B	M	B					B	4	0	shapes	M	2	False	120	(5.3826177107176303, -6.1665837079014105)	(2.9910468560406596, 5.5481467742723023)	(-5.2054700088871542, -4.0048377725309408)	(-8.6773603860371207, 5.2628352308406576)	1.0	slash	0.651679
25	N	A	N	M	M	B	A	B	N	8	1	shapes	A	2	False	120	(8.0154436250531518, -7.7276682650843318)	(-7.9124555355164681, -8.5680856923885251)	(-7.1683531286281266, 3.6857052968508963)	(6.5040399892651575, -0.25119787819582484)	1.0	slash	1.02149
26	N	A	N	B					M	4	1	shapes	A	2	False	120	(-1.814580494637708, 3.5245490899075183)	(1.174013115642591, -6.1906768477345544)	(7.8531648418393836, 4.6595458972859642)	(-5.9530488528866172, -2.9747866880555964)	1.0	slash	0.539188
27	N	B	M	A					B	4	1	shapes	B	2	True	120	(-4.2510513184024958, 3.428360265924093)	(6.9699614181239475, -2.0716742834046658)	(-5.6813300544781624, -7.3119380037365609)	(4.8539636943401963, 3.3365688798014048)	1.0	slash	0.496913
28	M	A	A	N	M	N	B	B	N	8	5	shapes	N	2	True	120	(7.331734384825161, -4.3647715947332619)	(3.1117767049218301, -0.79741353276750626)	(-8.2291765193989477, -4.7616166615063431)	(-4.2306332198930301, 7.0032389759822387)	1.0	slash	1.32252
29	M	B	M	N	N	A	A	B	M	8	4	shapes	N	2	False	120	(2.6837108515876587, -7.7133878474950777)	(6.9263051217533285, 4.4623636108888807)	(-3.3538952659515324, -7.5486900434692723)	(-1.7412718425749389, 8.5768933344868579)	1.0	slash	2.03025
30	M	B	A	N	M	A	B	N	B	8	1	shapes	B	2	True	120	(-6.1540261894238286, -3.9661142330546308)	(-2.8667830031118244, -1.618506093854819)	(7.7581923620558442, 6.4250305475326446)	(-7.9505673108210857, 0.059681896307690607)	1.0	slash	0.975693
31	M	A	N	M	N	A	B	B	B	8	7	shapes	B	2	True	120	(2.0036894587240628, -1.0518991378237352)	(-7.8734099656575749, -4.3658038491161681)	(-8.1812451427238049, 5.2030402683261023)	(-3.2351872099248702, -8.0543112021033156)	1.0	slash	0.697201
32	N	B	A	A					N	4	0	shapes	N	2	True	120	(-6.5916361281733185, 7.2533167553711806)	(-5.0016662782919532, -0.1968251917594106)	(1.8152201221121746, -0.82699188231376564)	(0.60229202549265359, 5.6675835101895391)	1.0	z	1.33679
1	N	B	A	B	N	A	M	M	N	8	4	shapes	N	3	True	120	(-7.8474914253094843, -1.6269434985704123)	(-3.8627336738811993, -6.4043492311407544)	(5.9588692019956007, -0.57016955763920407)	(5.9856394272739895, -6.6132578300259297)	1.0	z	1.20844
2	M	A	M	N					N	4	1	shapes	A	3	False	120	(-0.16770909048429239, -6.5794089174111221)	(6.5823917163829329, -3.5139400734177535)	(-0.66122930818523251, 3.9748749066543461)	(7.194330799645968, 1.2879914961042935)	1.0	slash	0.872003
3	M	A	A	M					A	4	2	shapes	A	3	True	120	(3.3355295374243745, 4.1724846176496797)	(8.335470743783425, -4.9683836059366353)	(-6.762327953438632, 5.2347300568494077)	(-5.1867552148406268, -2.7297460152102433)	1.0	z	0.851773
4	N	A	N	B					M	4	2	shapes	N	3	False	120	(-6.8769746278251409, 6.1598862126064482)	(0.090205732992160392, -2.7788648169577179)	(-5.5294837837783977, -7.3216087318448713)	(2.2283584427486254, 7.896557338330414)	1.0	z	0.703548
5	M	B	N	M					A	4	2	shapes	N	3	False	120	(2.3440936598669779, -2.2265690031992866)	(-0.92125710214394019, 2.9301845440129419)	(2.7240867694290589, 5.9151307703001539)	(-5.9667629799937121, -0.49035435935354599)	1.0	slash	1.7331
6	M	B	N	M	A	B	A	N	A	8	5	shapes	B	3	False	120	(7.0710584629300701, 5.8849105136042237)	(-4.0781091168441783, 3.2532179999219579)	(-5.0425106940778566, -6.2475746255080189)	(5.1254648023738163, -2.0481469494950968)	1.0	z	0.942947
7	N	B	N	M					M	4	0	shapes	N	3	False	120	(4.6394615385320304, 0.45782558591019651)	(-8.4845302517432764, -0.40157329638094907)	(-7.8069360503219638, 4.2081579664084092)	(1.5169475258790008, -7.8777008185596786)	1.0	z	0.884275
8	N	A	B	N	M	M	A	B	A	8	5	shapes	M	3	False	120	(-5.0617896395123871, 8.3414423983397441)	(2.2183521937209125, -6.1010516386279932)	(7.1940188855535592, -8.7210905338879279)	(-6.117166596732134, -1.9307853076406971)	1.0	slash	1.53602
9	M	A	B	A					A	4	0	shapes	M	3	False	120	(0.38680959818149496, 5.3578277184213832)	(0.46306778843413809, -3.2442197469796623)	(-3.5794459558833394, -7.8775094555867922)	(-8.5651000393715364, 0.66752269306890177)	1.0	slash	2.20761
10	M	A	M	N					M	4	1	shapes	A	3	False	120	(3.1744749051466279, -6.7769334554099236)	(-7.6134701874174064, -2.0291139266089919)	(-5.444999692537472, 5.2960083221731828)	(7.7042717191634758, 1.6338389839936731)	1.0	slash	1.22306
11	N	B	N	M					N	4	1	shapes	B	3	False	120	(4.1004097594189108, -8.0810348603914228)	(6.1890161460313386, 0.81553792459612318)	(-0.30610852174264025, -6.2288617087068827)	(-5.6932652173898095, 5.2912483848967806)	1.0	slash	0.358809
12	N	B	A	N					N	4	0	shapes	N	3	True	120	(-6.4786307692218106, 1.247322189282448)	(4.8499994515760321, -2.4225294029062443)	(0.6187654502224138, 2.7522918225993411)	(-3.754682727147669, -7.8178691214975125)	1.0	z	0.646483
13	N	A	A	M	M	N	B	B	M	8	6	shapes	B	3	False	120	(-2.0971668609799305, -8.574984025360493)	(3.151429496081704, -5.4611630035927856)	(1.8627158392595291, -0.64340828457828181)	(-6.7654758088099838, -3.360266457219458)	1.0	z	0.234017
14	N	B	B	M	A	A	N	M	A	8	4	shapes	A	3	True	120	(4.597366578333423, 2.4224231955325504)	(8.1825438959790304, -4.4748542441620796)	(2.849208858885719, 6.0211206848230354)	(-7.5048500930457536, 6.2128316621171766)	1.0	z	0.807904
15	N	A	B	B	N	A	M	M	A	8	1	shapes	A	3	True	120	(-6.5791930068880511, -8.2111656540855229)	(6.5045935977392713, 7.7157875621585426)	(-6.3097123217975168, 3.5491063694481433)	(-2.724101652353851, 7.8795627102589165)	1.0	z	0.725424
16	M	B	M	N	N	A	A	B	N	8	3	shapes	N	3	True	120	(-4.3831962179450743, -4.2225830498186072)	(6.7000635855745436, -6.6904196169605887)	(4.8052182581122231, 5.2769087796404559)	(7.9727528126728657, -0.42116178462577025)	1.0	slash	1.66503
17	M	A	B	N					A	4	1	shapes	A	3	True	120	(-3.4613803634896954, 0.18374452002773012)	(5.1213144568969913, 4.1837911686408926)	(7.0411697930577937, -4.0195491069088432)	(-4.874101477955894, -6.212449478893352)	1.0	slash	0.998785
18	M	B	N	N	M	B	A	A	M	8	7	shapes	A	3	False	120	(-3.1056725899617605, 7.6520866384676367)	(-1.7657204129124198, 0.75056011470940831)	(2.4349400086310791, -8.7346700140657436)	(5.9942796744417937, 0.52074954555505037)	1.0	z	0.812372
19	M	B	B	A	N	A	N	M	N	8	4	shapes	N	3	True	120	(8.6073021163901409, -3.8432107416618573)	(3.8831136412631526, 4.7059968805360786)	(2.8409389998178103, -3.6721653786059907)	(8.5512374538400273, 3.0340509118550898)	1.0	z	0.613914
20	M	A	M	A	N	B	N	B	M	8	2	shapes	M	3	True	120	(3.6039300582034102, 6.9996465158764529)	(-4.1472335707489085, 0.60065647693031465)	(7.160006380276446, -1.381589701000939)	(0.87380686130402374, -5.6817133031678075)	1.0	z	0.807439
21	N	A	B	A					A	4	3	shapes	A	3	True	120	(7.7500691710028704, -6.1493842242772612)	(-1.7561746898501855, -2.3823897606205815)	(5.8026656939949302, 5.4761500177986751)	(-7.3402083378524923, 6.5468845689602375)	1.0	z	0.383269
22	M	A	A	N					A	4	2	shapes	A	3	True	120	(7.441627634684199, -7.8898947934695194)	(5.1521931533158174, 4.3181197877792101)	(-2.1468195362768157, -2.3227167994727127)	(-4.2935356836976366, 3.3083961770153234)	1.0	z	0.516707
23	M	A	N	B	M	B	A	N	M	8	0	shapes	M	3	True	120	(3.0498711165368935, 2.6972835082369251)	(5.0238084000394867, -1.7452686829264641)	(-1.0038726348933302, -1.0197229301266137)	(-0.045971894396144464, 6.7247249644477023)	1.0	z	0.394569
24	N	A	B	M	M	B	N	A	B	8	0	shapes	N	3	False	120	(-3.3079136801937672, -0.9221704955558776)	(5.2818431391638789, 7.6728968659904382)	(-7.0236414937880696, 8.7139589287575205)	(-4.5763495191431343, 3.4739475106137725)	1.0	z	0.352377
25	M	B	B	M	N	N	A	A	B	8	3	shapes	M	3	False	120	(-6.5317322349410682, 1.3144508515614763)	(-0.86968836514867398, 7.2707611646161965)	(3.2924756708901199, -1.4049898882832466)	(3.1448525233866942, -7.2436500291488022)	1.0	slash	1.03
26	N	A	M	M					N	4	2	shapes	M	3	False	120	(-3.2464827486072467, 1.6158630716367171)	(-5.8438022508310077, -1.8877110664967418)	(2.6906501842940411, -4.1904344284055988)	(2.0660418935281744, 2.1145909725204035)	1.0	slash	1.05757
27	M	A	M	B	B	N	N	A	N	8	4	shapes	B	3	False	120	(-5.3547941677602484, -4.4761245392968991)	(-4.0086709121516746, 0.25823638672856575)	(7.6359114804574801, 1.7411771043789326)	(-3.2437751828806229, -7.8835984076367698)	1.0	slash	1.06939
28	M	A	N	A					A	4	1	shapes	A	3	True	120	(1.2600212951851475, 6.189548504523394)	(4.9623330504112104, -5.7715742885390213)	(-7.5969661750643827, -2.4201057113292803)	(-7.9171016361048752, 4.3666017676512823)	1.0	z	1.26494
29	M	A	M	A					A	4	3	shapes	A	3	True	120	(5.7618718092043366, -7.1002056816916745)	(-4.9878055267820205, -8.3579206929505734)	(-7.67762713695224, 8.6937704242959271)	(4.7507398958962437, 7.1344014083285074)	1.0	z	1.05451
30	N	A	A	B					A	4	2	shapes	A	3	True	120	(1.6096045372221042, -6.4862391714828025)	(3.0529903979574016, 3.2348097234562161)	(-8.5609733482056409, -1.1489627071502602)	(-1.8577998132359097, 7.8087627429617257)	1.0	z	2.2702
31	N	B	N	A	M	M	A	B	A	8	0	shapes	N	3	False	120	(0.22640009784216275, 6.6364806647181087)	(5.5612363171893442, 2.7843606633065452)	(-5.7015479317339439, -1.5106724853694358)	(0.15802560441616009, -8.3823955301051143)	1.0	slash	1.31777
32	M	B	N	M	N	B	A	A	N	8	2	shapes	N	3	True	120	(-8.4366344022719826, -1.9124324141789462)	(0.31672642918423399, -4.0162430647718708)	(3.5698007272803807, 6.1693137521826387)	(8.2615843945354897, -2.0132129930695548)	1.0	slash	0.795327
1	N	A	A	N	M	M	B	B	A	8	1	shapes	A	4	True	120	(-4.6617829312296664, 3.0122671883962777)	(5.1628856915413746, -4.4085163269633032)	(-5.9647327994424035, -1.4483300396512595)	(-3.440983206056405, -6.2098408577272615)	1.0	z	1.04295
2	N	A	B	M	B	N	M	A	M	8	2	shapes	B	4	False	120	(3.1921110848683565, -0.21967635940493224)	(6.0625069019375601, 3.1848580485907263)	(-7.6798331645681213, 3.4631016074773218)	(6.3115745094996676, -4.4826568817357826)	1.0	slash	1.81664
3	N	A	M	B					N	4	0	shapes	N	4	True	120	(-6.971766124732242, -5.121754104359904)	(8.6740642729120125, 2.2264426537715547)	(3.1676805187018875, -2.8659212158662122)	(-5.3282480436298041, 1.128067121850151)	1.0	z	1.12012
4	M	A	N	B	B	A	N	M	M	8	4	shapes	B	4	False	120	(-0.91954792059281587, -3.6688939733883501)	(-4.0631232356249054, 1.806314598810852)	(-5.0507873495591227, -5.6775716697330765)	(4.048698164523703, 5.269889313727278)	1.0	slash	1.5755
5	N	B	B	N	M	A	A	M	A	8	1	shapes	B	4	False	120	(-2.419645112979997, -8.4868917144995191)	(-4.000628737446104, -4.7539078163390149)	(1.8892223928928171, -1.9351430999739714)	(5.925611819377929, 5.4910537068072092)	1.0	slash	1.8554
6	N	B	M	B	M	A	N	A	M	8	2	shapes	M	4	True	120	(8.3589698054068862, 8.1308947898958408)	(-5.7520635055599545, -4.7132416128820385)	(2.7121800522628767, -0.24425718845749778)	(-2.5841610700133746, -0.85328601225486445)	1.0	slash	0.962974
7	M	A	N	M					M	4	0	shapes	M	4	True	120	(-4.4780602487186769, 0.54712006160036175)	(3.5655871401243395, -2.9964121988493568)	(6.8387610946389596, 1.5039261368608514)	(-4.1254614196652994, -8.7190156513222536)	1.0	z	2.19654
8	M	A	N	M	A	B	N	B	M	8	0	shapes	M	4	True	120	(-0.31557257723573962, 6.2418395601796384)	(3.318925963137259, 8.2537405018340664)	(-5.4095065931249211, 2.5854813192840691)	(-2.9115828440521776, -2.9530925588298462)	1.0	z	0.978209
9	M	B	A	A					A	4	0	shapes	M	4	False	120	(-1.3619564568155527, 3.2902306491831013)	(5.5366623454178807, -4.3988959693744381)	(-3.0743366248293178, -4.9711245168924467)	(3.3075891090348222, 3.1173170155795251)	1.0	slash	0.91171
10	M	A	B	N					M	4	0	shapes	M	4	True	120	(-4.7778730482135163, -1.9119014691232428)	(8.2864816795464371, 4.3605890560341667)	(6.1605814012334292, -5.5932498364307301)	(-3.8302873271078663, 7.2585697796494841)	1.0	slash	1.0675
11	M	A	A	B					A	4	3	shapes	B	4	False	120	(0.38218402160985399, 0.40786122160764826)	(6.7512661785292281, -0.31327871093381887)	(-4.6488605887551655, 0.37988809630166287)	(-5.3426477617284513, -3.7360048492972826)	1.0	z	1.49517
12	M	B	M	N	N	A	B	A	N	8	2	shapes	M	4	False	120	(0.85444985319570677, 3.9224766762919003)	(-5.5102157828561733, 5.4575886880664761)	(8.4057923370689878, -2.8365945274773905)	(-1.720548532830553, -5.8005766571351121)	1.0	slash	1.41658
13	M	B	A	B	M	A	N	N	M	8	0	shapes	M	4	True	120	(1.9955371690022936, -4.0151250552342326)	(-8.1537280216647545, -3.4904996758864302)	(7.7080654817656367, -1.7677588083844276)	(4.0572418798375605, 7.1143672255934742)	1.0	slash	1.68255
14	N	A	B	A					B	4	2	shapes	B	4	True	120	(-4.1866612601213964, -5.9724951568690425)	(3.4154161191564008, 8.5052505207567499)	(3.9027013640041854, -5.0580476132408592)	(-5.0532388508366255, 5.70530076552987)	1.0	z	1.93194
15	N	A	B	B					A	4	0	shapes	N	4	False	120	(-2.8428874539320903, 6.4190380135965359)	(2.2789031588427129, -0.90920731125733045)	(4.0189572708498211, 5.2389244486527851)	(-8.4972815285368331, -5.1424321476852661)	1.0	slash	0.9793
16	N	B	B	N					B	4	3	shapes	N	4	False	120	(5.9720781828846565, 2.0491058957861039)	(-3.560801274759684, 3.8174147697892753)	(7.9657586314613837, -2.2245240550831564)	(-1.8407565939538895, -1.0778422820096276)	1.0	slash	0.712962
17	M	B	M	N	B	A	N	A	N	8	6	shapes	N	4	True	120	(-0.81015629974557157, -3.9980969952701333)	(-4.1555371245789638, -6.4996277973504046)	(3.3936496599759458, -2.273547006343847)	(1.1943693063553251, 7.0151735185677317)	1.0	slash	1.00671
18	M	B	A	B					B	4	1	shapes	B	4	True	120	(-8.1191346686734409, -6.6879519848163476)	(-3.9981704741649198, 5.4057205340988421)	(3.9724367242919243, -4.7552331671081394)	(5.5693853367331023, 6.4083049181895344)	1.0	z	1.94366
19	N	B	B	A	N	M	M	A	B	8	1	shapes	B	4	True	120	(7.7832408747984729, 6.926008866005823)	(3.6573861671455248, -6.1281958308522988)	(3.9918440811877858, 3.9636661353069211)	(-5.1636598438514385, 4.9072902145479489)	1.0	z	0.749886
20	N	B	B	N	A	A	M	M	N	8	7	shapes	M	4	False	120	(-6.1149786191511373, -1.9790855013736808)	(0.15349206758271272, 6.4955606906305245)	(-4.0564319377371998, 4.5819740400889977)	(6.4950903209060673, -3.7946318828650885)	1.0	z	0.98965
21	N	A	B	B					A	4	1	shapes	A	4	True	120	(5.8604856353893702, -2.3523440689642268)	(-8.4110428828036063, 6.2654794541074885)	(8.2608779780256683, 4.4761604535657114)	(-1.2453265208164659, -4.5556185712364723)	1.0	z	1.34521
22	M	B	N	B					B	4	2	shapes	N	4	False	120	(0.3288875935490978, 8.0652162992493786)	(-2.3442570374250646, -5.7984391082176714)	(-8.2599405325515622, 3.1040544901057689)	(1.20870799696959, -3.7217914857668664)	1.0	slash	1.00625
23	N	B	M	M	A	A	N	B	M	8	6	shapes	N	4	False	120	(-8.0874393486828566, -2.275228090667138)	(0.72442704872839769, 7.1900798508821531)	(6.165612136709532, -4.1627535535121654)	(-3.040722832965197, 0.044011163288118382)	1.0	slash	2.16248
24	M	A	A	N					M	4	1	shapes	A	4	False	120	(3.5656889499808848, -6.8144560126283276)	(-7.9334455108910484, -7.1246063627527327)	(4.6906002430201355, 1.7141174245403601)	(-1.6444003317247509, 4.2916759551999686)	1.0	slash	0.99602
25	N	B	A	B					N	4	0	shapes	N	4	True	120	(5.1809942252276926, 1.1537554558285468)	(-0.35713715939195367, 5.4004778746257411)	(-3.4900373760025456, -4.5425904175578227)	(6.7688638111492256, -8.5339376940435407)	1.0	z	0.751784
26	M	B	A	N					B	4	2	shapes	A	4	False	120	(-8.5297229847479343, -3.8374823755464469)	(1.0752400242634916, -3.2556754172887405)	(5.2462773376423222, 3.5748304041216006)	(-1.1856345205683967, 6.8084436218664912)	1.0	z	1.13916
27	M	B	N	B					N	4	2	shapes	N	4	True	120	(1.1116980615582719, -7.0929146497980486)	(5.4893364590752416, 1.5272155901664437)	(-8.5622142247930828, 6.993410774064353)	(-6.945479630555897, -5.9602145635040227)	1.0	z	0.720847
28	N	A	A	M	B	M	B	N	A	8	5	shapes	M	4	False	120	(-5.4450958992748131, 5.0740524337972079)	(6.0553957478437237, -1.3959543692722027)	(7.2649398122489934, -8.1287584595786768)	(-7.2203979526193738, -4.5940859072391484)	1.0	slash	0.678204
29	N	B	N	A					M	4	3	shapes	A	4	False	120	(-7.6544819796150225, -2.4560443241434831)	(6.3753596003300697, 2.095112025405852)	(1.3648802083126839, -3.1140270895737707)	(-6.7337946471537355, 2.3732726955932275)	1.0	slash	1.04034
30	M	B	M	B	A	A	N	N	A	8	0	shapes	M	4	False	120	(-4.7863559346465401, 6.0992630565662846)	(0.309005967285783, 7.8352118087439493)	(-8.2688986719742896, -7.6236198016455816)	(-8.5709585172879503, 2.5209853677468104)	1.0	slash	0.717898
31	M	B	A	M	A	N	B	N	B	8	6	shapes	B	4	True	120	(-2.5015645847893602, 1.4852199663378123)	(-2.2150263200979428, 6.9577729721029034)	(0.88011814687860657, -7.3544303747149691)	(-1.0840614814609717, -3.4528425881436933)	1.0	slash	1.11544
32	M	B	A	B	A	M	N	N	B	8	1	shapes	B	4	True	120	(2.8720602805982089, 3.1919164629380763)	(-3.9007141842098827, 4.7645792943179632)	(8.2662744119990279, 5.0881585182681448)	(-6.6058266195085213, -1.8040154853842143)	1.0	slash	0.913127
1	M	A	N	N	B	B	A	M	A	8	1	shapes	A	5	True	120	(6.0721089177305227, -1.5725693011076309)	(2.0865623809499709, 0.75960835990721343)	(5.0599071573746777, 5.8751864806468319)	(-1.3999687870472206, -5.0482914388828171)	1.0	slash	0.786827
2	N	A	M	A	B	N	M	B	B	8	4	shapes	B	5	True	120	(-6.0498323754553631, 3.2951432380814367)	(-6.983675085834733, -5.81922270847741)	(-2.0694719238330572, 4.2081915282324687)	(-2.1253322014199503, -6.2903788263713185)	1.0	slash	0.594338
3	M	B	B	N					M	4	0	shapes	M	5	True	120	(-5.5599763245523004, 6.3123486160300892)	(1.1920203467371984, 7.8326793911844028)	(-3.9397555460059088, -2.9052958261356192)	(0.59258258573721356, -6.3027278230169239)	1.0	slash	0.854108
4	M	A	A	M					B	4	0	shapes	M	5	False	120	(-2.3889478327118399, -8.2663442985488373)	(-4.6782214021432917, 5.3281965096364203)	(3.6574405367280782, -4.6076665082876573)	(0.21151784952411923, 4.7676712884750607)	1.0	slash	1.07773
5	M	B	A	N					B	4	1	shapes	B	5	True	120	(4.0449169264228484, 6.4648060773118274)	(-2.0327495636848063, 2.799354671943437)	(-0.76082036433380029, -4.1982382497960611)	(7.7345163284346476, -7.9224005156879258)	1.0	slash	1.27939
6	N	B	M	N	M	B	A	A	A	8	6	shapes	A	5	True	120	(-7.5950681933626498, -7.9827211194832586)	(-3.4012728180077296, 4.0254549367187042)	(-3.4901488170973733, -0.92965449450074367)	(-1.7808959662210002, 8.1475453732160439)	1.0	slash	0.66897
7	N	B	M	M	N	B	A	A	M	8	4	shapes	N	5	False	120	(1.10346234796428, -2.83199444467511)	(4.4667648957689767, 4.9252794678910732)	(2.0354634699541023, -8.6301305485428692)	(-7.6115662431000999, 0.63505473500578447)	1.0	z	1.71412
8	M	B	A	N	N	B	A	M	N	8	7	shapes	M	5	False	120	(6.0976800799903881, 7.6779754138113532)	(8.2087397600198813, 2.371570272508194)	(-2.8055885276351784, -4.5455605396586787)	(-5.9735309054791488, 0.21620741314335135)	1.0	z	1.15219
9	N	B	B	N					A	4	1	shapes	B	5	False	120	(-7.0687076827711426, -5.6915192978200748)	(5.6996465302588888, 8.7260942607173071)	(0.14124177944800564, -0.70815799198390117)	(-5.9441877904281579, 4.7699778630809035)	1.0	z	1.30791
10	M	B	B	M	N	A	N	A	B	8	2	shapes	B	5	True	120	(-1.3056963599616331, -7.0321007291939583)	(4.5067601577219474, 4.1403793705365466)	(-7.5730470214260652, 7.7518899073100407)	(-2.4989215289207838, 6.0436554712056534)	1.0	z	1.03534
11	M	B	N	B					M	4	1	shapes	B	5	False	120	(6.2037258745684412, -4.0831126145728653)	(6.0348127800855025, 3.4513603453623887)	(-7.2590403518685411, -8.0504527879497623)	(-4.7643854748241488, 6.3421691369203259)	1.0	slash	1.69631
12	N	B	B	N					M	4	1	shapes	B	5	False	120	(5.1519930425301688, 2.8128517120519376)	(8.5958222008789313, -5.3391758014809145)	(-0.91880973991011583, 2.3228874065869878)	(-6.4029684379941392, -3.8814752683865299)	1.0	slash	1.36645
13	N	B	N	A	B	M	M	A	M	8	6	shapes	M	5	True	120	(1.7714871609810992, 1.7556315719172702)	(6.3028745040480416, 7.8697626130900069)	(-3.2365705208043476, -3.4620550661061884)	(2.8261674672964272, -7.0634598565615505)	1.0	slash	1.06646
14	N	B	A	B	A	M	N	M	A	8	5	shapes	M	5	False	120	(-8.4827109391836668, 4.5635017437495016)	(-0.42604833196960001, -0.34127890332890587)	(0.33187684611588786, 5.1227641050275885)	(-2.9895921347860481, 2.8579138759853109)	1.0	slash	0.582156
15	N	A	M	A					B	4	2	shapes	M	5	False	120	(-6.2388045395036995, -8.4767558748931933)	(3.0427911933189957, -3.2832292315178773)	(-5.9732891715623468, 0.93397060296249101)	(0.71559789995646383, 7.4515411265678431)	1.0	slash	0.771555
16	M	A	B	M					B	4	2	shapes	B	5	True	120	(-2.863393631493234, 7.9361131265904703)	(-3.359843231140589, -0.81518741691415109)	(8.1276759530641307, 6.4953628244047934)	(8.0599786083445508, -8.324375429252262)	1.0	z	0.699293
17	N	B	N	A	A	B	M	M	B	8	3	shapes	A	5	False	120	(-5.6742900903999969, -6.2237882104348099)	(6.8409011953097494, -2.4939143487221962)	(-5.8782989102712442, 4.1378707603147493)	(7.3420872001782698, -6.5330487701385387)	1.0	z	0.384794
18	N	B	M	M					M	4	3	shapes	M	5	True	120	(-4.8023863365653918, 5.9331779323372604)	(0.68572109232718503, 4.8069629150109243)	(7.0496120714978634, -7.9353871253374901)	(-7.207357408933559, -4.5136526816587876)	1.0	z	1.34849
19	N	A	N	A					M	4	1	shapes	A	5	False	120	(4.6857779152131052, 0.65051575753235724)	(3.693631911073771, -6.7007079979756234)	(-1.3708946771382653, 2.0848756163613622)	(-1.0993178888943991, -4.3049059955290314)	1.0	slash	0.744309
20	N	B	B	N					B	4	2	shapes	B	5	True	120	(-2.6139544567539561, -7.5438021612584736)	(4.8496323344917762, 0.98168264230944224)	(-1.1442987263748359, 4.7702048515180202)	(8.4983036242698731, -8.235752830873448)	1.0	z	1.67783
21	N	B	N	B					M	4	2	shapes	N	5	False	120	(7.6155616003953952, 8.7380153546519814)	(3.9915104229492862, -3.6217352052888208)	(-3.8067480983319966, -6.5379641081050863)	(-4.0809099876736878, 0.17064548241958377)	1.0	slash	0.983382
22	N	B	B	M	M	A	N	A	B	8	5	shapes	A	5	False	120	(-6.1887709754554114, -3.6926188006139951)	(7.7936044552444521, -5.914464077430809)	(-5.3666365551813975, -8.2012798949827879)	(-2.4370740888634943, 5.6562529090147571)	1.0	z	1.49506
23	N	B	A	A	M	B	M	N	N	8	1	shapes	B	5	False	120	(7.8497360177589428, 6.849973951548332)	(6.7878135060276996, -6.1290007411336411)	(0.73234657549066462, -7.6977698688057732)	(-8.1719224205313381, 8.3745714586859208)	1.0	slash	1.11281
24	N	B	N	B					N	4	2	shapes	N	5	True	120	(-2.9706020134957685, -3.6135435386978578)	(-2.9784933227791957, 2.212717190004124)	(0.22043644740670842, 8.6156861682900931)	(8.0564120549150502, -7.7916048346036586)	1.0	z	0.780421
25	N	B	B	N	M	A	A	M	M	8	2	shapes	B	5	False	120	(-5.9488203112601497, 5.1556490190227731)	(-1.1750729047016923, -5.6452595685341187)	(3.7462675166264123, -2.2517169004238085)	(7.6553769701003027, 1.5016028951203886)	1.0	slash	0.659856
26	M	B	B	M	N	A	A	N	M	8	0	shapes	M	5	True	120	(-6.4558533512349943, 2.1633887344748111)	(-0.27004971040474146, -4.8838039503801802)	(4.8204166209853767, 5.7048620865798618)	(-7.8707122759523696, -7.3720427367597692)	1.0	z	0.885458
27	M	B	B	A					B	4	2	shapes	B	5	True	120	(6.3397149290233479, 8.0786033907129813)	(5.0611783241581989, -6.9703431502674924)	(-5.1307452081540159, 3.0390647935177917)	(-4.6180538208276607, -2.8412202930197301)	1.0	z	0.639332
28	M	B	M	A	B	A	N	N	A	8	5	shapes	A	5	True	120	(4.0563064732706806, 7.1237100936255491)	(-1.1818933109968812, 3.690667890291019)	(-2.7618536016573918, -3.2428610607077601)	(-7.9025294196287144, -4.3233119142018692)	1.0	z	1.10098
29	M	A	A	M					A	4	1	shapes	A	5	True	120	(2.4692113684071373, 1.7291472260816203)	(-7.6973818453928784, -7.265734137994226)	(-1.3139921991540549, 8.22932515406033)	(8.099105227528284, -4.4552241970510229)	1.0	z	1.01059
30	N	B	M	M	N	B	A	A	B	8	1	shapes	B	5	True	120	(-0.21510950353701475, 4.0860814508760583)	(-5.0423720387481117, 0.55092593048304117)	(5.1339181724257728, 4.7361688320798745)	(0.98638079300125092, -7.0770505958589567)	1.0	z	0.810125
31	N	B	N	B					A	4	2	shapes	N	5	False	120	(-8.5236672204385915, 2.4364778538055596)	(8.3382581573785011, -7.8477600929925488)	(6.1241374588178381, 2.5861062496888714)	(-4.268942891738174, -5.7848209570226219)	1.0	slash	1.22568
32	M	A	N	A	B	B	M	N	N	8	5	shapes	B	5	False	120	(5.0585342691183861, 6.8454065400495328)	(-4.482264091504276, 0.47337394332746463)	(-2.5417216919349599, 7.6982667246092475)	(-1.5676142958759893, -2.6796330630029939)	1.0	slash	1.35348
1	M	B	A	B	N	N	M	A	M	8	0	shapes	M	6	True	120	(1.2655364708248769, 1.493869854983144)	(4.3361160436623667, -4.6499950397111274)	(6.4777526126961416, 7.5084712454817186)	(-3.8168826008846404, -7.4114128804839501)	1.0	slash	1.02894
2	M	A	A	M	B	B	N	N	B	8	4	shapes	B	6	True	120	(4.5228892311429032, -6.5810012775960978)	(-4.0120232608690891, 2.2017022407238667)	(1.420185036075587, 2.4771264543651146)	(-8.3274987931324809, 7.9494261000795454)	1.0	slash	0.924772
3	N	A	M	M					B	4	1	shapes	A	6	False	120	(0.63329002035026072, 8.1351780177085047)	(-3.1596694623498047, -6.289385903118351)	(6.8882257050268372, -6.421428331242188)	(-1.4598920053558242, 1.3284395727698932)	1.0	slash	0.766433
4	N	B	A	B					M	4	0	shapes	N	6	False	120	(-1.162063124376786, -6.2333305282144655)	(0.30600476746479899, 2.66324645926721)	(3.2826444969600761, -1.6418967856765567)	(-4.7591267271659223, 4.7391364332750641)	1.0	z	1.25593
5	M	A	B	N	N	A	B	M	A	8	7	shapes	M	6	False	120	(5.1117083864754029, -1.6864632441715077)	(-7.0517537109945936, -4.1541045651078461)	(-7.3871314966735113, 7.0359914608399912)	(2.7283619538253276, -6.3856873617060614)	1.0	slash	0.713061
6	M	A	N	B	N	A	B	M	N	8	6	shapes	B	6	False	120	(2.9499072945074456, 6.3817410068735736)	(7.0848410934905015, -8.7382976118350832)	(-0.48488010143157823, -6.7674602533221062)	(-2.0417540896210502, 6.0525670227800905)	1.0	z	0.844953
7	M	A	M	B	B	N	A	N	M	8	0	shapes	M	6	True	120	(-5.1929429714589741, -0.75839355957955057)	(-0.17982800266460508, -1.4543542884498208)	(4.0142545328857242, -6.7928529025605719)	(7.9224569775607989, -5.3488458596696997)	1.0	slash	1.32289
8	N	A	M	A					A	4	2	shapes	M	6	False	120	(8.5438345078813747, 5.5430206477546289)	(4.0467780223232168, -6.1326014624429916)	(-2.9932413851772264, 7.2799028958931871)	(-5.0880388493109479, -6.0844894159553702)	1.0	slash	0.824405
9	N	B	M	A					B	4	1	shapes	B	6	True	120	(6.6666222504237815, 1.7226778465670787)	(-2.6364697557412118, 2.8379606232613259)	(3.3468775862397493, -0.95699358599274298)	(-5.3331259068335388, -3.0680114617496725)	1.0	slash	1.07818
10	N	B	A	N					A	4	2	shapes	A	6	True	120	(-7.2267445055227739, 0.45405393417225071)	(7.7843320563622562, 1.4190515502029264)	(-1.3282132794435304, -8.7489271676264941)	(4.3067240832542684, -7.7813282436530313)	1.0	slash	0.765814
11	N	A	N	A	B	M	M	B	B	8	4	shapes	B	6	True	120	(8.7162183924223982, -1.3027004216311857)	(3.29190269587302, 6.2360290994344041)	(-7.0790991043386571, 8.0709675838368646)	(-5.0559514168536328, -4.3419978134256647)	1.0	slash	1.65732
12	M	B	N	B	M	N	A	A	M	8	5	shapes	N	6	False	120	(0.47704087852232036, -3.4917004193326209)	(5.1366022942017207, -3.3178083290331513)	(-6.2496079549155548, -1.2816883385369415)	(-2.8322198039785524, -7.0488791555730241)	1.0	slash	0.899082
13	M	A	A	N	B	B	M	N	M	8	7	shapes	N	6	False	120	(4.6429665986923432, -7.8124841799874121)	(2.0044676313426653, 5.952974412486423)	(-2.7958622051604314, 7.9231419437216744)	(-7.8025607353458746, -4.4889205637182537)	1.0	z	1.24858
14	N	A	B	N	B	A	M	M	A	8	2	shapes	B	6	False	120	(4.9235198612990274, 7.6373665236492982)	(-4.4283638949119553, -0.96425456659212561)	(5.7008599169940837, 2.7603216865957183)	(7.5883712622448165, -3.0709392952087473)	1.0	slash	0.714381
15	N	B	B	A					N	4	3	shapes	A	6	False	120	(-6.0946611483354598, 0.054827003258917983)	(7.7188018717664946, -3.5603582250928341)	(6.7771301385763856, 5.8195354798029921)	(-8.0472327263610133, -4.3111956725155913)	1.0	slash	1.22199
16	M	A	M	N					B	4	2	shapes	M	6	False	120	(-4.7629350826201584, 7.0059912135841191)	(8.361663003575039, 7.9004506650870532)	(1.5702637614653447, -0.45206103579785939)	(-0.11400612009556887, -7.6112416105342255)	1.0	slash	0.81957
17	N	A	N	A					M	4	0	shapes	N	6	False	120	(-2.921482452033608, 8.7323476619920051)	(-7.2313033144405319, -6.3259749126347842)	(2.9017359102923272, 5.901639217941403)	(1.7369964503490323, -6.0652548988700747)	1.0	slash	0.759272
18	M	B	N	A	M	A	N	B	B	8	4	shapes	M	6	False	120	(-1.4217980620850348, 5.3443106816398291)	(7.813385054941385, -3.6292458142207975)	(4.3848740754757198, 4.085853802154551)	(0.76854955209370424, -6.6484672818587036)	1.0	slash	0.332859
19	M	B	A	M					N	4	0	shapes	M	6	False	120	(-2.9152337525624255, -5.3670650508564801)	(3.7665861802838005, -6.841807220863533)	(-6.5616339745039731, 1.8834159700603177)	(6.6536662597639662, 6.5767470204140341)	1.0	slash	1.00464
20	N	A	A	M	B	M	B	N	M	8	0	shapes	N	6	False	120	(7.9113049351421267, 7.3692054183220357)	(-1.5999029228183996, 1.499437818547591)	(-6.6114675499752886, 0.092220822158887827)	(-3.6392870046574322, -3.1827035354654969)	1.0	slash	0.790033
21	N	B	A	N	B	M	A	M	M	8	7	shapes	M	6	True	120	(-1.8249410125676659, 2.5862955741377345)	(-1.6526521679550079, -7.3086449794327653)	(-6.8700070215480915, 7.1237680460951012)	(-4.9605161453599571, -0.029223777629686865)	1.0	slash	0.302052
22	M	B	B	A					B	4	1	shapes	B	6	True	120	(1.7806720525217408, -5.9007920762564616)	(8.1636865749362819, 2.8198170905003561)	(-7.9502986861637579, 5.3023721191154092)	(-4.3810056464132732, -4.3585206496255804)	1.0	z	1.14752
23	N	A	A	N					A	4	1	shapes	A	6	True	120	(3.2335939236531992, -5.5653092758443377)	(-8.3015555052872827, 6.3633606847815045)	(3.3125873916164057, 6.5080947259464796)	(-5.4691618610272279, -6.5518205194571628)	1.0	z	0.993355
24	M	A	A	M					M	4	0	shapes	M	6	True	120	(-6.3301615884547155, -7.2236763424270318)	(2.0574996465671731, -4.4321534517626882)	(-4.7410552484751687, 4.0969180155583071)	(8.4005160313281557, 1.4863372133685857)	1.0	z	1.57292
25	N	A	B	M					N	4	0	shapes	N	6	True	120	(2.8310197811626381, -5.4479975175905135)	(-1.1720511886630973, -4.9671714877009849)	(6.189144944300315, 1.1209591320508192)	(-2.7636588179417441, 8.0350006836567829)	1.0	z	0.804452
26	N	A	A	B	N	M	B	M	M	8	5	shapes	M	6	True	120	(-7.399507026251948, -5.2884232299071083)	(8.5351226231602197, -8.4476100518813499)	(-4.8806558746370454, 1.619132114956729)	(5.8829610757995834, 0.53688520452581656)	1.0	z	0.768032
27	M	B	N	N	A	M	A	B	A	8	4	shapes	A	6	True	120	(3.9388912843613184, 5.4727718067429798)	(8.4197654572598708, -8.5242527404966015)	(7.5928642510597761, -1.4274519168053974)	(-6.7096018230313188, 7.7338183621012035)	1.0	z	1.25558
28	N	B	N	B					B	4	1	shapes	B	6	True	120	(-3.0255088705723692, 5.7791586931165106)	(1.5433758214195361, 4.7016463434932074)	(0.29830178050702649, -3.1906220961734313)	(-4.8618649721736427, -1.1214342880915549)	1.0	slash	2.22934
29	N	A	M	B	M	B	N	A	B	8	6	shapes	N	6	False	120	(5.1036712518062668, -3.7080798265558359)	(-2.6331971549265161, -0.31958585721853439)	(0.84047046339216891, 8.4720633866046775)	(-8.469904452509347, -1.3965387442068495)	1.0	z	0.880777
30	M	A	N	A					M	4	3	shapes	A	6	False	120	(-2.9871161499832306, 2.7335051745934393)	(1.4863588516736979, 8.6290622841448794)	(3.9779371551381679, -1.3408415783210019)	(-2.8989275858490409, -5.6981817769821879)	1.0	slash	1.24456
31	M	A	N	B					B	4	3	shapes	B	6	True	120	(-1.8343454069746814, 3.6878490021139978)	(-3.2921106963665459, -8.49654395243331)	(8.026348627024273, -6.4836409137177728)	(6.7931127652633645, 1.3104971997267185)	1.0	z	0.92406
32	N	A	A	B	M	N	M	B	N	8	5	shapes	N	6	True	120	(7.6088002995802384, 0.69774742249212096)	(-4.8284179015956337, 3.0040260879591365)	(5.6225148494395771, -3.3930301523560829)	(4.6336621592561809, 8.6920475475130914)	1.0	z	1.11188
1	M	B	M	N					M	4	0	shapes	M	7	True	120	(-3.6774825160334164, -0.73796531362436113)	(3.1968705761138683, 4.2868261791129481)	(-1.0915956400835007, 2.8444653012555943)	(0.11503692704566504, -3.9239834187676976)	1.0	z	0.995348
2	N	B	A	A	N	B	M	M	M	8	5	shapes	B	7	False	120	(2.866456080291492, 4.9580284731848447)	(-1.9711161839571538, -7.5450154944775445)	(1.8699969566228187, -5.2222911949842974)	(8.5999640911640043, 2.1165598721724486)	1.0	slash	0.855087
3	M	B	B	M					B	4	1	shapes	B	7	True	120	(-5.2407656076806948, 1.1866066939328395)	(8.6189047155051348, 8.3848315129897699)	(-0.5223845732753265, -1.3468663000074477)	(6.2489011381867492, -3.4950438279111955)	1.0	slash	1.37437
4	N	B	M	B					A	4	0	shapes	N	7	False	120	(8.2464336345319644, 0.8032069136684612)	(-2.4966964394758051, 3.679945164935333)	(-6.6607295011553598, -4.3037603447336732)	(8.3203779192600003, -6.0289331824122456)	1.0	slash	1.59024
5	N	A	B	M					N	4	0	shapes	N	7	True	120	(0.3196871616053425, -5.885242050306239)	(3.1413946853454142, 8.735457776262038)	(-7.4430787624126964, -2.4914683260357844)	(-5.6984844057005679, 8.1001829149640194)	1.0	z	1.23548
6	N	A	M	M	A	N	B	B	N	8	5	shapes	N	7	True	120	(-8.688673124700415, 3.1698587921517252)	(3.9370921575645674, 7.4802541765502646)	(1.8831140574103422, 4.0324462160474468)	(-6.1640095651653191, 6.9087858568951983)	1.0	z	0.887408
7	M	A	A	B					M	4	3	shapes	B	7	False	120	(-0.91256497463935116, 8.3836474405919077)	(-1.9452463166399241, -5.7258122313152793)	(4.3698650302983371, -1.9826341141173964)	(3.8455008955609085, 5.4329556651547968)	1.0	slash	1.12698
8	N	A	A	M					A	4	0	shapes	N	7	False	120	(1.0011525941518489, 0.22512795121123119)	(8.538403710762914, -4.9120190682686244)	(-1.3201369216389907, 3.777692390391465)	(-3.8376640790430638, -1.5015700730801393)	1.0	slash	2.00072
9	M	B	B	M	A	A	N	N	N	8	7	shapes	N	7	True	120	(5.0803040839452258, 2.6470524007557525)	(3.7791170254115283, -8.5577064393732893)	(-7.9894645923300605, -1.8147878414670764)	(-7.9553510733035733, 2.7438124106638337)	1.0	slash	1.07659
10	N	B	M	A	B	N	M	A	B	8	1	shapes	B	7	True	120	(0.98135474811346057, 8.3404146789214657)	(-1.9024353503304541, -6.8756633772432734)	(1.983429502626894, 2.3540118301170807)	(-7.4879830908091378, -5.4602583317955018)	1.0	slash	1.27409
11	M	B	M	B					M	4	0	shapes	M	7	True	120	(-3.2732166595703145, 4.9118251667509849)	(-2.4062643868629214, -4.6739653837561761)	(7.7238567766912958, 7.0810752435320641)	(4.6367652731612772, -8.186518855055402)	1.0	z	1.10158
12	N	A	N	B					A	4	1	shapes	A	7	True	120	(4.4579070841529713, 3.3373366257637613)	(7.6466599039372696, -5.3093850205529893)	(-8.3324608869245331, 1.9597214682591826)	(-3.1683457797535084, -5.8317143318672846)	1.0	z	1.04319
13	N	A	B	A	N	B	M	M	A	8	6	shapes	M	7	False	120	(6.5852487645098599, -7.3617983370444149)	(-3.927564096679582, 5.4951888165757143)	(1.5077581090072201, 5.1964708959570096)	(-5.7681122177032762, -1.9105376662136155)	1.0	slash	1.23843
14	N	B	B	N					N	4	3	shapes	N	7	True	120	(6.5107379955067639, -2.9923673072050327)	(-1.6037094990608063, 4.9888410696540753)	(-4.0581420543194575, -8.0517582843819149)	(6.9725009359274637, 4.4076387555835694)	1.0	slash	1.21647
15	M	B	B	M					N	4	2	shapes	B	7	False	120	(-5.6582386537009475, 3.8695563802507884)	(-8.0093311380845318, -1.3388861359038691)	(5.4767056421196347, -2.5457088126051701)	(1.0941215166713985, 6.0145289072164676)	1.0	slash	0.794183
16	N	B	A	B	M	A	M	N	B	8	7	shapes	N	7	False	120	(2.1747966248518225, 3.5256572685441512)	(-4.8923812521754177, 5.7960668906308044)	(8.7094831750700088, -1.3824564654675173)	(-1.2406325032861529, -7.1458964398069487)	1.0	slash	0.661892
17	N	B	A	N	A	B	M	M	M	8	1	shapes	B	7	False	120	(-8.187224764202961, -0.14811999875394477)	(0.46927016474045402, -2.9445794841157813)	(0.13629766891843254, 1.1373907521829612)	(-6.1858295384204443, -3.7738426239132901)	1.0	slash	0.789584
18	N	A	N	B	B	M	M	A	A	8	2	shapes	N	7	False	120	(-2.9853619323966853, 0.99321789009479922)	(6.5784121166532703, 8.0861556869242861)	(1.6217428697362646, 0.72273490501520676)	(-0.69380441705263962, -7.1369079574498846)	1.0	slash	0.445097
19	M	B	N	A	N	A	M	B	A	8	0	shapes	M	7	False	120	(-3.1757697243875578, -4.2619946533377551)	(-7.1764532686262399, -6.3462278754688519)	(-8.6334840729532125, 4.8132559025697006)	(-3.1047622743135834, 0.025616249274465375)	1.0	slash	0.206856
20	M	A	B	M	N	A	N	B	B	8	7	shapes	B	7	True	120	(-6.9983362325469152, -6.8582683286736978)	(6.1273872371018836, -5.0471351749893953)	(-0.1557143624589763, 7.4479188782141676)	(-4.6504808587125508, 6.6154123299521359)	1.0	slash	0.266472
21	N	A	N	B	A	B	M	M	M	8	7	shapes	M	7	True	120	(1.5804587135430435, 6.7098639806781577)	(3.9838614045681364, -5.998771953111711)	(7.631484911903776, 0.48627947997261778)	(-8.6087945215254074, -8.0784839366953118)	1.0	slash	0.216437
22	M	A	M	A	N	B	N	B	M	8	6	shapes	N	7	False	120	(-7.3771765800484825, -2.8992747752857291)	(8.2357610172781257, 5.1247471327206622)	(1.1937263267397622, -4.3608950267806392)	(0.70176965763909926, 8.1170907270271506)	1.0	z	0.463742
23	M	A	A	N	B	B	N	M	N	8	3	shapes	N	7	True	120	(3.1563518919816715, -5.6155581485368398)	(-3.7508522764192866, 6.3035359924581336)	(5.9236054880136102, 5.9117113971078386)	(-4.4063383867316679, 2.0183884197732667)	1.0	z	0.94288
24	M	B	A	N	A	B	N	M	N	8	3	shapes	N	7	True	120	(-2.734756108229119, 4.0719547280985591)	(-8.2636913859472152, -3.1152430678094918)	(6.8670681464248737, 1.9556127217346564)	(-0.88207887775827842, -2.2064212644787409)	1.0	z	0.404617
25	M	B	N	B					N	4	3	shapes	B	7	False	120	(3.318672658688774, -0.75944101769746908)	(-6.1474194869256973, -2.2638909907478233)	(3.2515950203673096, 7.4621059059161787)	(-5.6125763003076656, 3.0735827599765688)	1.0	z	0.250438
26	N	A	B	M	A	B	M	N	A	8	7	shapes	N	7	False	120	(-4.8063539604574661, -5.5328889742553962)	(-6.0200811335370474, 3.5459135881481725)	(-1.0436885686179007, 4.5536043906836525)	(3.2185411910530064, -4.1855113585649351)	1.0	z	1.20656
27	M	B	N	N					M	4	1	shapes	B	7	False	120	(7.3505178396808653, -5.1193497494125868)	(-2.8555887621697895, -3.7340993148687875)	(8.5053099692615355, 0.30201437398257447)	(-3.0474675910207631, 1.4938594856025134)	1.0	slash	1.76007
28	N	A	B	B					B	4	3	shapes	B	7	True	120	(1.2050325133739381, -7.6201549168305274)	(8.4925674678178815, 2.6490203260042495)	(-4.3542000120263396, -3.5861998899297465)	(-5.6031081144384389, 4.3574492820411965)	1.0	slash	0.361742
29	N	A	B	A					M	4	1	shapes	A	7	False	120	(2.3394943156126207, -4.8771202048364808)	(7.6424595775809614, 5.1692867612883244)	(-1.5025714358779494, -8.5372764902349214)	(-7.0884098570527883, 3.9129583252982805)	1.0	slash	0.955393
30	N	B	M	A					B	4	3	shapes	A	7	False	120	(-2.5421881299120477, -1.9221343643555775)	(8.474909593084611, 3.1913452245133662)	(4.2505795323154967, -2.5333133918810136)	(-7.140484899421935, 3.1418463838120001)	1.0	slash	0.839162
31	N	B	B	N					B	4	1	shapes	B	7	True	120	(-7.5544493691867842, 4.3401557779818098)	(-4.1804009399552271, -2.5769769385741546)	(6.0407036451182048, 3.9592140125292445)	(6.9390516748268869, -3.610288780967009)	1.0	z	0.760625
32	N	B	A	B	M	A	N	M	M	8	7	shapes	M	7	True	120	(5.7474088012234859, -4.0789933774343474)	(-1.8318574617455052, 4.0092821424987299)	(2.4970837133610715, -0.73396741159654155)	(-6.0701318422669548, -0.29461693330901184)	1.0	z	1.00445
1	N	B	B	N	M	A	M	A	M	8	6	shapes	M	8	True	120	(-3.3150698854668477, -5.8826789679468137)	(-5.2535996955563622, 2.0797168680207641)	(2.5901161569719537, -0.47508628579461032)	(-8.5087453686724732, -7.8487820009601483)	1.0	slash	1.19036
2	N	A	B	B					M	4	3	shapes	B	8	False	120	(3.6259050166471951, -3.0206628800731607)	(8.4368819019528836, 4.8126419270063767)	(-8.6543026721495782, 4.9158105239332066)	(-3.988876371312708, -0.99164154182785502)	1.0	slash	0.833651
3	M	B	N	A	B	N	M	A	M	8	4	shapes	B	8	False	120	(0.95790238316284793, 6.4001821823188614)	(7.444034018661867, -6.7202080851595412)	(7.3241437674201357, 7.8578635652766025)	(8.1273816084137209, -1.9966578532137245)	1.0	slash	1.30552
4	N	B	M	A	N	B	A	M	M	8	0	shapes	N	8	False	120	(2.1256546464544499, -2.9054294342943843)	(-6.6656320966331402, 3.865738736836084)	(-6.2721274343916296, -3.7845856703643648)	(7.6299798150187961, 5.216401119934277)	1.0	slash	1.64677
5	N	A	B	A	M	B	M	N	M	8	2	shapes	B	8	False	120	(-2.1935435010243456, -1.4080528851891412)	(-2.282940304507088, 2.7895355488641496)	(-7.2864370105241427, 1.2456892335063188)	(5.702192236775522, -5.7830941880092501)	1.0	slash	1.12637
6	N	B	B	M					B	4	1	shapes	B	8	True	120	(-2.6739983917836447, 0.92738292542169987)	(-7.1848311797562587, -5.5977583201267418)	(4.8841744742319264, 8.0154306034199969)	(1.4466733886035161, -4.9269105555074741)	1.0	slash	1.36799
7	N	A	A	B					B	4	0	shapes	N	8	False	120	(7.6586732306338234, 1.6851304311503199)	(-3.8751529587349465, -6.8288697627767263)	(4.289350177083822, -5.5642168472254916)	(-0.20566396828261624, 4.3123536546876302)	1.0	slash	1.53575
8	N	A	A	B					B	4	3	shapes	B	8	True	120	(-4.1580742977638989, -5.381085787323757)	(-2.1736044231078697, 6.3159979870398981)	(0.073416716840855045, -4.7024308220353355)	(3.1516875884611739, 7.0726476320811216)	1.0	slash	1.53535
9	N	A	N	B					A	4	2	shapes	N	8	False	120	(7.4193711825162438, 4.1380381521451515)	(-0.79819524650566898, -3.8644166897401755)	(-3.1530966988626625, 8.527647889560118)	(8.6236048405165988, -1.5895264720420306)	1.0	slash	0.839014
10	M	B	N	B	N	A	M	A	N	8	6	shapes	M	8	False	120	(4.6821629269935698, 4.2637272667801653)	(3.0986051991881549, -2.9160483505767321)	(6.9892877121520627, -5.1648618304946652)	(-7.2440768939023545, -5.0216427547238611)	1.0	slash	1.11637
11	M	A	B	M	B	N	N	A	N	8	2	shapes	B	8	False	120	(-5.3422952035067333, -7.2822031652900812)	(-8.5504290199333948, 4.1994674276090898)	(3.1412558015476364, -0.15159974856353209)	(7.172238052487641, 5.8524299436442462)	1.0	slash	2.97009
12	M	A	N	N	B	B	A	M	M	8	7	shapes	M	8	True	120	(0.88952591789192326, -1.9285254031787096)	(8.1496206454619013, 7.5926596500266434)	(4.047244121376961, -6.8703178934787914)	(-3.8947431394059908, -4.7625395510822557)	1.0	slash	1.99752
13	N	A	B	M	B	N	M	A	A	8	5	shapes	N	8	False	120	(-2.9895782276589102, -3.5755705871234236)	(-8.0909774908938932, 6.6824158449122919)	(-8.0866231399513087, -7.4613914768048835)	(3.8650794624805727, 3.8451182753300923)	1.0	slash	0.73946
14	N	A	B	N					B	4	2	shapes	B	8	True	120	(6.5973331089708456, 7.5881622093551861)	(-6.4709079929216866, 6.4145688502004674)	(-0.3273722428353576, -5.6371553981868123)	(4.7848483681694507, -5.7981284458015558)	1.0	slash	1.36078
15	N	A	N	B	B	A	M	M	M	8	6	shapes	M	8	True	120	(1.3665427226628282, -4.5713152246234952)	(4.6052886589374662, 4.4191178417377071)	(6.9185446616680508, -3.5287086219797921)	(8.7164177349626257, 6.5443595601330706)	1.0	z	0.964164
16	M	A	M	N					B	4	1	shapes	A	8	False	120	(-4.2371437548693711, 6.4730297630797171)	(4.5640659054830266, -4.3782637684216441)	(-8.4977316431433945, -0.61559467067856311)	(3.037986973772961, 6.8539692413473006)	1.0	z	1.83801
17	M	B	N	B	N	M	A	A	B	8	1	shapes	B	8	True	120	(-5.9542225821648378, -0.59074877756589395)	(3.9584335710476672, -4.837565890409846)	(3.3983623934747005, 5.7335840128072153)	(2.5946259542123027, 0.392276930426112)	1.0	slash	1.71561
18	M	A	A	M					M	4	3	shapes	M	8	True	120	(-2.0185816130258907, -2.4691776296384464)	(6.0247513659016967, -2.2761119598472321)	(-3.269536029326809, 7.2495220969421545)	(4.8264326149754027, 5.00701092886945)	1.0	z	0.823393
19	M	A	N	B					M	4	1	shapes	A	8	False	120	(-4.3663813653799721, -6.1963547596141337)	(6.9828139632492991, -4.5589214381990262)	(6.7414628497777382, 2.7315948490035495)	(-1.3500170498360644, 7.113133067889958)	1.0	slash	3.0689
20	M	B	B	A	N	N	M	A	A	8	7	shapes	A	8	True	120	(0.23943664034628753, 3.7805330083322772)	(-3.2763730885298639, -5.8974037862789102)	(6.1489374889941697, -4.5899841680802567)	(6.4962590692143998, 4.8897737346650825)	1.0	z	1.67435
21	M	B	B	N	A	A	M	N	N	8	7	shapes	N	8	True	120	(0.57891158589950464, 4.0952096798248458)	(-8.6801273956152087, -4.0893775595264206)	(2.271356346241431, 8.2386493559064036)	(5.0192589469554658, -7.3411580662088305)	1.0	z	2.08002
22	M	A	M	B					A	4	3	shapes	B	8	False	120	(-1.2535984909992726, 3.5180026694322386)	(1.8403901262333431, -3.7352433426362204)	(6.8137765058158699, 8.2640075733372527)	(-2.326269462821144, -6.4490457304755147)	1.0	z	1.37764
23	M	A	B	N	B	M	N	A	M	8	0	shapes	M	8	True	120	(0.30094302403264628, -0.52375377061862238)	(-7.8195859357403243, 5.2195762935869929)	(2.7312359640369799, 5.4951529516209661)	(7.9841003310734777, -7.5450816968961938)	1.0	z	2.3951
24	M	B	B	N					B	4	1	shapes	B	8	True	120	(-7.9767332294104216, -5.5927883227160802)	(7.7650747289134472, -2.1368604542577758)	(5.343175953101051, 1.7677208224537235)	(-6.1335037941379387, 3.0480931022002231)	1.0	slash	2.11858
25	M	A	M	B	A	N	N	B	M	8	5	shapes	N	8	False	120	(7.1020960963833737, -1.2542158486333452)	(-2.6673568940512409, 7.635849208352834)	(1.1232884928121543, 2.4236059823360687)	(-8.2866577648640618, 5.946584231760367)	1.0	z	1.2921
26	N	B	N	M	B	M	A	A	B	8	6	shapes	A	8	False	120	(-7.1235289218288997, -3.158980159206525)	(5.6435355446477793, 3.6008796345607177)	(0.22090206969511783, 3.8292415440674556)	(-5.1675426573882035, 6.9900382038081599)	1.0	slash	1.58982
27	M	B	N	M					M	4	1	shapes	B	8	False	120	(-5.2872079242825931, 3.7114268924769807)	(5.3229626096291867, 1.8643719946476178)	(8.437113410003473, -6.9052476629923447)	(-7.8406065088172134, -1.7174740208942341)	1.0	slash	2.10343
28	M	A	A	B					A	4	1	shapes	A	8	True	120	(0.8909559532939344, 5.7346919970319803)	(-5.7427598023836914, -2.0537394399146187)	(0.11771275964787442, -3.5446834196677219)	(-5.3856437027162762, 6.7396884734249856)	1.0	z	1.25283
29	N	A	N	M	A	M	B	B	B	8	7	shapes	B	8	True	120	(5.8006557627595186, -3.8993260701238919)	(-1.0691039149566199, -3.3389823249782706)	(-5.3856965167269202, -7.3600599501680559)	(6.4656169084055399, 8.401397987317182)	1.0	z	1.10262
30	N	B	A	M					B	4	1	shapes	B	8	True	120	(-6.8252565690852052, -2.8854319782650082)	(5.4778615836582016, 7.2906679941308568)	(3.5145950309410399, -2.8412362174823889)	(-0.74137526678138954, 6.8229570665273105)	1.0	slash	1.30608
31	M	A	M	A					A	4	3	shapes	A	8	True	120	(-2.0270046879088444, 1.7827264063787656)	(3.1273022482143702, 5.5588594451649733)	(-3.4656929363237428, -3.6685901726587913)	(0.62149181181890256, -4.7828796101258035)	1.0	slash	2.77563
32	M	B	B	N					A	4	1	shapes	B	8	False	120	(-5.3932031547260273, -1.7311594991730654)	(7.4489156691801668, -8.2790874844291551)	(4.8819738015007363, 6.8984736863320144)	(-8.1239401974667977, 2.6828685468361186)	1.0	z	0.927406
