TrialNumber	stim0	stim1	stim2	stim3	stim4	stim5	stim6	stim7	stim.probe	ttl.stims	corr.num	trial.type	stim.corr	block	match	Subject	stim.pos0	stim.pos1	stim.pos2	stim.pos3	ran	resp	RT
1	M	A	A	N					N	4	0	shapes	M	Practice	False	121	(-2.0871620831971578, 6.3773682608674402)	(-3.2659417066699588, -0.39662691385065152)	(3.4569987794491936, -6.832830825482084)	(3.0373514292020367, 8.3777852984886891)	1.0	z	3.19384
2	N	A	N	M					M	4	3	shapes	M	Practice	True	121	(6.9461045965677606, 1.1847378197005121)	(3.7807439071639788, -7.8306476332396358)	(-8.3715288387122584, 7.3038338527337459)	(-3.38661819304627, -2.4479289990229596)	1.0	z	1.22852
3	N	B	A	N					N	4	2	shapes	A	Practice	False	121	(-7.1455150416104463, -4.3768136195504086)	(1.6639785960840623, -0.92702308749534357)	(1.8480562427236951, 7.7288177284357609)	(-3.1115069901288619, 2.0822254102627138)	1.0	slash	1.92834
4	M	B	A	A					A	4	2	shapes	A	Practice	True	121	(-5.3587127093209883, 6.00308841723262)	(-5.5177052182194775, -6.0508908529399967)	(6.6556944992385656, 0.78707218603534379)	(2.6040334191808956, -3.341526095168792)	1.0	z	4.46179
5	M	B	B	A	A	N	M	N	M	8	0	shapes	M	Practice	True	121	(0.22058876574490682, 2.2447263327654952)	(-7.2338136844765861, 0.18865631796030868)	(-8.2500722906562469, 8.5747844265766169)	(5.0218519695804282, -1.6084481002580935)	1.0	slash	2.55781
6	M	B	A	A	M	B	N	N	B	8	6	shapes	N	Practice	False	121	(-2.2149461511685775, -2.4833715176077842)	(-6.4520660320720999, -6.1328284762115235)	(3.9571210362657521, -5.6153103306046344)	(-2.8523521466134651, 5.9471305809861992)	1.0	z	2.96934
7	N	B	M	A	A	M	B	N	B	8	2	shapes	M	Practice	False	121	(-5.6062994383224769, 2.885209525080155)	(1.4366274145450486, 7.6419117911942429)	(-7.6958988180434309, -6.2586404811236171)	(-8.0416253650013623, 6.2685735628700527)	1.0	z	2.06815
8	N	B	N	M	B	A	M	A	B	8	4	shapes	B	Practice	True	121	(5.2616173470209127, 6.6301593231963558)	(4.6265762314153847, -5.220006160699711)	(-4.8750654123000041, -0.4968945897140884)	(0.43767235269246463, 1.9410259366057687)	1.0	z	1.41776
1	M	B	A	A	M	N	N	B	B	8	2	shapes	A	0	False	121	(-6.1112948604350539, -3.3840177094691732)	(7.2628362437603435, -2.6687487326570327)	(7.3413785579913444, 1.9912595708231109)	(2.1667758927756715, 3.7131496601796794)	1.0	slash	2.79988
2	N	B	M	B	M	A	N	A	A	8	7	shapes	A	0	True	121	(-7.0646411246239156, -6.21184664108877)	(-3.7527648856489479, -0.36588304971946073)	(4.5038160309096025, 4.536157669337447)	(3.0037513464030248, -5.9214910119763644)	1.0	z	2.25073
3	M	B	M	N					A	4	0	shapes	M	0	False	121	(4.5324353896559231, 1.7340831249459079)	(-3.3375796750338953, -2.3091795706947682)	(-7.7273267181497243, 2.7048392516940787)	(6.5158496720601562, -7.4813587459983886)	1.0	slash	1.47415
4	N	A	M	N	M	B	A	B	A	8	6	shapes	A	0	True	121	(-4.962569339603828, -7.5139734666907909)	(-3.310469956016509, -2.0048050592276754)	(2.9010130577696049, -7.5279934231465431)	(-5.2952615586437268, 2.4790958547250312)	1.0	slash	1.81445
5	M	B	M	N					N	4	1	shapes	B	0	False	121	(-4.4036705070345894, 0.71938058900507862)	(7.6377569280265512, -5.2298379812870239)	(0.53779154797073048, 5.1164893259979873)	(-7.3613678339540085, -7.7870099254251155)	1.0	slash	1.14193
6	N	B	N	B					A	4	3	shapes	B	0	False	121	(8.0806051224934308, -3.1679493180627025)	(1.8075169231375092, 7.7804790926069174)	(-0.5969120433214421, 2.5603599428183301)	(-0.96904155536608894, -6.7847109203728362)	1.0	z	1.29907
7	N	B	B	A	M	M	A	N	A	8	0	shapes	N	0	False	121	(6.87483661510365, 7.7473740771688213)	(7.5618103897488993, -1.2327339935211183)	(2.3535860459828672, 3.4887571085048226)	(-6.6959048957492815, 6.6066784496545221)	1.0	slash	2.21126
8	M	A	N	M					A	4	1	shapes	A	0	True	121	(4.178694605197542, 8.1684364713920488)	(3.6676571265858904, -6.1071169568667329)	(-5.677881245205505, -1.3800748265424065)	(-2.0217452456074403, 2.0067483841836022)	1.0	z	1.50621
9	M	A	A	M					M	4	0	shapes	M	0	True	121	(4.4945731024771991, -8.2459771371691737)	(2.8158686419505248, 5.2707285042221592)	(-6.5341055204148812, -8.7473888032432416)	(-6.8324530861375532, 8.0269334970985611)	1.0	z	1.52747
10	N	B	N	M					M	4	3	shapes	M	0	True	121	(-0.84048271960320076, -8.4070133774479192)	(2.5467380762136962, 6.8595465627138807)	(-5.7658856398358607, 2.3916554321394052)	(1.8762414394339046, -2.7554748447213413)	1.0	z	1.27329
11	M	B	N	N					A	4	1	shapes	B	0	False	121	(-7.2306835302721328, -4.3043623734301564)	(-4.182717834980636, 4.1423246978711425)	(7.460158231931306, -1.9519334214885689)	(1.9365001345503465, 4.0424194411824583)	1.0	z	1.16313
12	M	B	M	N	N	A	A	B	N	8	4	shapes	N	0	True	121	(3.6546131199696923, -1.3421710165207195)	(7.5393828447133906, 5.6198500379386669)	(2.860357077666686, -5.2932551471196669)	(2.119600029294352, 3.9454248424108673)	1.0	z	1.22854
13	M	B	N	B	N	M	A	A	A	8	4	shapes	N	0	False	121	(-7.1890792471886051, 3.8275155071245326)	(-1.6215509828493602, 2.6810259599820849)	(3.8941369190942545, 0.40076564529513803)	(0.91609459284164174, -8.4456873565629174)	1.0	z	1.62418
14	N	A	M	A					A	4	3	shapes	A	0	True	121	(-5.0601223242489954, 7.504348453231362)	(1.0758946368677886, -8.6378773471781951)	(-4.4860847989176422, -0.8354778069607649)	(6.2147815976894023, 3.4715678252357076)	1.0	z	2.46192
15	N	B	M	N					M	4	1	shapes	B	0	False	121	(2.9165791930328755, -5.5523127106011003)	(-3.5649473272592065, -6.9196874392236349)	(-4.3929976190034434, 2.9309453860841472)	(0.45801111315475573, 0.37118954862130416)	1.0	slash	1.1951
16	N	B	B	M	M	N	A	A	A	8	3	shapes	M	0	False	121	(3.6590577903233452, 3.8986980778004678)	(-5.7941939993395337, -6.4932881671558347)	(8.5683363974466573, -4.3838991193812911)	(-0.15322186152373973, -3.1847889310805222)	1.0	slash	1.10155
17	N	A	N	M					A	4	1	shapes	A	0	True	121	(5.8398285940099885, 8.4389224003119203)	(-3.8574605369526189, -3.1430226290602929)	(3.1290918846122668, -0.89030018860690951)	(-4.9217523733152317, 7.7434093555673904)	1.0	z	1.10904
18	N	A	M	A					M	4	0	shapes	N	0	False	121	(5.1437255297238149, -6.4261622296285656)	(-3.7822202304089343, -0.7257257175418772)	(3.366457273538229, 2.0696057404557067)	(-0.48504777295227619, 3.5233457010655158)	1.0	slash	1.09439
19	M	A	N	N					N	4	2	shapes	N	0	True	121	(7.9295469632503242, -4.5853412158244584)	(-6.8614180677053476, -3.4893641999671052)	(3.9851901070161606, 8.0883797981765646)	(-8.6562969440282842, 6.5098409689490406)	1.0	z	1.32594
20	N	B	N	A					N	4	2	shapes	N	0	True	121	(3.8808980840663594, -1.3959551213221104)	(1.5784108711458789, 2.2331087274407402)	(-7.4907840744581717, 5.4496388600458303)	(-1.6923789214639466, -7.917017343039416)	1.0	slash	1.2135
21	N	A	M	N	A	M	B	B	N	8	3	shapes	N	0	True	121	(0.28920156028053512, 7.2456137969944798)	(-7.2048962568258617, 5.4462043784253353)	(2.1706089017652452, -0.12089717714558113)	(7.0522794601056589, 3.1020162933190658)	1.0	z	1.44503
22	M	A	M	B	N	N	A	B	B	8	2	shapes	M	0	False	121	(6.0363588183683952, 5.4627501581762292)	(3.1624267257019518, -2.251909105328294)	(-0.92464699993193911, -8.4028438864164627)	(-5.0177774693960426, 8.4884672944022519)	1.0	slash	1.12082
23	M	B	A	M	A	N	N	B	N	8	6	shapes	N	0	True	121	(-2.0770973123320307, -1.8747693887092529)	(4.5096635542286627, -6.0397769726986628)	(-8.0822504462032168, 6.0316664054305296)	(4.1645205606364524, 7.8005355647819279)	1.0	slash	1.38822
24	M	B	N	A	A	N	B	M	M	8	0	shapes	M	0	True	121	(-8.6573260186884742, 2.8750549282101172)	(7.6719199051772087, -4.4866286508238069)	(-1.9925364850573422, 6.8881425893629284)	(8.5266961509847263, 4.6493694359702697)	1.0	z	1.60787
25	N	B	N	B	A	A	M	M	B	8	5	shapes	A	0	False	121	(-1.0745122333995312, -1.5863651295959889)	(3.9279507251259549, 0.64061433916549504)	(-7.8319868989135966, 4.1571121475694497)	(-8.7412938886733098, -7.5210548928903744)	1.0	z	1.28134
26	N	A	A	N	M	B	B	M	N	8	4	shapes	M	0	False	121	(7.6961811756475669, 4.9919350274200767)	(0.64210199646776545, -5.346688934013093)	(-3.3789399918479148, 1.0339707836120553)	(6.9302349900876941, -2.4746402774509102)	1.0	z	1.03529
27	N	A	B	A	M	N	B	M	B	8	7	shapes	M	0	False	121	(-3.9937080125586961, -3.5222862217054303)	(4.5892219044363696, -4.7420443507843286)	(-7.2632520850778803, 7.2204097669742335)	(-8.225962316327351, -5.2912403237427927)	1.0	slash	1.12671
28	M	B	N	M	N	B	A	A	A	8	6	shapes	A	0	True	121	(6.7332338101782607, 4.3204063279112308)	(1.8474257231386417, 0.94956524304627443)	(4.3312838152763025, -4.256892079055592)	(-2.343599145763239, 4.1102399526380307)	1.0	z	2.1664
29	N	A	A	N	B	M	M	B	N	8	0	shapes	N	0	True	121	(-8.4754731511249197, -3.8484586665560698)	(5.0606643872513626, -2.0727952708645692)	(8.2102376141032707, 3.0358786490292946)	(-8.4096161405195495, 6.6582300910071304)	1.0	slash	1.50374
30	N	A	M	B					M	4	2	shapes	M	0	True	121	(7.8603593720899276, -1.824521787037245)	(-4.7405695866482693, -0.46839027815721934)	(-4.728200391753175, 6.6430923907806179)	(0.65037842708531457, 7.6367267734526756)	1.0	z	0.988508
31	M	A	A	N					M	4	2	shapes	A	0	False	121	(-0.48561947651895565, -2.7844574759831033)	(5.1541689066885752, -6.2318993950188162)	(4.2152193040653039, 4.4508681760223858)	(-5.5561382044129903, 0.37332169972814278)	1.0	slash	1.35899
32	N	A	N	B					N	4	3	shapes	B	0	False	121	(-6.6221993169643465, -0.48715631987364461)	(0.18140119538020372, -2.5283632344752851)	(5.4542828681262048, 0.37005026486536607)	(-1.903157918286051, 6.2584464265710462)	1.0	slash	1.14481
1	M	A	N	A	N	M	B	B	M	8	5	shapes	M	1	True	121	(2.3906484535491721, 3.6488717409902538)	(5.6201349332155957, -3.8680479177936542)	(7.764851441045554, -0.35951648826158511)	(-5.0742883333637607, -1.9075385240788254)	1.0	slash	1.55049
2	M	B	A	A	M	N	N	B	A	8	4	shapes	M	1	False	121	(5.7962255789935657, -4.3323555287026076)	(1.0344853322980274, 7.9506952921786791)	(1.6900022475368583, -4.0873889118767597)	(8.0253479287129963, 4.8779960642365214)	1.0	slash	1.46613
3	M	B	A	N	N	B	A	M	M	8	0	shapes	M	1	True	121	(-1.6062590443455314, -5.180070089902399)	(2.641477234520508, -5.0798979321081372)	(-7.010018554599398, 6.026639299998477)	(7.4064833306517919, 0.60056401623103106)	1.0	slash	1.70363
4	M	B	N	M					M	4	1	shapes	B	1	False	121	(-5.1612148151645298, 8.4532241544993916)	(-4.9178846371909639, -2.5486835856996155)	(7.0450422428055166, 1.575752458883084)	(3.2804331182225965, -5.8050424015228135)	1.0	slash	1.45119
5	M	A	M	N					A	4	1	shapes	A	1	True	121	(-2.3462611895941565, 0.01026771963972628)	(3.0935047171845689, -4.5793073958453707)	(2.8061675411988674, 1.2383657590484596)	(-6.7369318125479412, -5.423688564863693)	1.0	z	1.87462
6	N	A	B	M	A	N	B	M	A	8	7	shapes	M	1	False	121	(-2.1922303284390461, -1.7001698700941708)	(-2.2565401691537472, -6.0355851459632266)	(4.1681521096813263, 1.7233718775571312)	(-6.1971696426944254, 7.8382008445006655)	1.0	z	1.98267
7	M	A	B	A					M	4	2	shapes	B	1	False	121	(-5.2597806397975173, 5.4200346004460709)	(2.7910933907213415, -4.494752423679806)	(5.8347102135170399, 8.0426097133981749)	(-1.3744426136163437, -3.9711393082433499)	1.0	slash	1.17793
8	N	A	A	N					N	4	3	shapes	N	1	True	121	(4.6843416410370029, -5.5180967786308752)	(-1.9896600005583105, 3.9025466688766777)	(-3.5658501607388597, -1.2904302814181401)	(7.1757773607086737, 3.4635215772551664)	1.0	z	1.22353
9	M	A	A	B					A	4	0	shapes	M	1	False	121	(-4.5454131921865963, -6.924323337559219)	(-6.7713753770719221, 3.2041217588893041)	(5.0325531405304957, -0.79125688251136328)	(4.2565620593779538, 6.8422405220795088)	1.0	slash	1.37979
10	M	A	B	M	N	N	A	B	M	8	3	shapes	M	1	True	121	(-4.7612248898747911, 3.3374725981543403)	(7.0670096756339724, -6.4517036740869571)	(8.6574145962147995, -0.72455722933870881)	(-7.708561627191667, -7.492693591144624)	1.0	z	1.64235
11	N	A	B	M					N	4	3	shapes	M	1	False	121	(6.6687374852198253, 5.2856631866822923)	(-1.7634602838051645, -2.3954525494085859)	(3.2446683306534787, -0.067857877679845302)	(-6.3608590214888201, 0.86309790886332394)	1.0	slash	1.30664
12	M	B	M	A					A	4	2	shapes	M	1	False	121	(-3.2558790774473358, 0.84182830012170839)	(-3.5735863845606168, -8.0554741383958)	(5.5722105934011132, -6.0786026525458752)	(2.8945367495645975, 4.2597785219860942)	1.0	slash	1.22247
13	N	A	A	B					B	4	0	shapes	N	1	False	121	(-1.8422238395256434, -7.4387150819853911)	(-0.88881079662966389, 4.0706637969566639)	(6.6765396437150333, 8.5705971538895156)	(2.9941635772671766, -3.1097272807354805)	1.0	slash	1.21233
14	N	B	A	N	B	M	A	M	N	8	0	shapes	N	1	True	121	(-8.2888886700965045, 1.1471583765879672)	(5.7542391763917937, 5.4247151372344664)	(6.5209896282817077, -7.8861837022839314)	(5.7944903798253797, 0.84296330693095811)	1.0	slash	1.09117
15	N	B	M	A					B	4	2	shapes	M	1	False	121	(-1.958783264781724, -8.3962159204334395)	(-0.31598222224496375, 4.9977555481979117)	(5.9420574802785104, 4.4967356442113182)	(4.4086615710832966, -4.3625737418208796)	1.0	slash	1.34492
16	N	B	A	M	B	M	A	N	N	8	5	shapes	M	1	False	121	(6.8206938546399822, -4.9221838134071154)	(-1.4514464335663577, -4.1187045833650391)	(-6.9699433860869942, 2.5068189532853111)	(5.9728984567418806, 4.6864953005160199)	1.0	slash	1.86263
17	M	A	A	M					A	4	2	shapes	A	1	True	121	(-2.2024733290571303, -6.8708883149460132)	(6.8462327416866042, 6.4528967359145692)	(-3.425233309466206, 3.2367715039457146)	(6.42710981093831, -5.1050957470797567)	1.0	z	1.06849
18	M	A	M	B	B	N	N	A	N	8	5	shapes	N	1	True	121	(2.7875758599236811, 2.7065784030201812)	(-3.8267463087635551, -4.924082243559802)	(-2.7892035984687693, 4.5575581752009207)	(-0.96486723728360424, -7.9071073848953359)	1.0	z	1.4976
19	M	B	M	N	A	N	B	A	A	8	3	shapes	N	1	False	121	(2.2298289563020823, 3.2455267884112597)	(2.2892374738445742, -2.9262076338829557)	(-7.6677853487773842, -8.1607454296316302)	(-2.628169055351858, 0.34292325622960895)	1.0	slash	1.47924
20	N	B	B	M					A	4	2	shapes	B	1	False	121	(3.7253714932643192, 6.7793855576603654)	(-5.2065351302876497, 0.70917041663495972)	(1.140903302800119, -4.2714889788061861)	(-7.3605568494295506, -8.3811843704416553)	1.0	slash	1.31348
21	N	B	B	A					B	4	1	shapes	B	1	True	121	(8.2577304478524169, -5.9223994649700966)	(3.5834908857388523, 3.4865007838069957)	(-2.7262730465415812, -0.25448197896774438)	(-6.5443459727406399, 3.8017024575070408)	1.0	z	1.2364
22	M	A	M	N					M	4	2	shapes	M	1	True	121	(6.6406693090718321, -2.4862727655606882)	(-7.9837112315977619, 6.850932972532604)	(-2.7125734614174188, -3.5903533826667582)	(0.80527709536515779, 2.8222967488188555)	1.0	z	1.60464
23	N	B	M	N	B	M	A	A	B	8	3	shapes	N	1	False	121	(-4.4777710678750546, 7.8390748289312988)	(-7.8850558316671213, -7.4125083280817723)	(-5.9982041079400066, -3.082094622789854)	(2.3911499981187099, 8.1759713750215255)	1.0	slash	1.34435
24	M	A	B	M	A	B	N	N	M	8	7	shapes	N	1	False	121	(6.181969372861392, 8.6967824316164162)	(8.2792814895839584, 2.0843698516793285)	(-0.65823163258355422, -4.0833173827497431)	(-6.8170177648569865, -5.2710717258806001)	1.0	slash	1.30991
25	N	A	B	B	M	A	N	M	M	8	0	shapes	N	1	False	121	(4.1833790729965052, -5.8991194299782048)	(7.7614158638087893, 5.2718890259390143)	(-4.4384091365658742, -4.6377281947266251)	(2.8504853059157522, -0.8638239637574161)	1.0	slash	1.39494
26	M	A	N	N	A	B	B	M	N	8	3	shapes	N	1	True	121	(4.0850302834952359, -7.2976667296137805)	(-4.0382525342080822, -7.8150082850613556)	(0.59108736368152393, 2.9014471161073825)	(-3.6985770563585323, 0.0077922738669027325)	1.0	slash	1.55842
27	N	A	M	B					B	4	3	shapes	B	1	True	121	(-8.6545659095305769, 0.47603500175875801)	(2.6458371064366961, 8.2363815828974509)	(3.5935380763273255, -8.7409697172986665)	(-6.8064052998538109, -7.7735765953489606)	1.0	z	1.39006
28	M	A	M	B	A	B	N	N	B	8	7	shapes	N	1	False	121	(8.522491421646027, -2.7817999030292322)	(-5.8966127890097919, 0.029061533496710368)	(6.5769693787515919, 1.2514777892293356)	(-3.9784588333675988, 4.5251240844478833)	1.0	slash	2.20283
29	M	A	M	N					M	4	2	shapes	M	1	True	121	(-0.5076809122738517, -1.3356943318776127)	(6.2729479574626339, -6.9883425553070095)	(0.76826391203840139, 6.5881203238337918)	(-8.0776821785065032, 1.7107403785223365)	1.0	z	1.45187
30	M	B	M	A	N	N	A	B	A	8	3	shapes	A	1	True	121	(-0.12969994728305601, -5.8148768348210513)	(8.3967018792808936, 0.78203446482370964)	(-3.3881351327390137, 7.9927298386363255)	(-0.9798135855097625, -0.52171722506963114)	1.0	slash	1.62684
31	M	A	B	M	N	B	N	A	A	8	7	shapes	A	1	True	121	(-1.5847293669815992, 6.667465607676835)	(5.3712389922004924, 1.7089316505884984)	(4.6652512045133747, -8.1717712602109316)	(-2.6780582242923616, 0.79418931765695255)	1.0	slash	1.27092
32	N	B	A	M					B	4	1	shapes	B	1	True	121	(-5.686381247093121, -1.1293381313358992)	(4.9795209401738116, 2.2910858197075008)	(5.4309208276528071, -5.0900727901861504)	(-1.0898596452424014, 0.66750000370202045)	1.0	z	1.05015
1	N	B	M	A					N	4	1	shapes	B	2	False	121	(-4.5048144951386542, -8.1479153797773858)	(2.1902215413104766, 7.2667305183480551)	(4.6832938117769753, -3.9478937482528753)	(-0.28762602559878836, 2.2378406515635891)	1.0	slash	1.12819
2	M	A	B	B					N	4	0	shapes	M	2	False	121	(-0.36400658449655765, 6.8262688122280775)	(-7.9015696238112909, -2.4463826773995505)	(7.8778797798914475, 5.4889888626043124)	(1.0551988064615969, -5.0169874760317414)	1.0	slash	1.07154
3	M	B	N	A					N	4	2	shapes	N	2	True	121	(-3.7860245655093934, 8.7268615629585824)	(0.75444624374481428, -1.7932227911551823)	(5.6049931031115534, 0.24650531993607316)	(-4.4490822052452756, -0.78249317323917644)	1.0	z	0.89148
4	M	A	B	M	A	B	N	N	M	8	2	shapes	B	2	False	121	(-1.8988036318235304, 5.2885417081702482)	(7.7163586821485275, 6.7262748352526245)	(-4.9254327971053815, 0.99036539078746166)	(-1.5420051788246045, -1.8554980165694168)	1.0	slash	1.61858
5	M	A	N	M	A	N	B	B	A	8	1	shapes	A	2	True	121	(-0.53466483099897211, -6.2131338194549848)	(-6.464852766078458, -2.0459986627229911)	(-0.67691038872925979, 4.2733045276649744)	(-8.3157909971989969, 6.8049690002192786)	1.0	z	1.24032
6	M	B	B	M					B	4	0	shapes	M	2	False	121	(-6.0015103052021956, 7.0707492911577496)	(-7.3737707955050364, -7.4771853975053562)	(7.5146114483532713, 2.5976533669624793)	(7.2056209477632542, -3.1192840608897816)	1.0	slash	1.28242
7	M	A	N	B					A	4	3	shapes	B	2	False	121	(-4.5151340441615755, 7.6903628424514707)	(3.0937908535379854, 7.1625707985883817)	(1.0022424576410831, -2.4344279348220725)	(-2.3140206106979271, -6.7837577713747796)	1.0	z	0.971328
8	M	B	M	N	A	B	A	N	B	8	5	shapes	B	2	True	121	(1.630965851134393, -8.3615986568766232)	(3.0726877214487338, 1.2519247969126468)	(3.9044300846311177, -3.8641447313034014)	(-1.7290822914623698, -4.0222056390438317)	1.0	slash	1.3572
9	N	B	N	M	B	A	M	A	A	8	6	shapes	M	2	False	121	(-2.7155010020608046, -3.3645485000566744)	(-0.26873039280481237, 0.98331276694242575)	(-7.721539217308802, 4.5792447741035236)	(1.2418141890069059, 6.6255552010200365)	1.0	slash	1.30325
10	M	A	B	B					A	4	1	shapes	A	2	True	121	(-4.325624311977001, 1.6817617081075138)	(-2.2496085620349735, -8.0260235685460373)	(4.5123072127545729, 0.39073307914203603)	(7.1591737805252471, -4.688018681906776)	1.0	z	1.15424
11	M	A	M	B	A	B	N	N	M	8	0	shapes	M	2	True	121	(0.28464137247505583, 1.177295638466715)	(8.5279413925840686, -5.7997419902627954)	(-4.5203949139705886, -2.1802696545545777)	(6.3002385323158343, -1.0287972520559583)	1.0	slash	1.02859
12	M	A	A	N					B	4	1	shapes	A	2	False	121	(4.8761458062604017, -8.2566981042133207)	(-7.5752652410165826, 4.3583037039191321)	(7.7634369129957506, 4.3295414009044588)	(-2.7922979212372301, -3.3514600146691196)	1.0	z	3.27113
13	M	A	A	B					A	4	2	shapes	A	2	True	121	(-1.53431890154069, -1.8634924303433227)	(4.1210689706386425, 5.8686010193406144)	(3.2676999058333465, -4.119190465388856)	(-1.9893980491762218, 6.1913444525253283)	1.0	slash	1.59363
14	M	A	N	A					A	4	3	shapes	A	2	True	121	(-3.4337409952448601, -2.7896213857290553)	(7.8955084311548624, -6.1057345650808976)	(-0.64133805272786404, 3.3582382982783656)	(8.1403140676402899, 1.345693643655796)	1.0	z	1.3093
15	M	B	M	B	A	A	N	N	A	8	5	shapes	A	2	True	121	(5.9339051119693149, -5.7596725821419277)	(-3.8679342814545139, 5.015039713767111)	(1.5131856734507618, 3.3299220825185554)	(0.60076837472061584, -2.9408833184928653)	1.0	z	1.71489
16	M	A	N	N					N	4	2	shapes	N	2	True	121	(-1.3342150756575561, 7.776943761532177)	(-4.9308603358790846, -7.8255844909169703)	(5.9889199332952039, 1.2247751353073077)	(0.9884961819762843, -2.5824244764355919)	1.0	z	1.23788
17	N	A	M	M	N	B	A	B	A	8	1	shapes	A	2	True	121	(6.4479456859782704, -5.3452506845598249)	(-3.9829250309994721, -3.7462163639510253)	(6.0191515434179497, 3.2027082596769141)	(0.10063498960697004, 0.60407432078995704)	1.0	slash	1.25731
18	N	A	M	A	B	M	N	B	M	8	5	shapes	M	2	True	121	(-1.0627436429822108, -2.0237483241432574)	(-0.83066769894909154, 3.4721483073476982)	(-1.1609473691807883, 8.4004145018740743)	(5.9022735960309838, 8.686085248042918)	1.0	z	1.82312
19	N	A	N	M					M	4	2	shapes	N	2	False	121	(3.9943069938116782, 8.7310171603342042)	(6.2581737721378534, -3.9032500908785002)	(-6.1682573886768655, -2.4842142393318767)	(-1.8137199088414198, 3.7492637262117583)	1.0	z	1.38918
20	M	A	B	A	B	M	N	N	M	8	0	shapes	M	2	True	121	(2.3005418721328326, 1.6031360382645818)	(2.4300624771645722, 8.1641046168799036)	(-1.2352341536080758, -2.9819268758487576)	(-6.7545380985173207, -3.9666401270028304)	1.0	z	1.96082
21	N	B	M	N	A	A	B	M	M	8	0	shapes	N	2	False	121	(0.27542402016852208, -0.24191289302325636)	(-3.2898599074437715, -7.7182903946543382)	(1.1917676231549077, 7.7443523777003627)	(-8.6585338878412745, 5.3501097882916682)	1.0	slash	1.08975
22	N	A	N	A					N	4	0	shapes	N	2	True	121	(5.2736003452043754, 2.8352997500495007)	(-7.6227887880680179, -1.6754953773681045)	(-8.2062570499592944, 3.1762291523648418)	(1.3222456610936622, -8.5114002380146747)	1.0	z	1.20934
23	M	B	M	A					M	4	2	shapes	M	2	True	121	(-0.82242029520008586, -6.3838728025611795)	(0.92439781527006915, 7.0397349939445188)	(6.0268530334080559, -7.3347435639990755)	(-7.876214663858498, 0.38767948482324677)	1.0	z	0.943586
24	N	A	N	B					B	4	3	shapes	B	2	True	121	(5.2190410771314557, -7.9225694473503161)	(-4.035388514721685, -1.326891521680829)	(-2.3502721412883689, 6.0537171702082127)	(3.1892749481915104, 0.62739211337069634)	1.0	slash	1.33887
25	M	B	B	A	N	N	M	A	B	8	3	shapes	A	2	False	121	(2.4902650974923777, 0.36357685396134798)	(0.12056741975522201, 4.9643007668001147)	(-5.4345603442300892, -5.8541012745967036)	(5.3604856132337506, -8.0346270778782518)	1.0	z	1.09866
26	N	A	B	A	M	N	M	B	A	8	2	shapes	B	2	False	121	(-5.5316396030757007, 1.9725157238242392)	(0.38028319930393373, 7.2609295106977356)	(6.1412234165600221, -4.962600348981919)	(5.1641083763996694, 3.1646855794083706)	1.0	z	0.874572
27	M	A	A	N	B	B	M	N	M	8	2	shapes	A	2	False	121	(-0.47168021454574571, -3.4029066585575354)	(-2.1201167256888436, 8.3175262974696551)	(-7.695728540645435, -7.6750170697879545)	(7.9310809879695157, 6.3973061839249734)	1.0	z	1.04371
28	M	B	A	A	N	B	M	N	N	8	7	shapes	N	2	True	121	(2.7375422551778605, -5.3905836589080538)	(-0.99810697994138131, 6.6007399109727221)	(2.995263286177746, 2.1732434266123661)	(5.7703257474869183, 8.5678912805468421)	1.0	z	0.90125
29	M	A	B	M					M	4	1	shapes	A	2	False	121	(3.7474087889516401, 1.9109914628833256)	(-6.585570376551372, -6.7358230239630288)	(-8.5431520077195611, 2.599165578528094)	(7.3154661054905681, -4.5556506097607334)	1.0	slash	0.994972
30	M	B	B	N	N	A	M	A	N	8	2	shapes	B	2	False	121	(-8.2971057699254462, -1.0746615287014718)	(8.1483347141554354, -7.1469999159745372)	(-8.2554025029368656, 7.0106811545412171)	(-0.74857558312419314, 1.2981360018519581)	1.0	slash	1.17411
31	M	A	N	M	A	N	B	B	A	8	7	shapes	B	2	False	121	(3.9423793038139774, -4.8956055574490644)	(0.42086077692322554, -7.4830603232799646)	(-1.648367065318479, 7.2103337837987453)	(-2.3180592661069328, -1.8062615307254672)	1.0	z	1.53393
32	M	A	M	B					A	4	2	shapes	M	2	False	121	(7.9105672987059492, -5.4726954472711293)	(8.608481492250398, 3.8226233554565461)	(-5.5906301884701293, 1.5132358712717728)	(-7.218154266512526, -2.7612619059517254)	1.0	slash	1.03789
1	M	A	A	B	M	N	N	B	B	8	2	shapes	A	3	False	121	(-2.7220950245683975, -1.9439454332715194)	(-2.5936784380727671, -6.5628076311461125)	(-0.20691531263742213, 3.1048208229903373)	(8.3831068427094699, 8.249939560165501)	1.0	slash	1.06138
2	N	B	M	M	A	N	B	A	A	8	3	shapes	M	3	False	121	(6.53884887632708, 0.7009236753561936)	(3.7172554436351284, -7.8831283341288021)	(-1.3002906617003234, 7.9261274940716788)	(-8.3959157322304119, -6.9734386393428274)	1.0	slash	1.50484
3	M	B	B	M	N	A	N	A	M	8	3	shapes	M	3	True	121	(7.3432036135237944, -1.4078798386279736)	(-6.11137622165338, -4.628694182097818)	(2.7937165227227574, 0.40005590766510224)	(-6.9931706628567722, 2.5237825589955012)	1.0	z	1.08457
4	N	A	N	A					N	4	0	shapes	N	3	True	121	(1.2728640378489846, -4.5489688474075658)	(7.0689277243972963, 2.1335666545364624)	(-0.98744326202376076, 3.7081781994892182)	(-4.1365457946413891, -4.475407611869791)	1.0	z	1.17079
5	M	A	M	A					B	4	3	shapes	A	3	False	121	(7.3344197920894203, 0.69310611679520839)	(-0.86531325341638521, -0.17752981908932242)	(-3.6731719198653785, 8.2746839070852296)	(7.6960691644841006, -4.2621693116683241)	1.0	slash	1.34633
6	M	B	M	N	A	A	N	B	A	8	5	shapes	A	3	True	121	(5.1808976407508354, 5.6336989145479386)	(-2.9383749623326647, -6.0891348444921913)	(-6.3931025241924626, 5.6379497563107943)	(0.32870734760307663, 1.731236043798237)	1.0	slash	1.39805
7	N	B	M	M	A	A	N	B	M	8	3	shapes	M	3	True	121	(6.4424466270769329, 4.5673346683092308)	(-2.0871175532331092, -4.2156315400071893)	(-8.0647708833324927, -6.5934716948238457)	(6.9065920356349064, -4.3765226500879013)	1.0	z	1.1517
8	M	A	A	M					M	4	1	shapes	A	3	False	121	(-6.6807253249617382, 3.8460462231014496)	(0.91966994347791164, 8.5273718289732834)	(8.5518193760611823, -0.89826981610846879)	(-1.8535063237405041, -1.415847167961342)	1.0	slash	1.12339
9	M	B	N	B					A	4	2	shapes	N	3	False	121	(3.2454081461005728, -7.0477211546953065)	(-2.6295116444495781, -6.782330727514843)	(-5.3206418862138074, 0.44752857792702727)	(5.8594050809598421, 3.5252520732821058)	1.0	slash	3.32481
10	M	B	M	B					M	4	0	shapes	M	3	True	121	(-4.9641958238000168, 0.24671541962480781)	(0.11872884175192944, 5.4651564730881841)	(7.6646781857868298, -2.8007407788522229)	(-8.4440651731046632, -6.0949789955451701)	1.0	z	1.40161
11	M	B	M	N					M	4	0	shapes	M	3	True	121	(-5.2881233221344521, -5.9061334603291389)	(5.5831290744141384, -4.3176917761207916)	(0.29850252194860616, 3.1683727088283824)	(-8.1522688113123127, 6.1094346347983262)	1.0	z	1.04311
12	M	B	M	N	N	B	A	A	M	8	2	shapes	M	3	True	121	(5.8675984114675277, -4.81934939922807)	(8.0059414486629272, 2.4632852203616906)	(-7.9426200251697034, 4.8831568599962409)	(0.79407534103514621, -7.9141747272693657)	1.0	z	1.90055
13	M	A	B	M					B	4	2	shapes	B	3	True	121	(-6.0645372628097709, -3.9805079641753034)	(6.5923124148401406, -0.46853861703070798)	(-3.9809634743977558, 5.9108490365263116)	(2.1293773915456047, 8.4762357669930566)	1.0	z	0.883072
14	M	B	B	A	M	N	A	N	A	8	7	shapes	N	3	False	121	(7.8618569532879938, -1.8641973431098489)	(3.9937173422774617, 4.1247027531355425)	(-5.485600116323516, -7.1416510006961706)	(-6.6284551516895487, 1.2559348599461888)	1.0	z	1.27067
15	M	B	B	M					A	4	1	shapes	B	3	False	121	(-4.2902732324834751, -8.7040069468333066)	(6.1278450279599426, 8.125311425930331)	(-4.2797885492685683, 2.4199771684150075)	(3.222166349528063, -3.5575416773767676)	1.0	z	0.977844
16	N	B	N	B	A	A	M	M	B	8	0	shapes	N	3	False	121	(3.4253720268377919, -6.7239626348118211)	(-7.0141163946020733, -2.0560096239254397)	(4.924431155971817, 0.54195723176972166)	(5.2243186067161638, 5.1361062830002702)	1.0	slash	0.999112
17	N	B	M	A					N	4	0	shapes	N	3	True	121	(-8.4321012960267261, -4.9749984935701894)	(1.6963834595006588, 6.77294241592665)	(7.9010026920076655, -4.9587159980998443)	(-0.11410900495385512, 1.4647187199135363)	1.0	slash	1.10516
18	M	A	B	N					A	4	0	shapes	M	3	False	121	(5.4528893115879686, 2.9710258944342485)	(0.30920410021245637, -1.217755149216206)	(-4.6157102451793968, -7.7579523628589699)	(-6.5608456566430959, 8.1030448937483328)	1.0	slash	0.972677
19	N	B	M	M					A	4	0	shapes	N	3	False	121	(-7.4551478327684642, 6.1628651459882207)	(0.24061873406490086, -7.8711105032404518)	(0.30645938486299151, 2.1695020940526781)	(-3.8154518660596208, -5.9365976319255047)	1.0	slash	0.84448
20	N	B	A	A	M	B	M	N	N	8	7	shapes	N	3	True	121	(1.8480455265862226, -1.7607173600395214)	(-4.139798342533326, -3.8780974375209123)	(-8.2950454495844692, 4.2531247149003839)	(-2.2525056099774199, 3.434973479643201)	1.0	slash	1.06216
21	M	B	A	N					A	4	0	shapes	M	3	False	121	(-8.7460565415605416, 5.6373421911734187)	(6.8438898461562818, 2.0287128928272988)	(0.31920172686874082, -5.1355804208551135)	(-4.2023234514962597, -3.5056718627961763)	1.0	slash	0.697273
22	N	B	B	N	M	M	A	A	B	8	7	shapes	A	3	False	121	(-4.5027490584711902, -8.1329791777637617)	(-5.5958040867929588, -3.343631655371297)	(-8.1272338139426665, 5.6894132792725323)	(5.6642156662103762, -3.2361164376643359)	1.0	slash	0.905317
23	M	B	N	B					B	4	3	shapes	B	3	True	121	(-5.9670879859172885, -4.1600491107971447)	(2.368130675940483, 8.6584196682795778)	(2.3859131119068397, -7.9697500003957247)	(-0.68644244291089329, 2.9996381533302596)	1.0	slash	0.677259
24	N	A	M	M	N	A	B	B	B	8	6	shapes	B	3	True	121	(1.5024770799610145, 0.91842326375162564)	(6.2037296110046931, -0.60473472321358912)	(-6.141966002264132, -8.6589613803255485)	(-5.9649192764047028, 4.0336931295388716)	1.0	z	1.69848
25	N	B	M	M					M	4	2	shapes	M	3	True	121	(6.7856935824064291, 7.9785856480344926)	(-1.0512731242265358, 4.7846459468241331)	(0.55799900102216426, -1.0709193109674899)	(-8.5065694286576417, -3.9591618053291917)	1.0	z	1.60886
26	M	B	A	B					M	4	1	shapes	B	3	False	121	(-8.3601721162213849, -5.3607112005147419)	(5.8701177602502739, 4.9007132257134565)	(4.0480335230117994, -5.456567105600854)	(-1.9994892574554157, 6.4568212904870617)	1.0	slash	1.28764
27	M	A	M	N					A	4	1	shapes	A	3	True	121	(6.8586549416846836, -8.0894692124835395)	(-2.3000207313182441, 1.8670035815366202)	(-6.2201151451065391, -7.1528802589604235)	(8.6237295286262317, 3.8450672790996805)	1.0	z	1.54342
28	N	A	M	N	A	B	M	B	N	8	3	shapes	N	3	True	121	(5.2997371722950017, -8.2963624368968674)	(-6.5856361424296548, 5.0205076347811151)	(1.2407100610137771, -7.0077784319478429)	(0.49953929891401394, 5.5703354273913916)	1.0	slash	2.47889
29	N	A	N	A	B	B	M	M	N	8	4	shapes	B	3	False	121	(-2.6517850380299901, 1.0545959439587005)	(-7.4831829696141909, -3.4545530314326678)	(1.0526338699661153, -1.3807817215097584)	(-3.2023717842097597, -4.1124911090172596)	1.0	slash	2.23246
30	M	A	B	A	N	M	B	N	M	8	7	shapes	N	3	False	121	(5.9895297714395532, 4.4432923833389921)	(-3.9682959680707972, -3.6051297525033066)	(-1.6306036918667637, -7.2700165478040653)	(2.8635151932104197, -4.95352765849956)	1.0	slash	1.39613
31	N	A	A	B	M	B	N	M	A	8	2	shapes	A	3	True	121	(-1.7298998645669252, -8.5649782857465926)	(7.9238757679384015, -5.2895808526909054)	(2.0726760518060328, -4.780749995044963)	(-2.1232088929161543, 1.749326786575871)	1.0	z	1.56769
32	M	A	A	B	N	B	N	M	N	8	0	shapes	M	3	False	121	(-5.0314206937743586, 5.7187131291170079)	(6.595556915392498, 2.2147295955366282)	(-6.9472920982461233, -7.0238425653012282)	(0.51226749458143495, -3.7857438646865829)	1.0	z	1.31926
1	N	A	B	B					B	4	2	shapes	B	4	True	121	(-0.77996003512412848, 4.5471185871490096)	(-5.2348427758642071, -8.0644077590310523)	(6.6573456901074284, -1.4630279096556587)	(6.3851355543595432, 7.2412015397766964)	1.0	z	1.21888
2	N	B	N	A	M	B	M	A	A	8	1	shapes	B	4	False	121	(-5.6193842562585292, -4.0135787105839649)	(-1.9034463308569647, -7.9728035277891003)	(6.2635395750423069, -3.7829567913648079)	(8.6211212052417352, 5.881919671619352)	1.0	z	1.04029
3	N	B	M	M					M	4	3	shapes	M	4	True	121	(-5.454425070285204, 4.7976776278648519)	(8.2321902475256792, -1.1291680140032412)	(2.0585995515452264, 5.6222683219863647)	(-6.2916891843961107, -4.3895340112754386)	1.0	z	1.24223
4	M	B	N	B	A	N	A	M	N	8	6	shapes	A	4	False	121	(2.8332432288815443, -5.0025341566284878)	(-3.6763380287994591, 4.7937452748625962)	(7.0267718851217467, -7.1030106430094735)	(-8.4145942191185714, 1.6387095281244832)	1.0	slash	3.29183
5	N	A	A	N					A	4	1	shapes	A	4	True	121	(-3.3747133033992549, -0.26062695468656649)	(0.54032859537959865, -4.452413230463196)	(1.6678172249203858, 0.33749913379241292)	(-5.4705586228014553, 4.1083294858390307)	1.0	z	1.20182
6	N	B	N	A	B	A	M	M	B	8	0	shapes	N	4	False	121	(3.4880039777653948, 5.7952590940709481)	(-3.5451416722154274, -4.1748820652500038)	(6.837354794549757, 8.4224643406833728)	(-7.124510956176513, 5.0915130402151476)	1.0	slash	1.80492
7	N	A	N	M	M	A	B	B	N	8	1	shapes	A	4	False	121	(3.4569080028913941, 6.26041301361108)	(-3.3633817249206679, -2.1542707658970199)	(-5.9002074774200555, -5.5190461219307627)	(0.97222991928279257, -2.0079775394549184)	1.0	slash	1.32678
8	M	B	A	N					A	4	2	shapes	A	4	True	121	(-7.798281336526026, -7.4006633521920913)	(-5.5390063191351668, 8.2171966874359192)	(0.45742400680489581, 7.2156366599312793)	(1.609962035510172, -7.746462529744349)	1.0	slash	1.22386
9	M	B	M	N	A	A	B	N	N	8	1	shapes	B	4	False	121	(-7.5323814688052622, -1.2087186747616148)	(4.852228049627751, 3.909801040659719)	(-7.7805003521018827, 8.3046173258975884)	(-5.7625942431096453, 4.8139547165342922)	1.0	slash	1.16764
10	M	A	A	M					M	4	3	shapes	M	4	True	121	(7.2975175587346293, 3.8855335492897893)	(5.7115448927796617, -1.8251208610321052)	(-0.064642360246637054, -5.0547743730524903)	(-0.24725097444694022, 2.8635343384748388)	1.0	z	1.1033
11	N	A	A	B					N	4	3	shapes	B	4	False	121	(6.4321871815474552, -4.3514480819871659)	(5.829685363287135, 5.6404027576104045)	(-0.023704926623608458, 4.5203448302862697)	(-1.3280476075571137, -2.2629887607184402)	1.0	slash	1.09353
12	N	A	N	M	A	B	M	B	N	8	0	shapes	N	4	True	121	(7.0953063059455985, 4.6721527185870428)	(1.9951756662253128, 4.6407525989200522)	(1.5983138210867747, -2.6728651162915957)	(-6.3869498568827243, -4.875760275879113)	1.0	z	1.66645
13	N	B	A	N					B	4	1	shapes	B	4	True	121	(-8.1863522538108455, -1.6258905396676644)	(-7.5128434610480088, 2.3524849080973045)	(7.3892646888991536, 8.0725162552150174)	(3.8614219896063098, -3.1305415612133816)	1.0	z	1.65461
14	M	B	A	N	A	M	B	N	A	8	6	shapes	B	4	False	121	(-6.3380099115678235, 7.1072450470446746)	(7.4095919337241831, -1.0993266072933077)	(-4.0345312425471302, -5.4274258157580224)	(-2.3498156992208417, 6.4040968628704835)	1.0	z	1.39566
15	N	B	M	N	A	A	B	M	A	8	4	shapes	A	4	True	121	(4.7258125666664057, 6.6202358519695466)	(-7.1711567427280478, 6.0087804841470636)	(-2.3681181098862805, -5.7826673708070677)	(-7.1360118024834645, -4.2474355318886969)	1.0	z	1.00577
16	N	A	N	B	B	A	M	M	N	8	0	shapes	N	4	True	121	(-1.2632958313371141, 4.5118857750716117)	(-7.0429294551872799, -6.3445895547838003)	(-2.3836095476463672, -6.5103724874955002)	(3.9649069979062226, 4.6568488117889331)	1.0	slash	1.81125
17	M	B	A	M	A	N	N	B	M	8	0	shapes	M	4	True	121	(6.3038417860409144, 6.3262678155634848)	(8.1859165393506714, -6.9763499482466491)	(-3.9233982384842214, 7.9235385405479306)	(7.2656161436717284, 1.7836199559697121)	1.0	z	1.7366
18	M	B	M	B					M	4	1	shapes	B	4	False	121	(1.8793477451655285, 8.2719720325657526)	(-5.5416711326541588, -6.2313215397354789)	(4.7552224342401104, -1.3531250816721245)	(-3.15032702008837, 1.3731593814346681)	1.0	slash	1.72611
19	M	A	N	M					N	4	3	shapes	M	4	False	121	(8.0961882463890014, 6.0517913072421123)	(4.9074927687958603, -3.73833645643849)	(-0.18713230442568651, 7.0476730217527059)	(-6.4100381619866518, -0.55158707032104815)	1.0	z	1.18827
20	N	A	A	N	B	M	M	B	N	8	0	shapes	N	4	True	121	(7.8563701796990699, -0.92693577528994897)	(-5.600734396252121, -2.0322710445528056)	(-3.7789525819987277, 4.9955683752868794)	(2.1150351403928145, -4.7923459763032978)	1.0	z	1.13733
21	M	A	M	B					A	4	3	shapes	B	4	False	121	(-1.863191502356873, -1.635718007424078)	(8.1031633556597207, -8.6933331108796494)	(3.8465821053933507, 4.5422541460890553)	(-0.23911873067580558, 5.9928568631943051)	1.0	z	1.11892
22	M	A	A	N					A	4	2	shapes	A	4	True	121	(4.8921855017402009, 1.7410216868315391)	(-8.4598833896745429, -4.0662732095907099)	(6.8401338645137688, -2.4784358051960398)	(-5.6903818462436195, 6.8982995233711524)	1.0	z	0.998519
23	N	A	B	N					N	4	2	shapes	B	4	False	121	(-0.61991279060225857, 1.487091529938354)	(-6.8216994868067848, -7.754836726808656)	(5.834354381471389, -2.4386112643767692)	(2.7590180736205365, 7.6096919151898348)	1.0	slash	1.454
24	N	A	M	A	N	B	B	M	A	8	3	shapes	A	4	True	121	(-2.9738052843252873, -2.322213059361717)	(-1.4724232138070263, 7.0001403300171354)	(5.6369823110186434, 7.1405439446129009)	(4.6328584248288074, -7.1819636428928018)	1.0	slash	1.11021
25	M	B	B	M					B	4	2	shapes	B	4	True	121	(-5.6391201866899543, 8.6402813919835992)	(3.5089095947191034, 8.0641378072539389)	(-2.8042775512408395, -3.1961832451957504)	(1.2102716836057201, -2.4664004171619771)	1.0	z	0.865551
26	N	B	M	M					N	4	2	shapes	M	4	False	121	(-2.9155007116353859, 1.3867040095449354)	(1.1655724512228982, -8.6703353405697836)	(-4.3635069997700056, -5.2805539877365231)	(4.5608156473522268, 3.1506997769904785)	1.0	z	1.07683
27	M	B	M	N					A	4	1	shapes	B	4	False	121	(6.3670045939185567, -0.2230201085216148)	(7.1085558430509437, 4.3228385929890933)	(-4.0670867222390603, -3.6612038211548583)	(-4.6864593808927202, 5.9936488502308354)	1.0	z	1.26069
28	M	B	M	B	A	A	N	N	B	8	3	shapes	B	4	True	121	(-2.6499741432474408, -5.5230602557202761)	(-4.9255423640335927, 2.0646920055140185)	(1.0819968643617894, 2.343735814572522)	(-6.2593488346876622, 6.9177381685906152)	1.0	z	1.01325
29	M	A	M	A	B	B	N	N	N	8	4	shapes	B	4	False	121	(4.7881728781001982, -3.8540805169908987)	(-2.3899602027044429, 5.1568891863447206)	(2.5814257118481905, 8.4018285755547453)	(5.2768153329254393, 5.0209733999477937)	1.0	z	1.43794
30	M	A	B	M	B	A	N	N	M	8	1	shapes	A	4	False	121	(5.4305139597242196, 0.11968808179701895)	(-1.692231753918561, -2.6089777618510226)	(1.5282099183673896, -5.3341750598283486)	(0.86269748473522334, 3.8386865769307885)	1.0	slash	1.22421
31	N	A	A	M					M	4	2	shapes	A	4	False	121	(2.340021883745047, -7.1514508015832439)	(2.9903307706088036, 6.9404296034246045)	(-6.8362519468528635, 3.3052475596694713)	(-3.9934832588134057, -6.1943545368499855)	1.0	slash	1.44576
32	M	A	B	A	M	N	N	B	N	8	5	shapes	N	4	True	121	(-5.5673417232152076, 2.4231020860424959)	(1.0106186340033929, -6.5612511607087942)	(-0.91685121232997702, 4.5725643040615402)	(8.3786602990292813, 8.411696953187942)	1.0	slash	1.43048
1	N	A	M	M	B	A	B	N	M	8	5	shapes	A	5	False	121	(-2.9460166853688712, 7.9717248815021371)	(-4.9210176954374472, 1.0464867639618163)	(7.711918043799443, -1.8934126037926173)	(2.9446830122709393, -7.7276841187546959)	1.0	slash	1.42447
2	M	B	N	N					M	4	0	shapes	M	5	True	121	(6.6151409848742251, -1.4280984171512321)	(-4.2715042158255461, -8.2347990589191955)	(-8.3880506995931547, 4.1211651648339984)	(5.0078161834395996, 7.2721943362414834)	1.0	slash	1.01183
3	N	B	M	B	A	A	M	N	M	8	2	shapes	M	5	True	121	(7.1702389740825581, 3.4899984714454675)	(7.1150536742301895, -2.5786402897732392)	(5.3666245716627028, -6.471328275188478)	(-6.5012997140467084, -8.7138311561589745)	1.0	slash	1.40328
4	M	B	A	M					A	4	2	shapes	A	5	True	121	(-2.7605703318863393, -7.4854927784905634)	(2.6018296488052037, -6.2744567577774717)	(5.3916759541846773, 1.7324940461006122)	(-1.5594807473991965, 3.924793002550965)	1.0	z	1.14113
5	M	B	B	A	M	A	N	N	A	8	1	shapes	B	5	False	121	(5.3832106275869656, -6.2811994030647647)	(0.78482217732887882, -0.57553786880431623)	(-6.1546810414744453, -8.4102345911943779)	(-5.8879163322200396, 4.1789929995750281)	1.0	z	1.30146
6	N	B	M	A					M	4	2	shapes	M	5	True	121	(0.94992012718189933, 2.7721110380404124)	(-3.4158197944938102, -0.35803488984295839)	(8.4304664568262595, -0.85043154848238345)	(-6.8353588435876302, 4.1020417534847837)	1.0	z	1.13855
7	N	B	B	N	M	M	A	A	A	8	7	shapes	A	5	True	121	(-3.8101439375829402, 6.6985342007790649)	(5.723630173910637, 3.9730629950360985)	(-6.044282014910495, -6.5668442098872895)	(6.8499805195590113, -4.6620153904564168)	1.0	z	0.866196
8	N	A	M	N					N	4	0	shapes	N	5	True	121	(7.233946084027405, 1.1179520125862972)	(-7.4977234441402665, 7.0158719786167794)	(3.4532747605206193, -7.4362330872534521)	(-7.0764282939451997, -8.1088659778348635)	1.0	z	0.910345
9	N	A	A	B	M	B	M	N	N	8	0	shapes	N	5	True	121	(-3.2069954150867304, -6.4775016974455371)	(1.7468023739234457, 3.4030298918628556)	(1.1879522456458886, -5.5215551415959103)	(6.7406541494360894, -1.0740214088639197)	1.0	z	1.00399
10	N	A	N	B					A	4	2	shapes	N	5	False	121	(5.414423352244043, 7.6742463008053043)	(6.9208409005018154, -6.1627440932815887)	(-3.181100971375181, -3.2036424412606133)	(-7.0565294515975392, 1.6621904702341812)	1.0	slash	1.30512
11	M	A	N	A					M	4	2	shapes	N	5	False	121	(-3.9151361441641663, 3.6110330464429108)	(-1.563187354040755, -0.53496246586305141)	(7.8605894688242444, 3.6263197660801083)	(5.0423704140478769, -0.95954894698782667)	1.0	z	1.64258
12	M	B	A	B					B	4	1	shapes	B	5	True	121	(5.6066357069086177, -4.3226752998993128)	(-2.6760442881421937, -2.4676306786714104)	(-2.9493595591126196, 5.9311276632065102)	(6.4002764753351631, 4.2113369043033089)	1.0	z	1.89014
13	M	B	B	N	N	A	A	M	N	8	1	shapes	B	5	False	121	(7.2297670542225489, 1.959668559380189)	(5.6710067553252248, -8.6760521686654961)	(-2.7672377176338667, -3.0395898858549062)	(-1.1142998982369701, -6.7515023798559124)	1.0	slash	1.53179
14	N	A	A	B					M	4	1	shapes	A	5	False	121	(-5.1178535981716191, 2.4945383585415488)	(5.0951228374768753, 3.6350602757664081)	(-7.2425562400588079, -6.5796539450744032)	(2.2409807277568969, -4.3110158608464362)	1.0	slash	1.07335
15	M	A	M	N	A	B	B	N	M	8	6	shapes	B	5	False	121	(1.7155001721168439, 3.869214115278524)	(5.1853544343891986, 7.3870802560161373)	(-4.4201287894665482, 0.090385141771559319)	(-1.4498179636659314, -7.186565413248843)	1.0	z	1.80562
16	M	B	N	M	N	A	A	B	B	8	1	shapes	B	5	True	121	(-0.6277303731201993, -2.7845309469306496)	(6.7089697620539361, -1.7046255583626762)	(5.5102396534128051, -8.2264311003775692)	(0.090158018770326365, 6.0020393579676714)	1.0	z	1.23724
17	M	A	B	A	N	N	M	B	M	8	0	shapes	M	5	True	121	(-0.51371307137765321, -0.22050118442767719)	(-4.4616184166092641, 4.924369866483163)	(4.1774508774434764, -2.534833825505225)	(8.3272434811618226, 6.5234928622700554)	1.0	slash	1.24824
18	M	A	A	B	N	B	N	M	N	8	2	shapes	A	5	False	121	(4.3564757415275093, 7.7308865368182751)	(-7.2646047707929595, -5.2472405246529217)	(-1.662331323237721, 7.1187603507709731)	(-6.7980335229289066, 4.1239728311637709)	1.0	slash	2.56988
19	N	A	N	B					N	4	3	shapes	B	5	False	121	(2.6750084435971662, -3.6913977293221549)	(-3.4342393698071234, -1.4520062081120804)	(3.8993990423603684, 7.7106630302806565)	(-1.9218673732932352, 6.4167780081690111)	1.0	slash	1.40945
20	N	A	N	A					B	4	2	shapes	N	5	False	121	(-4.1229651355849715, -2.2131253663696064)	(4.2064953823295941, 2.4276626457995363)	(-1.1039249458199114, 1.2935234123721688)	(5.8901557596021838, -4.0057171356594949)	1.0	slash	1.38893
21	M	B	N	N					N	4	1	shapes	B	5	False	121	(-3.0483914473979157, -3.2074876261485681)	(4.7730377605674104, 5.3492069755437033)	(-0.44306316671853452, 0.055031961890282588)	(4.1108719292773905, -0.55871566419461338)	1.0	slash	1.11046
22	M	B	B	N	N	M	A	A	M	8	5	shapes	M	5	True	121	(-5.986650300353844, 3.9160839549259254)	(-2.3812463537255004, -7.0870553518206254)	(-8.5696173014627544, 7.0362395061866287)	(8.1215635447785814, 5.2392674198424452)	1.0	z	1.91404
23	M	A	A	M					A	4	1	shapes	A	5	True	121	(5.0119673246487846, -5.5683753297828513)	(-0.63479171253916, 5.4899644413832061)	(-2.0259890699943846, -3.5743152393217903)	(4.8580148924129141, 5.531756765031707)	1.0	z	0.962775
24	N	B	A	N					N	4	1	shapes	B	5	False	121	(3.1189015563139204, 2.6213207581192037)	(-4.0635992855390164, -0.65039551859501543)	(6.6294807064596402, -5.6600302525938275)	(-8.4803762799067925, 8.1729018482335576)	1.0	slash	1.05942
25	M	B	A	N	M	B	N	A	M	8	5	shapes	B	5	False	121	(-6.7118473544793407, 6.4118787308102547)	(4.7681814528480633, 5.7592709691348354)	(-1.7415212272654221, -4.2770502377432962)	(2.6727570712278688, -4.0331798757415944)	1.0	slash	1.7216
26	N	B	N	A	B	M	A	M	N	8	2	shapes	N	5	True	121	(4.2571614119912216, 3.9052443323969115)	(-0.25830312756848528, -5.3696770199056418)	(-8.0529240010732295, 3.6459687932469578)	(-6.0108435462753942, 7.6585471173485473)	1.0	z	2.12479
27	N	B	N	M					M	4	2	shapes	N	5	False	121	(1.0656608843958395, 6.1892321265881698)	(-7.0155360357318752, 5.3447899761043072)	(-4.6524431317251072, -3.2575176473204035)	(7.1884519604621016, -3.904462303527656)	1.0	z	0.946249
28	N	B	N	M	A	B	A	M	B	8	1	shapes	B	5	True	121	(-4.1703039765607866, -2.5285177456591006)	(6.5898816747555724, 4.3407180872815996)	(5.6543403610803562, 8.552824507172879)	(-0.31982350141805682, 4.997128726732134)	1.0	z	1.8638
29	N	B	M	N					N	4	3	shapes	N	5	True	121	(-6.2644548635431203, -8.1384059540520539)	(-5.4712138998846704, 3.1147498176883843)	(4.0561363452127104, -7.3747877281272984)	(0.38583544102798406, 1.7273968767929411)	1.0	slash	1.28577
30	N	B	M	N	M	B	A	A	A	8	3	shapes	N	5	False	121	(3.1745363791413777, -4.3025268655772919)	(1.1089549759363813, 3.1934165242270982)	(-3.0439945862180027, -5.2645662926602235)	(-6.18424068307516, 0.029605352588095712)	1.0	slash	1.47593
31	N	A	M	N	M	A	B	B	N	8	2	shapes	M	5	False	121	(7.5310001320711244, -1.5793050883427293)	(-3.9330145503236738, -3.0772458752054215)	(8.4548499317558274, 2.459549710489096)	(-0.64480237763619819, 1.1065343657227942)	1.0	slash	0.848679
32	M	B	B	M					M	4	3	shapes	M	5	True	121	(-3.7630434579936676, -2.4955329126807291)	(1.1801918291429327, 2.7424648232039441)	(5.9582937717330502, -3.3071331175793954)	(-2.5931590538248681, 4.7805334173024256)	1.0	z	2.40663
1	M	B	N	B					B	4	2	shapes	N	6	False	121	(5.0257573756601328, -8.5968530428276981)	(-8.5889116708894395, -7.5452472618673552)	(4.8661943972815624, 1.6123041906662294)	(-5.1172945498014268, 3.9629770667230293)	1.0	slash	0.667816
2	N	A	N	A	M	M	B	B	M	8	4	shapes	M	6	True	121	(1.4724977107596313, -7.7225105916246468)	(-3.0608342530669743, -0.97262345627120261)	(-3.359006178128281, 6.8316684937756147)	(3.7299034377542437, -3.2148829842030135)	1.0	z	1.25755
3	N	A	A	M	N	B	M	B	A	8	1	shapes	A	6	True	121	(7.7799186591444638, -0.019177942096225919)	(-7.8844984191737675, 4.8906693103302015)	(-4.7484704934637314, -6.1221147013923964)	(4.1071897322251232, 7.5421940571483148)	1.0	z	0.879008
4	N	A	A	M					B	4	0	shapes	N	6	False	121	(-3.0507951669888955, 4.8642318943034688)	(5.8111448330786732, 7.5789456294883557)	(5.6217991489946399, -6.2306466034893431)	(-0.98839033285226119, -7.8658335449470203)	1.0	slash	1.33442
5	N	B	N	B	A	M	M	A	M	8	5	shapes	M	6	True	121	(2.8645338450845301, -0.30797404627349501)	(0.18231158209204956, -6.2604655200430983)	(-3.7658707037944232, -2.0347368682957914)	(-0.53357464384893305, 5.662519684087016)	1.0	z	1.28436
6	M	B	A	M					M	4	3	shapes	M	6	True	121	(-2.4717935269281774, -0.64555281813498944)	(8.1073014639182368, -2.5022839860079333)	(5.6531783864177019, 1.5101125729264648)	(-7.1077643164553272, 0.78152409815669621)	1.0	z	1.08779
7	N	A	N	M	M	B	B	A	B	8	7	shapes	A	6	False	121	(7.1205280532375514, -8.3097656841548844)	(-6.1633806666960549, -7.1763330432853678)	(-0.30070184282641677, -8.7014591255795626)	(7.6768136490790724, -4.1912561196380329)	1.0	slash	1.40806
8	M	B	M	N	A	B	N	A	N	8	3	shapes	N	6	True	121	(1.6664163648918411, -7.830417955477782)	(4.5568847861185802, -5.0586925516008598)	(-2.5735478449772033, -0.79184220978916553)	(-6.3266361944642524, -2.4249715515339059)	1.0	z	1.52902
9	N	B	B	A					M	4	1	shapes	B	6	False	121	(4.4206838689176475, 8.0196623182233715)	(-8.4266967808801088, 1.5828508369894969)	(0.80648036223561803, -8.2655221226059936)	(-7.4280529886082762, -8.3268261107123074)	1.0	slash	1.8727
10	N	A	A	N					A	4	1	shapes	A	6	True	121	(-2.8156843699525336, 2.3437859521177113)	(-8.2941372628284498, -6.1255800603799626)	(6.801002730012474, 2.7342098583795273)	(2.639869049693278, -1.2156474503595165)	1.0	z	1.07729
11	N	A	N	B	A	B	M	M	M	8	2	shapes	N	6	False	121	(-5.4291047115577813, 6.5440274620060261)	(-5.2171914587186361, -1.4890264502211474)	(-0.97666562535417611, -5.2231898075575778)	(1.7601150266094052, -0.97623337698699508)	1.0	z	1.51176
12	N	B	A	B	N	M	M	A	M	8	7	shapes	A	6	False	121	(4.0270027843045675, 4.7348093694521864)	(1.3353138469058319, -0.93857585421469381)	(-2.0719111823599583, -3.8243875153310611)	(-3.6073746305448049, 4.5724079392867889)	1.0	slash	1.0757
13	M	B	M	B					B	4	1	shapes	B	6	True	121	(1.7668168093056416, 2.3782671354635561)	(7.6060548712829252, -5.8155746684514487)	(-5.352829215194987, -2.7280414213130673)	(-2.1629545923722526, 0.81161771169727892)	1.0	z	0.867132
14	N	A	M	N					B	4	1	shapes	A	6	False	121	(-5.8081617909666088, 6.4659526168806281)	(-1.9095567986908177, -6.732467497262606)	(3.7083770372462439, 2.8345160365200019)	(3.9281923618130605, -3.081864327911207)	1.0	z	1.01269
15	N	B	B	A					B	4	1	shapes	B	6	True	121	(-2.2541889222724647, 0.87084214098986834)	(0.02800979499718359, -6.2766519704037567)	(3.9918490799050641, 5.7599599774977861)	(-5.0891127107192951, -5.0156792985466527)	1.0	z	0.964494
16	N	B	N	B					N	4	0	shapes	N	6	True	121	(6.7123155643482502, -8.2629123057332023)	(-4.6701174882707157, 1.012125604454555)	(6.3773738429216387, 2.6771789894657818)	(-1.0652825730768161, -7.4646946020267926)	1.0	z	0.740068
17	M	B	A	A					M	4	3	shapes	A	6	False	121	(-4.7917085401319195, 5.398727092998131)	(-6.4729208893913555, -3.5685783108927884)	(5.6599525643566366, -8.001978280243021)	(6.4567644087621883, 8.0477383408812067)	1.0	slash	0.921916
18	N	A	N	M					N	4	2	shapes	N	6	True	121	(3.378788105048061, 2.1877094184380468)	(-5.0853541636979021, 6.2049088485692234)	(2.8602533654641391, -2.2385553481260674)	(-0.81450884756855313, -6.8365158687339225)	1.0	slash	0.769453
19	N	A	B	M					B	4	2	shapes	B	6	True	121	(-3.1637664139036632, 6.2864613018314888)	(0.75389816100254592, 8.2670658123301415)	(-0.27536246266325115, -3.8227643756150664)	(8.0897677459556014, -4.7241919519007496)	1.0	z	1.61702
20	N	A	B	A	B	M	N	M	M	8	5	shapes	M	6	True	121	(-4.6213174827701753, -0.051310262741314006)	(-6.4759116604605858, -4.4299069334668157)	(-5.1191540424687263, 6.7939918031010649)	(1.944979776556691, 4.1555035197265831)	1.0	slash	0.958379
21	M	B	M	B	N	A	N	A	B	8	6	shapes	N	6	False	121	(5.09065597715332, 1.6708169102378374)	(-1.5727831870839202, -2.1606838431988233)	(-6.1656501218994091, -2.41205351392877)	(0.08208669036618943, -6.8257117881626517)	1.0	slash	1.33677
22	M	A	M	A					A	4	0	shapes	M	6	False	121	(3.6440423096831243, 1.2101074462452921)	(-1.7476562768099431, 3.8789969978274605)	(-7.6712588901534104, -0.48481854508410294)	(5.4076019530010448, -5.3226843917146152)	1.0	slash	0.779806
23	M	B	B	A	A	M	N	N	M	8	5	shapes	M	6	True	121	(-3.5295574914941428, 4.5970869563943264)	(2.0382642559569, -7.5707802548063761)	(2.6373945179085858, 2.4363840484738013)	(7.1092780364352404, 8.6526711829678575)	1.0	z	1.05553
24	M	A	M	N	N	A	B	B	A	8	5	shapes	A	6	True	121	(-0.51985335821861156, -6.8215248233866976)	(5.2730437847609473, -4.0082604258023773)	(-1.447662623348692, 0.60399299508513593)	(0.59282201264353951, 5.8246580223333808)	1.0	z	0.973662
25	M	A	A	B	N	N	B	M	B	8	4	shapes	N	6	False	121	(-0.098320218806451365, -6.9467025156567814)	(-6.0559247148781337, -7.8451395270902751)	(-3.2776992486377541, 4.7121716124747444)	(4.2161810935198218, -0.81675742730692491)	1.0	slash	1.60518
26	M	B	M	N					A	4	1	shapes	B	6	False	121	(-2.2176306209212164, 0.034206055843450045)	(8.0632297814551279, 4.2263149170892795)	(-6.2701447251781524, -7.3559454136677154)	(6.0277843645362772, -4.9257164044121993)	1.0	slash	1.4303
27	N	A	N	M	A	B	M	B	N	8	0	shapes	N	6	True	121	(-7.5730284154317484, -0.096934236392627326)	(-6.8726388046512037, 4.7956542594456693)	(-6.1441232355721098, -5.116754447510294)	(5.5278429106077898, -2.3472952117252559)	1.0	slash	2.09002
28	M	A	N	B	A	N	M	B	N	8	7	shapes	B	6	False	121	(-8.3059394466637162, 0.84822367090855622)	(-1.7231570102532343, 3.4877269727126645)	(-6.113579097884692, -4.6614758994522152)	(8.2549711070084513, -2.8284534876637242)	1.0	slash	1.72347
29	N	A	M	N	B	B	A	M	M	8	1	shapes	A	6	False	121	(-1.9481352321980197, -6.897844868970747)	(-1.932806348925646, 1.4475622170784224)	(8.2964519740561329, 0.59253242050806954)	(-8.483672314418877, -4.7531052502490923)	1.0	slash	1.45301
30	M	B	M	B					M	4	0	shapes	M	6	True	121	(7.1565521265357077, -5.0640981122830899)	(-7.1224552531690897, -5.8656805350813883)	(1.891152706490951, 1.8977874301081226)	(-5.9520247699092517, 4.7497456652824876)	1.0	z	1.23522
31	N	B	B	A					N	4	1	shapes	B	6	False	121	(-5.2764873477768957, -3.3316853674183351)	(1.4530852053592156, 7.3894310157848437)	(-6.1759234748373135, 3.6900166141760273)	(2.5117265527401074, -2.3546171136635694)	1.0	slash	0.946246
32	N	B	M	B	M	A	A	N	M	8	3	shapes	B	6	False	121	(8.5519364607891859, -5.3871569408300779)	(-7.2891295571064028, -4.6254366780146619)	(5.2560445775335527, -0.05923599036785987)	(-7.8261648722034156, 8.6153767136520969)	1.0	slash	0.973871
1	N	B	A	N					A	4	0	shapes	N	7	False	121	(5.3568395683140295, 6.2279627483192641)	(7.346231620656841, -6.3860583061406597)	(-2.4385785865500553, 3.0784483789932935)	(-5.3861739542530795, -7.4828761765185572)	1.0	slash	1.33009
2	N	A	B	B					A	4	0	shapes	N	7	False	121	(-1.9462591487657956, -1.2571594113918554)	(5.7744320189995761, -6.2642802010036984)	(-5.0216575614765411, 3.3603697901357616)	(4.5545214487453514, 3.6798086760553499)	1.0	slash	1.22326
3	N	A	N	A					A	4	3	shapes	A	7	True	121	(0.7539001092302815, 0.14738944157077505)	(2.6388982586149048, -4.574827130599858)	(-6.2951912227567428, 7.8202730641131382)	(-3.1251649712128602, -2.3102469384110931)	1.0	z	0.962846
4	M	A	M	N	N	B	A	B	M	8	7	shapes	B	7	False	121	(-5.3474243612650856, 0.44576556135220713)	(-5.4186652151990824, 8.1366029857751769)	(6.38370191655134, 3.3233547937661587)	(-4.4055129279247822, -7.41647457149387)	1.0	slash	1.04444
5	N	B	M	N					M	4	1	shapes	B	7	False	121	(-7.5367964503192217, -3.5847319678973841)	(6.6840961109501933, -2.3954936690648063)	(8.1826331362033926, 7.5917269291313154)	(-8.5240156754700003, 5.6644389523856979)	1.0	slash	0.912651
6	N	B	B	M	N	M	A	A	M	8	5	shapes	M	7	True	121	(1.5495440221737251, 2.5027309650930079)	(7.0440633171247384, -5.1081127577598586)	(-5.1533885428921353, -5.9122814366506979)	(-3.0649934658959603, -1.8912328199428439)	1.0	slash	2.17186
7	M	A	B	A					B	4	2	shapes	B	7	True	121	(6.2762744356038613, 7.836933729631582)	(-4.3707831546877038, -6.2447700799540478)	(6.5397493793726937, -1.9953771660698898)	(-2.855972196937806, 3.2323661718999226)	1.0	z	0.787415
8	N	A	M	A	N	M	B	B	A	8	3	shapes	A	7	True	121	(6.4645378332019021, -4.8646363285301604)	(7.1060102026607392, -0.91349095438102434)	(4.5899115174705223, 4.1254632557272988)	(-3.29444839165137, 2.1089758820996245)	1.0	z	1.1596
9	N	A	M	N	M	A	B	B	N	8	0	shapes	N	7	True	121	(-4.6951730178552662, 3.2087355088044163)	(0.90469951712894314, 4.3562500102668729)	(3.9349585743835149, -8.746195506444371)	(5.4373681404513832, -1.5615730420273017)	1.0	slash	1.21663
10	M	A	M	B					B	4	3	shapes	B	7	True	121	(-7.4394989723430927, 7.4991512714171655)	(2.461936450682904, -6.6030374414240534)	(1.1223969922969577, 3.0080917407931249)	(-2.3521581361379749, -8.7306856874777061)	1.0	z	0.876778
11	M	B	M	B	N	N	A	A	B	8	7	shapes	A	7	False	121	(7.8538858331831243, 8.7483837913757938)	(-0.31846069721022019, 5.0201852953769865)	(-2.7705331931806478, -7.2904474080898938)	(-4.1297147917261752, -0.48658079971113999)	1.0	z	0.982591
12	N	B	B	A					M	4	2	shapes	B	7	False	121	(-0.50621722193401908, 7.7645773714457853)	(7.8366929004067885, 0.2042886360566758)	(-7.2744194183274065, -4.4773138279411127)	(1.8680936596843587, -4.706187530109128)	1.0	z	0.939497
13	M	A	A	B	N	M	B	N	A	8	2	shapes	A	7	True	121	(0.28718059423242792, 8.0381670037145199)	(-1.9002696606416141, -4.2231196198118477)	(2.4307056816949881, -7.2174669479587639)	(0.4253842227561595, 2.0468802449773289)	1.0	slash	1.54719
14	M	A	B	M					B	4	2	shapes	B	7	True	121	(-4.2918490053089799, 8.4677242741814887)	(4.6830715589347438, -8.350736503976151)	(5.5378419504079712, 8.0399631308448321)	(-0.63528122074096238, -3.4127899615693247)	1.0	z	0.702749
15	M	B	M	B					B	4	1	shapes	B	7	True	121	(-5.2848118456430573, 1.5060793017373229)	(5.1837682309771509, -7.319200070198038)	(6.2919770605814005, 2.4329586384937141)	(-2.0544131287497462, -4.4735455273656557)	1.0	z	0.682178
16	M	B	A	N	A	N	M	B	M	8	1	shapes	B	7	False	121	(3.4855117421551309, -3.4298656300701404)	(0.61232677673289082, 4.4496846070829204)	(5.0953093475759257, 0.4956018544589309)	(3.7009994078125459, -8.376113466930736)	1.0	slash	1.11629
17	M	B	A	N					M	4	1	shapes	B	7	False	121	(6.9302502962728951, -1.5439385618908084)	(1.5328552171517256, 3.4008767964957691)	(-3.8626893629308485, 5.4731490703454995)	(-4.0931396804265052, -3.3814928711773522)	1.0	slash	0.88596
18	M	B	N	A					N	4	2	shapes	N	7	True	121	(-3.3812506967037281, 0.33480585486882575)	(8.0545831827386252, -4.1539746815425183)	(0.64119959126249881, 4.7910990661910411)	(-7.0474197868498667, -7.4286752613707154)	1.0	slash	1.12552
19	M	A	A	M	B	N	N	B	N	8	6	shapes	N	7	True	121	(0.31470613300772143, -5.1088608053590825)	(1.5705571731349597, 4.1123612214203735)	(7.6777233278161141, -7.7726617327468066)	(-4.2898504244918403, -2.90410846310278)	1.0	z	1.0727
20	M	A	M	N					N	4	3	shapes	N	7	True	121	(-0.63729418083688039, -6.937133640400301)	(1.1991725005817422, 8.3397176746296005)	(8.3732558063339368, -7.888931949813796)	(-8.2349579931150565, 4.7237411569016281)	1.0	z	1.06127
21	N	B	M	B	N	A	M	A	A	8	0	shapes	N	7	False	121	(3.0624484710158928, -0.39635048646191784)	(2.7212800913869302, -5.9750344322145352)	(-1.5082406684489786, 1.870198247595491)	(-3.1286830761830045, 5.5803502748927052)	1.0	slash	1.1223
22	N	A	A	M	N	M	B	B	N	8	4	shapes	N	7	True	121	(2.7791612615862551, 1.8189372555729495)	(-7.1874880936043608, -1.8017042512274006)	(3.3036517050309016, -4.6342206509990271)	(2.1904463422925744, 7.4722126939023603)	1.0	slash	1.8439
23	N	A	M	N	A	B	M	B	N	8	4	shapes	A	7	False	121	(4.2160568816246151, 5.8935507474586135)	(-0.64978139557667625, 7.3644666358261262)	(6.36422734373396, -6.535256335742373)	(0.91985662600603213, 3.1053296278291569)	1.0	slash	1.03539
24	N	B	N	B	M	A	M	A	M	8	0	shapes	N	7	False	121	(2.5682877546971294, 2.0573767847455713)	(-1.7194595196443432, -8.5148247310477174)	(3.1982138579083141, -3.4567692812032211)	(5.4958095956833457, 7.7107745622704762)	1.0	slash	1.10292
25	M	B	B	A	A	M	N	N	B	8	7	shapes	N	7	False	121	(-2.5147436087390993, 5.7216043320784458)	(6.6792551724003033, -7.578096858309495)	(2.8902928188198622, 0.41812278799339175)	(-8.2900574833852136, -6.0189442733096818)	1.0	slash	1.19662
26	M	B	B	M	A	N	A	N	N	8	2	shapes	B	7	False	121	(-5.1907015400729986, 6.4772907594248892)	(-1.3849698698546842, -3.420783286493208)	(6.8947998729967406, -0.70364915503984271)	(1.2363477853770064, 1.0907728011408171)	1.0	slash	1.97435
27	M	A	M	N					A	4	3	shapes	N	7	False	121	(5.2785779490415923, 5.0318653372633424)	(-7.3576889991102616, 5.3160983172901446)	(-0.084856465991320462, -6.739238786177193)	(4.2281297417575008, -5.8689579324521786)	1.0	slash	1.49196
28	N	B	N	B					N	4	3	shapes	B	7	False	121	(-2.8358747976016563, 7.4256291453290189)	(-6.6220018315981299, -6.4700343643417089)	(7.650710203388158, -7.4712891169133346)	(5.7012958293582479, 6.5590351368050825)	1.0	slash	1.20212
29	N	A	M	N					B	4	3	shapes	N	7	False	121	(-8.7260741082139983, -1.8708954720102478)	(8.7323149191839384, 0.088656391095431886)	(-3.2065050320909236, 4.7175132895560612)	(1.946833747211171, -1.4790764027849637)	1.0	slash	1.1231
30	N	A	A	M					A	4	2	shapes	A	7	True	121	(3.1501734273903619, 3.6050525170133891)	(-0.97770519715917192, 7.9934004563919281)	(-5.8940518965226509, -4.9719480933603641)	(1.8840258792488456, -4.9567948236622348)	1.0	z	1.75765
31	M	B	N	N	A	A	M	B	A	8	4	shapes	A	7	True	121	(-8.3982307882523894, 5.4157080014051431)	(1.6086290520083555, 7.2971505897982674)	(5.9117641260241633, 6.441348290773897)	(0.62577843690856838, -5.3367452046628419)	1.0	z	1.24633
32	N	A	A	N	M	M	B	B	M	8	4	shapes	M	7	True	121	(0.87408260252764336, 5.2867244589727207)	(7.9545674648196112, 4.2179759871153166)	(4.4836850271553228, -0.47119402865218163)	(-3.9244972375351415, 2.845067091307742)	1.0	z	2.31834
1	M	A	B	N					M	4	0	shapes	M	8	True	121	(2.582745179996067, 6.4033553043875191)	(3.822245302289339, -2.2155210518551858)	(-3.5429326781560988, 4.3064455897600453)	(-2.3476358521509857, -2.7416344043796448)	1.0	z	1.05791
2	M	A	B	M					M	4	0	shapes	M	8	True	121	(-5.7215022222640357, 4.6343946239734226)	(7.9257400357265944, -6.1311061489010479)	(3.4701563565545008, 7.9029083165364717)	(-3.6574210799935027, -7.1781568716241866)	1.0	z	1.05573
3	M	A	N	A	B	N	M	B	M	8	6	shapes	M	8	True	121	(-4.003554069255177, -0.67382630723287562)	(-5.8634125530738714, 7.9368280744825839)	(3.1789519980577392, 2.9079364817804105)	(4.7765871609617463, -4.0326162793979572)	1.0	slash	1.87281
4	M	A	A	M	B	N	N	B	B	8	7	shapes	B	8	True	121	(7.4403416218836753, -7.8368981586091024)	(6.6766990630605321, 5.1790153070074627)	(-7.4654550656586993, -7.4714923135715283)	(-6.0072028404955127, 7.2994577629767967)	1.0	z	1.15632
5	M	A	B	A	N	N	B	M	B	8	2	shapes	B	8	True	121	(7.0042376533847257, 4.8353348941887777)	(0.73973383500295853, 7.5555669148211422)	(-4.8835097591285157, 0.97267735916839015)	(5.9658937003298114, -0.064054183858432978)	1.0	z	1.67794
6	N	B	N	M	A	B	A	M	N	8	7	shapes	M	8	False	121	(5.2330452492770032, 0.7486911330009498)	(0.61836371172934435, 7.1176250128391487)	(-7.3084194150009028, 7.3048270139906109)	(6.9845709290810536, -4.7436916921150365)	1.0	z	1.98558
7	M	A	A	M	B	B	N	N	M	8	5	shapes	B	8	False	121	(5.991486651926019, -7.2904802004281972)	(-7.0623267676104273, -4.4965852520732792)	(-1.6739624390305181, 6.308199663497378)	(1.5499417287730388, 2.781248286176826)	1.0	slash	1.31091
8	N	B	A	B	N	M	A	M	M	8	4	shapes	N	8	False	121	(7.6543026429898688, 4.0231025274986401)	(5.7089166891409047, -0.10632598456155051)	(-2.0103687913492658, 6.4060142541500884)	(1.818627566922034, -5.2276750658164879)	1.0	z	1.38881
9	N	B	M	B	A	A	N	M	A	8	2	shapes	M	8	False	121	(-5.3810894139098409, -3.1516920431781585)	(5.2245416887108025, -5.5730475407548461)	(1.3121349015936623, 7.7116781514356099)	(-5.8477088002240283, -7.9309310795028125)	1.0	z	1.51998
10	N	A	N	A	B	B	M	M	B	8	4	shapes	B	8	True	121	(4.3436861842200827, 4.0312098151403664)	(-8.510889162176813, -4.3112665229705822)	(6.0504245303043245, -6.8843049695304508)	(-1.4070326642406039, -7.3895555577879888)	1.0	z	2.13318
11	M	A	M	N	A	B	B	N	M	8	6	shapes	B	8	False	121	(-7.2874773001790523, -6.9621642569721729)	(-3.1711177830019706, 3.8194988504994942)	(5.9655018903498647, 7.0138227134827247)	(-3.2933812408523835, -5.8273538239084814)	1.0	slash	1.37948
12	M	A	M	N	A	B	B	N	N	8	3	shapes	N	8	True	121	(-1.3513337480016192, 8.5447366677686496)	(0.0077695872273846334, 2.7924574221361436)	(3.7638729295693736, -3.8818781883259694)	(3.9378620083650002, 0.33212657130895273)	1.0	z	1.14503
13	N	A	A	N					B	4	3	shapes	N	8	False	121	(-3.4215285889981502, -5.1559882006836224)	(4.2641851441587626, -8.5130062177794148)	(-3.6364849270103017, 5.9639032060266359)	(6.3934293008126239, 6.9759634920671623)	1.0	slash	1.18922
14	N	B	M	M					B	4	1	shapes	B	8	True	121	(-0.15626340197756683, 1.0017506408333485)	(5.1370147360502099, -7.3976764777126256)	(-0.81412320478442535, -6.8682014881637965)	(1.505130059561548, 8.2536157956438529)	1.0	z	1.10437
15	M	A	N	B	A	B	M	N	M	8	6	shapes	M	8	True	121	(-0.22498971079202157, 7.827722290341498)	(-4.5062160049567073, -5.9363057394752481)	(8.4918705306339675, 0.23375048872502546)	(-3.7739124127287544, 2.1039037706949699)	1.0	slash	1.69587
16	M	B	B	N					A	4	2	shapes	B	8	False	121	(-8.1348441015537283, -4.6237784055300342)	(1.8589629570331585, -8.2890718134917272)	(4.662279601564796, 0.47245731298156102)	(-5.7052791373932124, 5.1957267330340624)	1.0	slash	1.09143
17	M	A	N	M					M	4	3	shapes	M	8	True	121	(-0.2592304263285552, 6.4899679415002218)	(1.7537083649892917, 0.6034050165796252)	(5.0705638539625468, -3.2442176966706313)	(-5.0220756604731935, -4.3566136122346331)	1.0	z	1.93104
18	N	B	B	A	A	M	M	N	N	8	0	shapes	N	8	True	121	(5.3549223099880177, 6.9698163740288024)	(-7.9650205909694884, 2.7148389648301237)	(0.75115849457475647, -5.8906966545895045)	(1.316671294370483, 8.0617689144519957)	1.0	z	1.23478
19	M	A	M	A					A	4	1	shapes	A	8	True	121	(-6.8391864806970695, -4.7202279613573923)	(-6.9776494258708084, 5.31730262444872)	(7.5387413354812161, 8.4087093814500413)	(0.96515258557516859, -1.5073674410250986)	1.0	z	1.38043
20	N	A	A	B					N	4	3	shapes	B	8	False	121	(1.4146775741908542, 1.2005400907684169)	(-8.0876211418044512, 3.8498503926367516)	(4.221378695193712, -5.5852561004957249)	(-4.416511144903958, -8.4201625808674585)	1.0	slash	1.20801
21	N	A	A	M					A	4	2	shapes	A	8	True	121	(7.6871270183319034, -0.61527202600258768)	(1.0975502373488215, 6.7438294593203949)	(-8.4939598990995666, 7.2563186428413715)	(-8.2479691747258617, -0.57662966587873399)	1.0	z	2.38942
22	N	A	N	B	B	A	M	M	N	8	5	shapes	A	8	False	121	(0.33741160716052399, 4.6580987345049696)	(7.6094717387574349, -1.7043862355232626)	(-6.9784054924726284, -3.3394059445520554)	(-4.9037633730279726, -7.0086136055432497)	1.0	slash	2.12874
23	M	A	B	A					M	4	0	shapes	M	8	True	121	(1.1978622188237402, -5.2885890504831874)	(-4.1149619625310168, -4.2516579370742891)	(1.541292796781379, 1.7796579403284909)	(-7.6798513197549552, 0.9679933658164579)	1.0	z	1.04674
24	N	A	M	B	B	M	A	N	A	8	2	shapes	M	8	False	121	(-2.7957702558999076, 0.51728125529349356)	(4.5092957295473148, 7.2729762590063096)	(5.3678572382656604, -1.4256719504242819)	(-7.9690472513133699, 0.062991229999109777)	1.0	slash	1.7664
25	N	A	A	M					M	4	1	shapes	A	8	False	121	(-3.2680988437838367, -2.4204558888927084)	(-2.664969954673424, 2.6036593427372345)	(4.7843879839492445, -8.4241477928899808)	(0.25005788377173843, 7.8343186814753594)	1.0	slash	1.35808
26	N	B	B	N					N	4	0	shapes	N	8	True	121	(-2.7483711853898622, -0.67347036178886022)	(3.79100727962809, 7.1734641827684325)	(-4.6078287602837484, 4.5578464338013216)	(5.5108353887893546, -5.3979485441163764)	1.0	z	1.51745
27	N	A	A	N	B	B	M	M	M	8	4	shapes	B	8	False	121	(-0.35588642231180323, 1.2375716746319743)	(-2.0862553614775674, -5.7233018937657558)	(8.4148780435568433, 8.4685154816372226)	(-1.6679128268643684, 6.1449335205634803)	1.0	slash	1.57576
28	N	A	B	N					N	4	1	shapes	A	8	False	121	(7.2951991458815257, -3.6501014077543648)	(-3.1494571946330927, -6.5520001015446887)	(5.289358372753739, 6.0530134031155036)	(-7.6473466639823462, 6.734963624199203)	1.0	slash	1.11737
29	N	B	B	M					M	4	1	shapes	B	8	False	121	(-8.1540360756534973, 2.6977469555653215)	(-5.2938257307669625, -6.4117630262725278)	(1.5349092981343642, -5.7245467370131191)	(0.91873266465875858, 0.37378919806158173)	1.0	slash	1.18885
30	N	A	M	A	B	B	N	M	M	8	2	shapes	M	8	True	121	(-4.0257866291155748, -2.0522751969724471)	(-7.1348591113490905, 2.6287724107530046)	(1.3891313168082569, -3.4692806737728592)	(7.3238428725033344, 2.7302449461089147)	1.0	slash	1.20157
31	N	B	A	B					M	4	3	shapes	B	8	False	121	(-6.689903251651856, -6.3579053006927175)	(3.8676874736359892, -0.22298367332164837)	(-3.8163669435263152, 5.9802033907484855)	(7.1393369255925858, 7.8988541940524755)	1.0	slash	1.19552
32	N	B	N	M					B	4	0	shapes	N	8	False	121	(-1.5033128898550618, -0.30527889731899727)	(3.5055635719384455, -2.3811017801432772)	(0.44553353662138839, 7.3544005151608403)	(-4.5724442818738451, 3.4397703092327649)	1.0	slash	1.11715
