TrialNumber	stim0	stim1	stim2	stim3	stim4	stim5	stim6	stim7	stim.probe	ttl.stims	corr.num	trial.type	stim.corr	block	match	Subject	stim.pos0	stim.pos1	stim.pos2	stim.pos3	ran	resp	RT
1	M	B	B	M	N	A	A	N	A	8	5	shapes	A	Practice	True	122	(-5.021851884824768, 4.1324430901256761)	(8.4098655754305334, 6.3055005109297149)	(2.5368387067855753, -1.7419533016047959)	(4.0455250937998688, 2.4280656552841844)	1.0	slash	3.20908
2	N	A	N	B	A	M	B	M	B	8	7	shapes	M	Practice	False	122	(3.6102760234574749, 3.116460797722544)	(-2.5408737027778363, 6.0896592141195782)	(5.2829421057444588, -6.6783675319440032)	(-6.1502804964519076, 4.2209873873729755)	1.0	slash	2.34381
3	N	B	M	B					M	4	0	shapes	N	Practice	False	122	(-5.7646145720756561, 3.2709996305661306)	(8.4150264765985519, 5.7366713644469982)	(2.4566426414154279, -1.8287287072988292)	(-1.4112993224272321, -5.2429085995391125)	1.0	z	1.42724
4	M	B	B	A					A	4	2	shapes	B	Practice	False	122	(7.3082348523902425, 5.6432343830752192)	(-3.2843256765065005, -0.26424776013366902)	(8.3910675068199652, -0.24272737651780041)	(-0.37525249537192451, 6.0250098560594374)	1.0	slash	1.35689
5	M	B	M	N					B	4	1	shapes	B	Practice	True	122	(1.9999611885458535, 5.4907760090809248)	(-4.4720115922804489, -6.7320362572210453)	(-1.9150756236072253, 3.7896276547369467)	(0.31364607969019431, -7.2274388236672209)	1.0	z	0.380469
6	M	B	A	M	A	B	N	N	B	8	0	shapes	M	Practice	False	122	(-7.5258839829974526, -3.4617915264628127)	(-0.467765814775154, 7.4923556517626722)	(7.7709748135322769, 5.5155047107065052)	(-3.9758342184667672, 2.595075222138453)	1.0	slash	0.964155
7	M	B	B	A	M	A	N	N	B	8	2	shapes	B	Practice	True	122	(-8.6635537688084341, -5.5418142033741127)	(0.54176485496843618, -3.2530571381055768)	(-2.9313989406640149, 2.732401821428974)	(6.1481483691019267, 1.0776708469250575)	1.0	slash	1.07602
8	N	A	B	A					A	4	1	shapes	A	Practice	True	122	(-4.6687618749975082, 5.0868429004030755)	(-8.4613182239263551, -3.0814893247794206)	(5.212591175147482, -6.2822843188326924)	(2.5762684856674962, 0.32800572125188054)	1.0	z	0.421426
1	N	B	M	A	B	A	M	N	N	8	7	shapes	N	0	True	122	(-7.0357422204968678, -0.17711285576210045)	(-0.37968507162853626, 4.9686817689947986)	(-8.2841161359138287, 5.8395696839617077)	(2.6447171452123932, -7.091079023774248)	1.0	slash	0.971472
2	N	A	A	B	M	M	B	N	B	8	0	shapes	N	0	False	122	(3.6125456670054099, -3.2813909230179279)	(5.4724836763194791, 0.93904806684004072)	(6.9165424917325531, 4.9249333966295197)	(-5.1649024018233334, -5.7155570731107357)	1.0	z	0.971729
3	N	A	B	B	A	N	M	M	M	8	6	shapes	M	0	True	122	(3.8832869376722989, -3.8662927434807326)	(0.27001753444104359, -7.6850500337576779)	(3.2318370615250611, 8.7363582962120887)	(-6.1474942344379242, 0.50235843958661164)	1.0	z	1.86685
4	M	A	B	M					N	4	0	shapes	M	0	False	122	(5.7719280454412818, 3.9963159752067554)	(-2.6306481580148695, 1.8395695594989547)	(0.4285959302236293, -0.90776459277315702)	(-2.879027661490789, -5.9866978215466391)	1.0	slash	0.692856
5	M	A	B	N	A	N	M	B	B	8	7	shapes	B	0	True	122	(6.3285781303263242, 2.9860779218894393)	(-7.5536341858465139, -7.6966898178999212)	(-2.610540721090965, -5.0909805602959448)	(-4.4376918657744309, 4.4095535780740729)	1.0	z	1.28262
6	N	A	B	N					A	4	0	shapes	N	0	False	122	(8.7167592872143445, 3.4815031617672165)	(-7.498217936916225, -5.2202635483110482)	(0.35459288194024374, -0.046137782605807587)	(-2.6571477057217399, 7.9619887529917186)	1.0	slash	1.20406
7	M	A	M	A	B	B	N	N	M	8	0	shapes	M	0	True	122	(5.6113465577240937, -4.8244760209317938)	(-0.62115824962646116, 6.6409273810276748)	(-1.9317933118632675, -6.0820398326933454)	(5.169658928691323, 0.95972619312072815)	1.0	z	1.79195
8	M	B	N	B					M	4	2	shapes	N	0	False	122	(6.7786955878735604, 7.9210735197942519)	(7.243248595224907, -8.6338016211290913)	(-5.4931180830724484, -7.1658962487756073)	(-3.544929090323123, 1.3573665479985113)	1.0	slash	0.945676
9	N	B	N	A					A	4	0	shapes	N	0	False	122	(-3.6828286858369728, -3.8250555088411211)	(1.8673040506183032, -8.3137357782141272)	(7.8890230380494621, 1.0564734003368699)	(-5.9886713269553304, 2.0922048235768749)	1.0	slash	0.861071
10	M	B	B	A	M	N	A	N	B	8	1	shapes	B	0	True	122	(-1.3301639752412715, 3.7435064376428233)	(4.6632241002620436, -8.1916877745181829)	(-3.551623084048539, -3.7436722659455324)	(7.5871400208215434, 1.5595340181542152)	1.0	slash	1.17027
11	N	B	A	B					N	4	1	shapes	B	0	False	122	(-0.096534214711700983, -6.0735897968481662)	(-3.9788855777628838, 5.3780354675020092)	(0.68885135336047298, 8.3746088359187887)	(7.3676366875480603, -4.4931322985817337)	1.0	slash	0.65564
12	M	B	M	A					N	4	1	shapes	B	0	False	122	(1.2265711421962138, -5.0604570615316735)	(4.9326467324341614, 1.9374687080915596)	(-5.8802171560103833, 4.7733577029406948)	(-4.5874889241235302, -0.98723690783543727)	1.0	slash	0.685399
13	N	B	M	B					B	4	2	shapes	M	0	False	122	(1.4705750291774571, 6.3352684558264354)	(-5.7924932679146952, 5.8689662161302358)	(6.4266578533969589, -8.2551269128554523)	(-5.6346466936662498, -2.1479593392090299)	1.0	slash	0.619125
14	M	A	B	M					M	4	0	shapes	M	0	True	122	(3.9424035345513495, -2.102430324039398)	(5.6985198522718861, 3.9436633270225112)	(-6.4646233906817603, 0.64717003001643114)	(-3.4584009284211188, -8.525975694766144)	1.0	z	0.832834
15	M	B	B	A	A	N	N	M	N	8	4	shapes	A	0	False	122	(-1.6582836973804884, 2.7592388905601162)	(-7.4205920662915315, 1.4824877327550467)	(1.0837858651521675, 6.932254378504993)	(5.1946618676119254, -7.3269693651505294)	1.0	slash	0.630564
16	M	A	N	N	M	A	B	B	A	8	3	shapes	N	0	False	122	(5.0320929878348402, 7.7637967098909932)	(5.9264964930430875, 2.7426701995243086)	(1.8476932859144739, -3.0683866776652957)	(-1.7521285758656813, 5.4553967921252209)	1.0	slash	0.65009
17	N	A	N	M					M	4	3	shapes	M	0	True	122	(6.9210567352942824, 3.5645469026074839)	(0.61516162822901777, -0.37527245625441807)	(-3.1510134235924525, -3.9855609943427606)	(-7.8276135048687978, 7.6829508879476975)	1.0	z	1.16977
18	N	A	A	M	M	B	N	B	N	8	0	shapes	N	0	True	122	(2.5586237156015823, -0.08045875841879635)	(6.0986957885893407, 3.3928941230439627)	(8.2451379611243887, 8.4552096318454062)	(-2.8419164947131339, -6.506807034570107)	1.0	slash	0.563419
19	N	A	A	N					A	4	2	shapes	A	0	True	122	(4.6574485413767555, -7.6433798570864973)	(3.250413659936088, 1.8648546623480318)	(-6.1499742590383022, 3.7340506591711744)	(-6.6254618384693282, -4.8591655886379366)	1.0	z	0.915452
20	N	A	N	B	M	M	A	B	M	8	0	shapes	N	0	False	122	(6.6140253617261688, 5.9897699538876648)	(-8.5087786792760891, 7.1277431321524247)	(-2.3066045742322485, 0.34083951709889782)	(3.0276601850058018, -4.7129022939816032)	1.0	slash	1.01479
21	M	A	N	B	A	N	B	M	B	8	3	shapes	B	0	True	122	(4.3396429257169196, -2.6219101603551884)	(-6.7935197862668053, -4.4377653397912518)	(-0.56811562955730821, -7.6315044207925684)	(-6.3846528700605605, 5.3140382132715747)	1.0	z	1.02932
22	N	B	N	M					B	4	1	shapes	B	0	True	122	(7.0242069552836277, -1.6301427749321959)	(-3.5938204793618507, -1.7509655459504012)	(5.8943416163976643, 4.943951930151476)	(-5.0276577896277477, 3.5945275336477067)	1.0	z	0.847795
23	N	B	A	B	A	M	M	N	A	8	3	shapes	B	0	False	122	(2.5788174737642144, -6.934666731276784)	(-4.4695104329675663, -4.0482636637745824)	(4.3753125517125948, -2.3516323855577026)	(5.1750731902703322, 6.5307536636239725)	1.0	slash	0.642132
24	N	B	A	M	M	B	A	N	N	8	7	shapes	N	0	True	122	(-2.024727307272892, -7.3378053133542602)	(2.8535731597428384, -6.2473460488130232)	(-2.2086513171773143, -0.9034255871138086)	(3.3909077003544859, 6.9073038935394599)	1.0	slash	0.938881
25	N	B	N	A					A	4	2	shapes	N	0	False	122	(-0.14962583709819022, 4.5141596152704029)	(-3.659336414181765, -2.9789165510125066)	(5.9364581225507074, 1.1562867930803638)	(5.4951365364350711, -5.8727329156538879)	1.0	slash	0.512815
26	N	B	M	B					B	4	1	shapes	B	0	True	122	(8.6711350365708171, -1.688694802982786)	(-6.2226632904773398, -5.7660035770982159)	(-2.4373319667283324, 8.5606374157978067)	(5.9600194843248975, 5.6925483112398521)	1.0	z	0.707142
27	N	B	A	A	M	N	M	B	B	8	6	shapes	M	0	False	122	(1.4149250533555104, -3.8858076496130458)	(8.4980658723732319, -3.5950190915899185)	(-0.35157906801143568, 4.9083227910765714)	(8.6477100351628415, 5.6430953395598582)	1.0	slash	0.710926
28	M	B	M	B	A	N	N	A	M	8	1	shapes	B	0	False	122	(2.2899608410416352, -8.1607574257014939)	(-6.7451360913880016, -1.3258071910841762)	(4.9271610751958441, 5.683553190520092)	(5.5089503169551506, -1.7032462525181105)	1.0	slash	1.10589
29	N	A	N	A					A	4	1	shapes	A	0	True	122	(1.1034394100057607, 8.0504919813855835)	(-6.3995228683630714, 5.3032331883457093)	(2.2235127869603097, -1.3571338687207852)	(-8.195776313129123, -0.73915538885896659)	1.0	z	0.774232
30	N	A	N	M					N	4	2	shapes	N	0	True	122	(-2.570257361729813, -0.056108205075968698)	(2.8256550949859562, -7.972875097993037)	(-6.7666910649628509, 2.23387313325739)	(0.88632181158916978, 2.1327970880747849)	1.0	z	0.955235
31	M	B	B	N					B	4	2	shapes	B	0	True	122	(-5.6344205678721826, -5.4915786545397465)	(-2.1498353106308423, 4.382370406243103)	(6.2838678034497111, -8.0623021370408914)	(4.2557259291359451, 5.7117532083835361)	1.0	z	0.644908
32	N	A	A	M	B	N	B	M	A	8	4	shapes	B	0	False	122	(-0.88197308405268871, 1.962148787064514)	(-0.92508630810478287, -2.522556765287649)	(-4.7633961469034833, -4.0504428156525965)	(2.4076855546651448, 8.0916631801090233)	1.0	slash	1.67253
1	N	B	A	N					M	4	2	shapes	A	1	False	122	(3.3802032942271083, 4.5176566548038082)	(4.3004895969286174, -6.6875779648797158)	(-0.97369557280425401, 6.2982792353341868)	(-8.437178660553041, -2.5233370744873556)	1.0	slash	1.39608
2	N	B	B	N					B	4	2	shapes	B	1	True	122	(5.6196052006833312, 0.6218958335250182)	(4.8669113578094496, -5.2178142839132349)	(-5.3446756680372314, 5.953451127914196)	(-3.18295788338337, -2.2630980972698884)	1.0	z	1.06171
3	M	A	B	M					B	4	0	shapes	M	1	False	122	(-8.5960291915474567, 5.6085930130610109)	(-3.260990007485713, -3.4888437389564793)	(8.2499874110026816, -6.3997674816100467)	(3.2813285667346026, 3.2518949769509611)	1.0	slash	0.714014
4	N	B	N	M	B	A	A	M	B	8	4	shapes	B	1	True	122	(-8.2273181855046502, -7.2640447138909732)	(-6.718238983803853, 1.8897157600852363)	(0.41520274683752589, 0.57360200568456854)	(-2.7170648385970884, 3.5090928699839843)	1.0	slash	0.757068
5	N	A	N	B	A	B	M	M	B	8	4	shapes	A	1	False	122	(-7.2066796182376329, -4.0890901315368238)	(8.2836582854913807, 3.2234096763211149)	(1.5026095156983548, 7.8796809628624302)	(5.8968242020207011, -1.5170076218265258)	1.0	slash	0.65521
6	N	B	A	B	M	N	M	A	A	8	2	shapes	A	1	True	122	(-7.363374254977038, -2.496142253256612)	(6.8386359483183945, 4.2636930273424536)	(3.3265522505817877, -2.5536725379255021)	(-2.1010692409324756, -3.6998981392594814)	1.0	z	1.08483
7	N	A	M	N	M	B	A	B	N	8	6	shapes	A	1	False	122	(-7.7438769551251685, -2.3300055189734028)	(6.6761900112552208, -1.8226007647921358)	(-1.7476716317331968, 6.8223152895277011)	(-4.0592594568021552, 1.7816996582131406)	1.0	slash	0.525923
8	N	B	M	N	B	A	M	A	B	8	2	shapes	M	1	False	122	(5.1458893794604688, 2.696089985246017)	(7.35850684583232, 8.5995410187489476)	(3.464890996410567, -4.2496651987825107)	(-7.6245886084456398, 8.5832419198808694)	1.0	slash	1.02171
9	M	A	A	M					N	4	3	shapes	M	1	False	122	(-6.0060426046367841, -3.3744656347041095)	(4.7313412301804689, -2.5690529990617721)	(7.4371964600750324, 4.6520178603891207)	(-0.30654704748129191, 0.27488678245187081)	1.0	slash	0.753148
10	N	B	N	M					B	4	1	shapes	B	1	True	122	(3.7626083011703919, 0.95580612499697359)	(-0.18873900949369649, -4.3235142277505956)	(6.1343451499468866, -8.0770324956222996)	(-1.3437266908474026, 3.6425608120958977)	1.0	z	0.752815
11	N	B	M	A	M	N	A	B	B	8	2	shapes	M	1	False	122	(-6.7235850615924972, 5.2566189099526905)	(-6.661253299327405, -6.8769594011321953)	(1.7306820201517361, 2.7402831003749437)	(-2.3347087353779612, -6.1350992907843658)	1.0	slash	1.05455
12	N	A	M	A	M	B	N	B	A	8	5	shapes	B	1	False	122	(1.9277750758597207, -3.7076423995100622)	(2.6423462678043421, 8.2346485727158374)	(6.0907172824850502, 5.7010474734367715)	(7.6103063166405818, -7.0261119368998326)	1.0	slash	1.12413
13	M	A	B	A	M	B	N	N	N	8	7	shapes	N	1	True	122	(5.1333084457607292, -6.6619050604798637)	(-7.2289647399021941, -0.22287499814750333)	(-6.4949972027719829, -4.3153939889684674)	(8.4023732493596164, 2.6442421835011434)	1.0	z	0.838437
14	N	B	A	N	B	M	M	A	N	8	0	shapes	N	1	True	122	(3.7722932039931809, 6.7505255139979568)	(-6.7207860666412538, -3.0941801129454936)	(3.1163552088100595, -2.4824989578319752)	(-2.2519007651702623, 7.0403917476518991)	1.0	slash	1.25357
15	M	B	B	N					N	4	1	shapes	B	1	False	122	(-7.9269001752534551, 5.4782477939933898)	(2.374410530149234, 3.6370174174693108)	(0.93203160412181951, -1.4640708439436496)	(-5.3923141866546107, -8.1720665333402849)	1.0	slash	0.62925
16	M	B	M	B	N	A	N	A	A	8	5	shapes	A	1	True	122	(5.695715552354077, 6.3990075833012803)	(0.81280133850015268, -8.2823466721042571)	(5.8820520132313199, -0.32083848056203301)	(-5.0420047827862113, -3.3063827487013411)	1.0	slash	1.03307
17	M	B	N	N					N	4	2	shapes	N	1	True	122	(6.0702265425842619, 0.22840643876902789)	(6.8217302808639548, -4.0305917984709509)	(-6.898022511799498, -1.6807195864802909)	(-2.9934098638191156, 6.4380057820182639)	1.0	z	0.514251
18	M	A	N	N					B	4	0	shapes	M	1	False	122	(-2.2912126541112352, -3.6363543579992141)	(-5.5312963821333891, 7.9993544413410582)	(5.0258844585780373, 7.2413409115122835)	(3.8240258078057554, -8.7354903554405663)	1.0	slash	2.01995
19	N	A	A	M					A	4	1	shapes	A	1	True	122	(-4.9782676453207966, -3.8853788041122304)	(0.092918725662507029, -6.2574538162821085)	(6.5206654924657084, 1.9842151779084229)	(-2.0004699269866295, 3.3621499182521362)	1.0	z	1.07112
20	M	A	A	M	B	B	N	N	B	8	5	shapes	B	1	True	122	(-4.4993416483132895, -1.7896146662668739)	(-7.0562974079217282, -7.5016417390422996)	(-1.4288818219167121, 5.2165849878728885)	(-0.94389920165824837, 0.59639013225315196)	1.0	z	0.835376
21	N	A	B	B	A	M	N	M	A	8	7	shapes	M	1	False	122	(4.1135430506713853, 6.224902575983716)	(-3.2663016209478206, 7.7396585660118724)	(-8.0996328103236941, -4.3810561104128496)	(7.5715985520607667, -8.5110850044645456)	1.0	z	1.54074
22	M	A	B	A					A	4	0	shapes	M	1	False	122	(-5.2920801523857008, -0.63223517867186629)	(7.6673195316951919, -4.7709674603723844)	(1.7664162524545546, 0.87934333971319312)	(-6.1316763423295022, 7.7031881571931891)	1.0	slash	0.56258
23	M	A	A	N					B	4	0	shapes	M	1	False	122	(-3.5304065832578226, 5.0987101400220123)	(2.18346957042219, 2.0282461729157273)	(-8.4564744019931091, -7.7414846352565849)	(6.6817673008263085, -8.0118792770484148)	1.0	slash	0.744061
24	N	B	M	M					N	4	0	shapes	N	1	True	122	(6.7304560294993347, 0.99539390887463775)	(5.6062511027154418, -7.304324397596984)	(-5.6246662259082889, -2.1787018250614087)	(-4.5168487045786296, 6.7593804281470717)	1.0	z	0.93356
25	N	B	M	M					M	4	3	shapes	M	1	True	122	(7.3055340267622988, 8.0378744779375175)	(-4.3755430895888514, -3.4208234137165343)	(-2.8940898054871305, 3.3897370367655686)	(6.8646943721227291, -2.0885543531585151)	1.0	z	0.787792
26	M	A	B	B					M	4	0	shapes	M	1	True	122	(-0.060919796217268285, -0.88374924858194248)	(0.60616348772541606, 7.4450781591131197)	(-7.6155124807106516, 7.2289458141827225)	(2.008708602203038, -4.9638909149434571)	1.0	slash	0.735748
27	M	A	N	A					N	4	2	shapes	N	1	True	122	(-2.7391949219487097, -4.8635733950646038)	(-2.4384582675837807, 3.7541239174126666)	(6.321420860458721, -0.4180323582824812)	(2.7727880544366279, 4.5433393089965062)	1.0	z	0.828902
28	N	A	A	B	N	B	M	M	A	8	5	shapes	B	1	False	122	(3.5929938440991336, -5.7154068634273774)	(-8.6658660118646331, 6.0761502418436244)	(2.1194430898220471, 4.9080887290661472)	(2.1744188393777222, -0.52295787908495939)	1.0	slash	1.88881
29	M	B	A	N					B	4	2	shapes	A	1	False	122	(3.5397509717741489, 6.3855936004155538)	(-7.1067731167684975, -1.5226490586240962)	(0.38470578263158117, -5.6521717818330055)	(-1.0935950733486806, 8.4602929024572688)	1.0	z	1.88047
30	M	A	B	B	M	N	N	A	A	8	7	shapes	A	1	True	122	(-4.3427140697704329, -5.4888074138123262)	(-8.1066364418357484, 6.6538861829332134)	(-0.87716345911811455, 6.4403929955071462)	(5.9156355506393243, -0.40790247111244327)	1.0	slash	1.19389
31	N	A	A	M	N	B	M	B	M	8	3	shapes	M	1	True	122	(-7.508818977970634, 1.4952925661939194)	(2.1176971405335134, 3.6997846509036023)	(0.22299928344041042, -2.5313667882123676)	(-0.9132488139945325, -7.6453537591523553)	1.0	slash	0.589244
32	N	B	B	M	A	N	M	A	M	8	5	shapes	N	1	False	122	(2.3984639576612174, 7.2812630421800577)	(0.65781544231515454, -1.5588013208224396)	(1.2373463491354535, -6.3252133082903566)	(-6.5888136602709952, -6.9128624912346393)	1.0	slash	0.651103
1	M	B	A	M					B	4	3	shapes	M	2	False	122	(2.3455813814532789, -5.0848085256826803)	(-5.5091416818323911, 8.5805126841005048)	(-5.9010127334124949, -7.7213011560885612)	(6.9097841815976899, 7.5253652299979308)	1.0	slash	0.570623
2	M	A	A	B	N	B	M	N	M	8	7	shapes	N	2	False	122	(-8.7483853093891479, 5.4861984216226301)	(-1.6436171685934182, 4.0419224308607138)	(0.43610637064788094, 7.7519222620752224)	(-5.5047598783747089, -6.1517028816034749)	1.0	slash	0.594244
3	N	B	N	A					B	4	1	shapes	B	2	True	122	(3.5007188197614578, -5.6573052328965669)	(6.9915592829516005, 5.4446029318671716)	(-3.2201280899285152, -1.6799951035706266)	(-8.3129053141973284, 3.8426922228102605)	1.0	z	1.47591
4	M	A	M	B					A	4	1	shapes	A	2	True	122	(8.0680695917041731, -5.8432327707318912)	(-8.3228763592526569, -7.2796723707191262)	(-5.4092361203841879, 1.0587610832958667)	(8.35115526926133, 5.1499667022125397)	1.0	z	0.821339
5	M	B	B	M					M	4	2	shapes	B	2	False	122	(-0.84071589142622649, 0.12489312112451501)	(4.4756981696928388, -8.2361498192622822)	(2.1039136199777886, 4.4012802931456907)	(-4.8944650794308497, -5.8578530428350088)	1.0	slash	1.00923
6	N	A	N	B	M	M	B	A	B	8	0	shapes	N	2	False	122	(-0.069920248157080422, -3.1114854313654527)	(-7.5435830860913091, -1.4790854687930173)	(0.47949762539767882, 3.8356463192427803)	(-2.6740990364765285, 6.9644478829971064)	1.0	slash	0.666653
7	M	B	B	N					A	4	1	shapes	B	2	False	122	(4.6296436770701419, 1.1436512465264954)	(-5.6177002401420459, 1.5594688177461311)	(-2.9133129952938832, -7.0668843530844674)	(6.5893430840010225, -5.3783070653497953)	1.0	slash	1.08452
8	M	A	N	N	M	A	B	B	B	8	6	shapes	B	2	True	122	(-1.2966167892746965, -0.18337953348167524)	(2.6067622652625069, 7.6569329269978539)	(-0.64997858324888647, -8.6128567561798839)	(3.0042917464060199, 2.2151668203262034)	1.0	slash	1.1402
9	M	A	N	B					A	4	1	shapes	A	2	True	122	(-0.025146290712674713, 3.6981812386162325)	(5.3977140070743044, 8.0274548141833968)	(3.4975607006207543, -6.4610239532918623)	(-1.3203783550200914, -0.44511573504674118)	1.0	z	0.682111
10	M	B	N	N					N	4	2	shapes	N	2	True	122	(-4.0935831711159318, -4.758314284939182)	(-2.1213455468580396, 4.6658354911776954)	(7.1950645707805752, 7.1541959706049649)	(0.25747992356585669, -2.9807131995235672)	1.0	z	0.979329
11	M	A	A	N	B	M	B	N	B	8	6	shapes	B	2	True	122	(3.728965075975708, -1.0190447716515276)	(-1.9166348188762692, -0.49919419716099966)	(-0.11657667394448978, 3.1437501972075612)	(6.9433968408082372, 3.664150879289485)	1.0	z	0.931093
12	M	A	A	M	B	B	N	N	A	8	1	shapes	A	2	True	122	(8.6686949602258103, -5.5328069800431692)	(5.9143425098052838, 6.4390271723444936)	(-5.1396226617554603, 2.3706593561859073)	(1.8493791772779318, 2.8115556768064991)	1.0	z	0.611876
13	M	B	N	B	M	A	N	A	N	8	0	shapes	M	2	False	122	(5.983194722215412, -8.4798925824810425)	(4.1645541313017311, 5.3385676027892561)	(-5.170577707847718, 1.8978120448555273)	(6.3101458988002808, -2.2664267831093428)	1.0	slash	1.02876
14	M	B	M	A					M	4	1	shapes	B	2	False	122	(-4.9467192765167525, -1.3173330609117251)	(7.5889383750317236, -7.5459067122254844)	(-0.41452358269488698, 8.4484814337134786)	(3.1362791292269989, 4.9061156338995406)	1.0	slash	0.958001
15	N	A	N	B					N	4	3	shapes	B	2	False	122	(-7.1216173025343501, 6.5130232972630129)	(0.71269795591001461, 1.8166767766855152)	(-8.0935399691295835, -7.527362277263034)	(0.58200539694358255, -8.0696604217377672)	1.0	slash	0.901359
16	N	A	B	M	N	B	A	M	B	8	1	shapes	A	2	False	122	(-8.5410732227087358, 0.22113800066249567)	(2.8355274467361653, -6.878838431480089)	(6.1809923216600247, 1.9819619234629329)	(-2.9979362955455349, -3.9098869353442023)	1.0	slash	0.539246
17	N	A	N	B	B	A	M	M	A	8	1	shapes	A	2	True	122	(-5.9054431639323433, -1.9757289822757516)	(5.6892288415127492, -4.9510697811095783)	(-2.0268091490220232, -5.8798303784949804)	(-6.6007876082589636, 3.1203118674420729)	1.0	slash	0.569439
18	N	B	B	M	N	M	A	A	M	8	5	shapes	M	2	True	122	(-3.2878152682070825, 7.1615023017279693)	(6.8463087698039917, -4.5069682272379774)	(-4.414795446017389, -8.2488124300143149)	(-6.9746835259219928, 5.3930704294472047)	1.0	z	0.715213
19	N	A	M	M					M	4	2	shapes	M	2	True	122	(-8.0691398316136702, 5.39247185345147)	(3.1394811185294476, -0.20160464028016811)	(4.1860015314455126, 8.4259746074012867)	(-4.1645789804749125, -6.3822441800474774)	1.0	z	1.63636
20	M	A	N	B	N	A	B	M	N	8	1	shapes	A	2	False	122	(6.8376031127845796, -3.4784212630800395)	(-3.3901355296261224, 7.128986113449761)	(2.8572362248416958, -8.2328595374714872)	(-2.5547652501046763, -8.6899337972058408)	1.0	slash	0.853829
21	N	A	M	N	M	A	B	B	A	8	5	shapes	A	2	True	122	(0.72325040931482754, -6.2655471183600042)	(-7.2671227249557031, -5.4478330335544047)	(5.5835592685280808, -0.17989020520175103)	(1.5935376004046748, 6.1742587875187436)	1.0	slash	3.05341
22	M	B	A	B					A	4	1	shapes	B	2	False	122	(4.6960488255113209, 2.1805415661713781)	(8.6718753775892665, -4.8645073401792907)	(-6.2677115977471285, 4.6303804117232819)	(-8.7079438708003849, -0.55644582033093037)	1.0	z	1.19538
23	M	A	M	B	N	A	B	N	B	8	1	shapes	A	2	False	122	(3.371404340253763, 3.0946872850853584)	(6.9429404547376876, 8.5128007887590158)	(-8.5371553478034823, -5.6086161318647125)	(-0.22580543742176751, 0.36663242763437331)	1.0	z	1.30059
24	M	A	A	N	M	B	N	B	N	8	6	shapes	N	2	True	122	(0.99290988093403243, -6.2672078674175564)	(-1.6166845598347921, 7.5895856804194075)	(-1.3900965742188207, -0.65281378934411904)	(2.4432787589451621, 1.2431141834766084)	1.0	z	1.13796
25	N	A	M	M					M	4	3	shapes	M	2	True	122	(-7.7885246217440978, 6.8268328982338637)	(-0.13285629891281303, -2.8554211344725644)	(8.5309035912588556, 4.0958320871267286)	(6.9652039846759557, -8.5148216481710151)	1.0	z	1.08047
26	M	B	B	N	A	N	M	A	N	8	6	shapes	M	2	False	122	(7.5999223083520064, 3.8836270989969943)	(8.5176146238610819, -6.1914643207308675)	(-4.6856394951942288, 7.6653553975702593)	(3.9753733669864388, 8.2437976389173251)	1.0	slash	0.795577
27	N	B	A	N					B	4	3	shapes	N	2	False	122	(-4.1165915675542033, -2.3385002824886794)	(3.7257110716176509, 1.5422990575184379)	(-6.4347302737571415, 7.8392892600843496)	(4.9786272184253502, -5.0393071707976436)	1.0	z	1.75516
28	N	A	M	M					A	4	3	shapes	M	2	False	122	(2.1390838620559833, 8.6070563958214343)	(-1.3649000072025093, 1.9110007036925918)	(2.9193331668854672, -8.6443273045227311)	(-2.17851106887586, -7.2605990074395006)	1.0	slash	0.706963
29	N	B	M	N					N	4	3	shapes	N	2	True	122	(-4.0979686682764092, 1.5638327474787381)	(1.4654631404705558, 7.6604441868775339)	(7.4270408756374167, -5.1352730532762383)	(-1.8184050568872117, -5.6071955339471566)	1.0	z	1.07039
30	N	A	B	M					M	4	3	shapes	M	2	True	122	(5.3811517367256165, 7.4873061911596643)	(2.3541484999932649, -0.64460076353477369)	(-7.5447072411399194, -3.0592631195809172)	(-0.92681070297733559, 7.0146722562805639)	1.0	slash	1.15389
31	M	A	M	A	N	B	N	B	B	8	7	shapes	B	2	True	122	(0.68510469562533771, -2.3519375664524063)	(-8.368215017184923, -1.8039632637685186)	(3.8630403117682519, 8.644441863090929)	(4.750048263971415, -6.2124739178321651)	1.0	slash	0.971517
32	N	B	N	M	B	M	A	A	M	8	7	shapes	A	2	False	122	(-0.88194991266596112, 1.9673719473644322)	(-6.1466274331560609, 0.74253804814410884)	(5.2942677621586842, -6.7221425178590275)	(1.8817117691407219, -3.033542212185302)	1.0	slash	0.851326
1	N	A	B	N					N	4	0	shapes	N	3	True	122	(4.6608278178543401, 2.857787227990471)	(-5.8977876341290667, -6.3131985778085618)	(-4.0804564766984441, 2.9535559019752018)	(7.6241113064935924, -1.5614865923364629)	1.0	z	0.867508
2	M	B	A	N	N	B	M	A	A	8	2	shapes	A	3	True	122	(8.1284774423939901, -1.1327454882913246)	(0.64734836964501596, -1.9522350118805729)	(-5.7571615441002777, -3.0823008449706943)	(-2.9377728936354774, -0.042024470116434287)	1.0	z	1.39059
3	N	A	A	M					M	4	2	shapes	A	3	False	122	(0.51714180831753431, 8.565205424415101)	(8.2067951365210163, -1.6653655736485975)	(-5.6095322121398272, 8.1922985736076264)	(-8.0652380249819409, -2.61551030859974)	1.0	slash	1.08808
4	N	A	A	B					A	4	2	shapes	A	3	True	122	(0.42143078438125059, -1.7844414390801333)	(4.747367325670151, 6.1351934244445978)	(-4.586155920189352, 6.7302162671058827)	(-6.2607991047212792, -6.3572484908034674)	1.0	z	1.07967
5	M	B	N	M	N	B	A	A	B	8	3	shapes	M	3	False	122	(8.7142895886329264, -3.4690560733634532)	(2.0654637123651121, -4.6693502478713782)	(-7.4672803001276957, -0.91918984698359818)	(-6.2117500512607533, 7.0994152375397075)	1.0	slash	0.791489
6	N	A	N	B					B	4	3	shapes	B	3	True	122	(0.17582434835464511, -7.9794873276027678)	(4.3597625512913964, 6.1524362916014361)	(-7.3937116865894623, 3.5179743151352678)	(-3.3265497235766075, -1.9035654512695972)	1.0	z	0.891021
7	M	B	M	B	A	A	N	N	B	8	1	shapes	B	3	True	122	(-5.6228396605348365, 0.14150165310799423)	(-1.1921256024457385, -1.5885453104583238)	(-2.8125163480103881, 4.9755823921734628)	(4.6017708578169216, -1.8796209653022284)	1.0	z	0.682751
8	N	A	B	A					N	4	3	shapes	A	3	False	122	(-2.9786092033256582, 8.5937128972393069)	(-8.5121752401497268, -6.1454037474677961)	(7.8914177493447113, -6.104472693182883)	(8.0370303381227011, 7.6879818780671023)	1.0	slash	0.658742
9	N	A	N	M					A	4	2	shapes	N	3	False	122	(-4.324876299147518, -3.0784155096445263)	(6.9682964362870941, 6.2538954094402701)	(-1.0570207640251841, 1.4168053439388935)	(5.230234743399139, -5.0086461984120652)	1.0	slash	0.664308
10	N	B	B	A					N	4	0	shapes	N	3	True	122	(-2.7701044239235744, -7.466518031306256)	(-2.0292181483282121, 3.7599990829723513)	(4.2777550042320467, 2.5763999185134825)	(7.1534975766589692, -6.9506865133323288)	1.0	z	1.01383
11	N	A	M	B	A	B	M	N	N	8	7	shapes	N	3	True	122	(5.1540145802644979, -1.9627134330648817)	(0.94313694884818844, 7.8089432037534507)	(-1.890564294277671, -3.0019376301371326)	(6.079349936035868, 6.0182599893090352)	1.0	slash	1.04534
12	N	A	M	A	B	B	N	M	A	8	4	shapes	B	3	False	122	(-6.4774396912008623, 5.332863259048553)	(6.1980844994138415, 6.293194499995149)	(6.3775334196881488, 0.46823293077103578)	(-6.3817615092303095, -8.3736186259098364)	1.0	slash	0.709605
13	N	A	A	N					N	4	3	shapes	N	3	True	122	(-8.5321205076707027, 2.9261128041148243)	(1.4666892376734086, -1.6164952473167755)	(7.4935547902250583, 3.0470964308738626)	(-7.7221195344269029, -5.4394250851338075)	1.0	z	0.624737
14	N	B	N	B					N	4	1	shapes	B	3	False	122	(-8.5276392783762756, 3.7519927159916779)	(-1.7915569200738659, -7.8832229890985008)	(0.037190712201022436, 6.8719091822369336)	(2.5986650534673448, -4.3480300011509883)	1.0	slash	0.604197
15	M	A	A	M	N	B	B	N	N	8	3	shapes	M	3	False	122	(-6.4566103029987794, -4.9745073048552477)	(-2.4659879896992205, 5.6087571578222697)	(-0.21046147471391841, 0.97105615189874683)	(4.308502726215119, -2.5876303213152596)	1.0	slash	0.501883
16	M	B	N	B	M	N	A	A	N	8	7	shapes	A	3	False	122	(-4.9940031569120586, -5.0336176462837141)	(-1.5953273727423332, 3.2055619700505886)	(2.4152461654410828, -0.22534782451277025)	(-1.7025467610467819, 8.7473492592995541)	1.0	slash	1.06073
17	M	A	N	N	B	A	M	B	N	8	1	shapes	A	3	False	122	(8.1246771841352796, 3.4029797842808485)	(-0.66733583216870684, -0.53580152507453072)	(4.4461785312395889, 0.33568707644394813)	(-6.1957750382751371, -1.5834795851575141)	1.0	slash	0.975018
18	N	B	N	B					N	4	0	shapes	N	3	True	122	(6.7614023179863736, 5.6924628876406373)	(-4.8711746543713783, -6.0621402035454022)	(-3.4215700339796244, 5.9198740993958854)	(6.8588031111389878, -5.8624302691495824)	1.0	z	0.802915
19	N	B	N	M	M	A	B	A	M	8	7	shapes	A	3	False	122	(-7.410065722950133, 2.1774754627737103)	(4.1682375888951615, -6.0308627986432501)	(-8.0953448922926423, -4.3701870032895425)	(-3.9308471214796041, -5.0852543842900619)	1.0	slash	0.675196
20	M	A	A	N					A	4	1	shapes	A	3	True	122	(-7.1371550735822229, -1.7759718912466624)	(-8.6346381083878381, 4.4785315578154474)	(1.3338264128950161, -7.3973581192686542)	(4.9476882620035756, 1.7103509128445342)	1.0	z	0.602252
21	N	B	N	A					N	4	3	shapes	A	3	False	122	(8.5036290496749523, -8.282844470846177)	(-4.5928629480937637, 1.988312679519904)	(4.9584077347354487, 7.8816611214312076)	(-7.2090055853803756, -7.2991293609345451)	1.0	slash	0.682563
22	N	B	B	N	M	A	M	A	B	8	0	shapes	N	3	False	122	(7.9407854133171654, 8.503507650396724)	(-5.5547573839667557, -8.5300311977421011)	(2.8337694241821172, -8.7216349717869814)	(-3.2252822872643998, 1.761659233404977)	1.0	slash	0.669687
23	N	A	A	M	N	B	M	B	B	8	2	shapes	A	3	False	122	(1.0683263810340176, 5.7026509165774986)	(5.1767236529142355, -3.627923266868569)	(-3.4558037936130201, 6.7583637978487268)	(-2.9092986170148771, -0.27389415730617905)	1.0	slash	0.521378
24	N	B	N	M	A	M	A	B	A	8	4	shapes	A	3	True	122	(-8.5626685318899369, -6.1863245477083924)	(6.3785825989700324, -3.4595062993188597)	(-4.5399306484656234, -5.4437306205177745)	(-4.3615264338394564, 8.5165137115253557)	1.0	slash	1.27925
25	M	A	A	B					N	4	3	shapes	B	3	False	122	(3.7495293070989586, 4.8207655701164818)	(8.2643695744091197, -3.0674876529189055)	(-3.7742411794876398, 2.8671311090369382)	(-7.0662026336055748, -2.4711472884682371)	1.0	slash	0.796436
26	M	B	N	A					M	4	2	shapes	N	3	False	122	(7.2941490003320872, 6.2644202844996055)	(-3.2997382220638496, 7.2374576779062654)	(-6.9145192361568197, -1.5171076335798013)	(3.9339270509437299, -0.083581423041557912)	1.0	slash	0.645963
27	N	B	B	N	A	A	M	M	N	8	3	shapes	N	3	True	122	(-4.4156205479884427, -6.5783460237361648)	(0.2749020415886001, 7.1815813987371993)	(5.3650821294113289, -7.4166179625004913)	(4.4774905086780237, -0.35997438144753247)	1.0	slash	0.965619
28	M	B	A	N	A	N	B	M	A	8	4	shapes	A	3	True	122	(-7.381274061494385, -1.4416699157785402)	(-2.9266036020853576, -3.0641688801982063)	(6.2952028739124586, 7.832936872335388)	(6.2543529618116871, -7.0094497617297034)	1.0	z	0.557582
29	M	B	A	A	N	M	N	B	A	8	2	shapes	A	3	True	122	(-1.3850250583728503, 7.4774259195403339)	(2.5789321582739806, 4.0860842278693781)	(-4.0582837292719445, -8.4355931864157441)	(6.0940523753925095, 8.3282044598352378)	1.0	slash	0.497288
30	N	A	B	M	N	A	M	B	A	8	5	shapes	A	3	True	122	(-7.0207882430130955, -3.8670395990919424)	(-0.455063959535698, 6.7373640494689706)	(-4.8673396620101519, 4.0368891270229685)	(-3.0953583953005595, -8.6604020229264052)	1.0	z	0.957423
31	M	A	B	M					M	4	0	shapes	M	3	True	122	(-8.4817141126142914, -8.2785960488849355)	(6.728941271643448, 2.0733393071575055)	(-4.4745357295124712, 0.47909249657766573)	(4.9734257672324755, -6.6866199439986342)	1.0	z	1.04713
32	N	A	M	B					B	4	0	shapes	N	3	False	122	(7.5594632725384407, -0.99892030543941956)	(-6.083836446894038, -1.1653893469288494)	(1.5621814558004576, 0.64695528447304973)	(-8.0264503475775726, 4.838355092548527)	1.0	slash	0.765618
1	N	B	A	B					B	4	0	shapes	N	4	False	122	(1.5164717146021918, -1.8252863614699999)	(8.5441120219001228, 2.1253583006088093)	(-6.5976160307502054, 6.6236785440129626)	(-6.6702199215556615, -7.142071967920721)	1.0	slash	0.581803
2	N	B	N	A					M	4	3	shapes	A	4	False	122	(-3.7741670842031203, 2.6873667571381112)	(-7.0449540207594206, -6.5625617490265968)	(0.38176826841198519, 7.0917607775387381)	(6.2607428872074884, -8.5698988047623832)	1.0	slash	0.658038
3	M	A	N	A	N	B	B	M	A	8	1	shapes	A	4	True	122	(-4.2140763672478556, 0.98658893662103253)	(2.0914606945162149, 7.4878540232955331)	(-0.12182966043688204, 3.7733217117491993)	(6.5155878109793459, -0.84126880738492371)	1.0	z	1.34366
4	N	A	M	M	A	B	B	N	M	8	7	shapes	N	4	False	122	(-0.69459313218640339, -6.1547228817373156)	(6.0833752104553547, 0.1681679113669805)	(4.2087145480316721, -7.8181067551325754)	(-0.247258217737226, 4.6759799877400905)	1.0	slash	1.3733
5	M	B	B	M	N	A	A	N	B	8	1	shapes	B	4	True	122	(4.5387682956126234, -4.7319934952486005)	(6.3751913685935904, 5.8988708211247651)	(6.2105736679903316, 1.0450583267957896)	(-6.3230617002135148, 4.7646440485838308)	1.0	z	0.97084
6	M	A	M	A	N	B	N	B	B	8	7	shapes	B	4	True	122	(-6.4655097106788073, -2.6965638522689863)	(0.92468483942072233, -5.9324375693223033)	(-2.6496989942835913, 0.090908613675001249)	(5.6080699114481227, 0.83714835078291294)	1.0	slash	1.30795
7	N	B	N	B	A	A	M	M	N	8	5	shapes	A	4	False	122	(-4.6052793290393383, 3.7123817450288854)	(4.0176633395925183, 8.2664995016926355)	(8.5857494801267293, -7.3941574891817545)	(0.95673004432992315, -2.3550592011876788)	1.0	slash	0.617412
8	M	A	N	N	A	B	B	M	A	8	0	shapes	M	4	False	122	(-6.3166339672383476, 4.8425335151855915)	(-7.7052137853183513, -1.860757593362516)	(-0.87814671374098463, -1.1932930167701015)	(6.9549298869549592, -5.7375255580935676)	1.0	slash	0.665212
9	M	A	M	A					A	4	3	shapes	A	4	True	122	(1.1981171907054087, -2.7457456550601194)	(1.0795773789243981, 3.5365120437109159)	(-6.2194790430909928, -3.7866314313854428)	(-4.7158027095614328, 3.4217905889165152)	1.0	z	1.19488
10	M	A	B	A					B	4	0	shapes	M	4	False	122	(1.136480772366582, 8.331444293477432)	(-8.4156905025176112, 3.9804979308759041)	(7.9757411882751512, -6.9930798937431975)	(-4.7732609555946457, -0.79198892563253676)	1.0	slash	0.586896
11	N	B	N	B	A	M	A	M	M	8	5	shapes	M	4	True	122	(-5.8416531974407633, 0.6033912025408128)	(4.1754473244052352, -4.7482829561757747)	(8.3254247458330539, 8.3407894265058573)	(-6.1558882122849008, -8.0459422867999528)	1.0	slash	0.390008
12	M	A	N	M	N	A	B	B	N	8	6	shapes	B	4	False	122	(3.6634430428032356, 3.9643085379655432)	(5.8010449005207381, -7.0870723160833311)	(-2.2536267375691592, -2.569347070848389)	(-7.4304513111664159, -6.7065981138327739)	1.0	slash	0.713952
13	M	A	B	B					N	4	1	shapes	A	4	False	122	(-6.4663414449575924, -4.3989158102181127)	(-6.0901698028739153, 7.3057976286103816)	(5.5303499799969149, 2.6484412009299714)	(0.65834504593721199, -6.3249177905715683)	1.0	slash	0.771449
14	N	A	N	M					M	4	3	shapes	M	4	True	122	(-6.6625306911827931, -6.0475624098973046)	(1.6806211268986377, 6.3544604949341945)	(7.7282892456170487, -8.6377643135186464)	(-1.9220778150063147, 4.031314773098444)	1.0	slash	0.593873
15	N	B	N	B	A	A	M	M	B	8	0	shapes	N	4	False	122	(4.0603359304216458, -2.5033775468394355)	(4.448440767544998, 3.4901308800762649)	(-4.2313504114834934, -7.2598610618330763)	(-4.5450254398621297, 0.93961259001028807)	1.0	slash	0.564958
16	M	A	M	N					N	4	3	shapes	N	4	True	122	(0.51784329726801914, 1.8702880334236855)	(-3.306891812791287, -6.8380953064590813)	(3.1801440285414095, -3.3032049180601133)	(-2.8573942376428185, 7.0612768221648636)	1.0	z	1.09294
17	M	B	B	A	M	A	N	N	N	8	6	shapes	N	4	True	122	(7.9907574043355964, 0.38059686878687238)	(-7.871047753733297, -0.13041132545730427)	(-5.1179450744459452, 3.8696164530111172)	(-3.5613327731280835, -5.9984247704509093)	1.0	slash	0.612233
18	N	B	B	N	M	M	A	A	M	8	1	shapes	B	4	False	122	(-8.4744931821768912, 7.5896007731022088)	(7.5740443256395515, -0.87623981950227758)	(0.4657004309485604, 1.3853086656161686)	(-2.0013295977816412, -2.5261925456373033)	1.0	slash	0.570576
19	M	A	N	A					M	4	2	shapes	N	4	False	122	(7.9147808915857034, 4.36778211043654)	(-0.61843397991193072, -5.3164844248658305)	(-7.370813407460993, 4.2782723818088897)	(2.4303697031391582, -1.6726133368837068)	1.0	z	0.899375
20	M	B	A	M					A	4	2	shapes	A	4	True	122	(-8.3010583711736601, 1.212289767554326)	(1.8524135174034839, 4.6760015739416882)	(6.7989757580203278, -1.547912048677401)	(-3.3182575020990175, -2.1284091202039095)	1.0	slash	0.762162
21	M	A	N	N					N	4	2	shapes	N	4	True	122	(-8.2655579686423621, -3.8820504763614654)	(0.17419741797413835, -3.5478438029394956)	(1.6269444126523815, 6.9934538701313791)	(-2.6996261552852854, 0.52570686773576725)	1.0	z	0.650727
22	N	B	B	A	N	M	A	M	N	8	2	shapes	B	4	False	122	(0.76409765725966317, 4.3471551577550489)	(-6.2425529330094154, -2.5419446692225289)	(4.6972042953497422, -2.7957348675013103)	(-7.8040847717190509, -7.2181415830302535)	1.0	slash	0.616541
23	M	B	B	N	A	M	A	N	M	8	0	shapes	M	4	True	122	(-0.1106026646673719, 5.9374254991949691)	(0.52032503741523684, -3.0542450879962191)	(5.6312982071919837, 0.733723554213082)	(-3.6774956713603801, -2.9166356222533434)	1.0	slash	1.26207
24	M	A	M	B					N	4	3	shapes	B	4	False	122	(0.7751855957889493, -4.0396156545307642)	(2.457408981592641, 6.1620596347900634)	(-6.8163551272354095, -7.8855863873454615)	(-0.30845902994795971, 3.0142182409951133)	1.0	slash	0.57984
25	M	B	B	A					N	4	3	shapes	A	4	False	122	(-6.4978464757439793, -0.40461515074729171)	(8.3568989995347529, -6.5724099382362526)	(-1.4677924040635215, 5.7935578578292475)	(4.0548253145890598, 1.0787786813623654)	1.0	slash	0.681401
26	M	A	M	A					M	4	0	shapes	M	4	True	122	(-6.030538611671167, 8.0078621013740481)	(5.7990963940250779, -8.3967487806026835)	(1.5796753155737626, 7.3586806210451705)	(-6.2838797300306517, -0.65652141559875332)	1.0	z	0.85911
27	N	A	B	B					N	4	0	shapes	N	4	True	122	(8.3295788521000631, -4.4268848177172648)	(-2.9113735868916528, 5.2004997025159785)	(2.4989368379376824, 7.8210273206119965)	(-1.201741999801877, -1.0728555320574129)	1.0	slash	0.80886
28	M	B	B	M	A	A	N	N	M	8	3	shapes	M	4	True	122	(-4.3990728286423071, 2.0183111457369964)	(5.0669851548229961, -8.562586764363818)	(-7.9007341984684389, 8.6786583905697192)	(-0.60298088702553798, -8.2931561669466269)	1.0	slash	0.904333
29	N	B	N	B					N	4	0	shapes	N	4	True	122	(-5.2603133572177736, -5.4317828803317507)	(4.0836401441390553, -1.9736560841522346)	(-5.9909837765799931, 7.9255790152767567)	(6.4310162277480352, 5.6648804917357136)	1.0	z	0.613929
30	M	A	A	M	N	N	B	B	B	8	2	shapes	A	4	False	122	(6.2877402371207598, 3.1774487871393973)	(0.35193673172849138, 5.5969476545136043)	(0.11644620040020648, -4.6035633307963248)	(4.1458775154365135, -3.549612117406836)	1.0	slash	0.404245
31	N	A	A	M	M	B	N	B	B	8	7	shapes	B	4	True	122	(-0.064995068789579946, 7.9232356989298758)	(-4.0601869194628009, -1.7681667498912024)	(4.1446555139985133, -5.2178673507922593)	(-3.1387716959304086, 4.8790158583046548)	1.0	slash	0.543309
32	N	A	B	B					A	4	0	shapes	N	4	False	122	(-4.7298931148324899, -3.6490123474527607)	(4.7783782547694997, 3.3019116254633758)	(1.6968864422501646, -8.0631797065808897)	(-8.7094804271190949, 8.6614079703501901)	1.0	slash	0.761091
1	N	B	B	N					A	4	3	shapes	N	5	False	122	(-1.2005984264727045, 5.1008964744116803)	(4.8498076514518367, 8.4896913055102523)	(4.6963650543820847, -5.9746345388552138)	(-2.0755272752227745, -4.186605310377816)	1.0	slash	0.880702
2	M	A	A	N	B	M	N	B	A	8	2	shapes	A	5	True	122	(8.7314996316167885, 6.2525137528402084)	(0.60454257358200891, -4.4990070735112395)	(-6.5810109207765848, 8.4924340259180191)	(-0.88472078908060237, 4.3234102750775953)	1.0	slash	0.770472
3	N	A	A	B					A	4	1	shapes	A	5	True	122	(7.977254659448846, -4.6557412731567505)	(-3.0726172215046512, -0.37042902006953149)	(3.355422894215339, 1.8270684095519112)	(-8.5155378876439727, 1.6655549746024079)	1.0	slash	1.06599
4	N	A	M	M	N	A	B	B	M	8	2	shapes	M	5	True	122	(-0.83120226207794445, -7.0817249347851385)	(7.208726379522604, 1.2935277767901301)	(-4.0762733609781288, 0.9161387263540206)	(5.0227388514820852, -6.0439488939269985)	1.0	z	0.925621
5	N	B	M	B	M	A	N	A	A	8	7	shapes	A	5	True	122	(6.2842757707703978, 0.27935607287728459)	(-7.7495371309782612, -4.223539835403618)	(2.0760003016045854, 6.5401325894795335)	(-4.6005992871295875, -7.5702823560912291)	1.0	slash	0.487858
6	N	B	N	A	B	M	A	M	N	8	0	shapes	N	5	True	122	(-6.4991274476907206, -0.64259562591823283)	(-4.074366795364222, -6.4264116683023396)	(-3.5012958621855041, 2.3309615190808106)	(0.80510049471829603, 5.9539021175424462)	1.0	z	0.646934
7	N	A	N	A					M	4	0	shapes	N	5	False	122	(-3.5912969793799752, 3.2736391589447376)	(-4.8329916718322288, -6.8691713877112495)	(2.2548732636444431, 5.7354322351643798)	(6.5834425206681644, -5.6034408384817294)	1.0	z	0.860611
8	N	A	N	B					B	4	2	shapes	N	5	False	122	(-7.892938219515111, -4.6433513213711892)	(0.27937001175758702, 0.1486529386546529)	(6.3590180382954529, -7.4530688172886608)	(-5.5172440036839863, 5.5199542521802414)	1.0	slash	0.666413
9	M	B	M	N					B	4	1	shapes	B	5	True	122	(-7.3023404051509031, -5.1014712347667919)	(-8.0430985998677489, 7.0135052251328958)	(5.86939232671563, 5.0526651898475894)	(4.6390356034005986, -7.8544793265247774)	1.0	z	1.07832
10	M	B	M	N					N	4	1	shapes	B	5	False	122	(3.2619754346209398, -0.91879826653553476)	(3.6689906483370827, 6.9508534482321398)	(-0.5654144825616001, -5.7384161691630684)	(-8.1822877073055942, 4.2392007205302527)	1.0	slash	0.718145
11	M	B	N	A					M	4	2	shapes	N	5	False	122	(-0.029818350521409798, -0.63306749958740482)	(-8.1485423112015276, 1.4822039293765474)	(6.7314208960293467, -1.3707324196677888)	(7.4588003728974215, 3.0499241357344768)	1.0	slash	0.623863
12	M	B	B	M	A	A	N	N	B	8	6	shapes	N	5	False	122	(1.4954495550102429, 6.8580316320837227)	(-1.2157152982424888, -1.8450122061843102)	(4.8261439661017018, -7.6141588173801349)	(-4.5172178708782766, 5.0966924453877347)	1.0	slash	0.701015
13	N	A	M	M	B	A	N	B	M	8	7	shapes	B	5	False	122	(-3.4999224075301134, 4.2937763980288839)	(2.5823924661750564, 3.4945993190287226)	(0.98591592953168394, -2.4092813824654318)	(-6.6456550413624598, -5.9913327346293812)	1.0	slash	0.810487
14	M	A	A	M	B	B	N	N	M	8	5	shapes	B	5	False	122	(-0.69428470873529058, 2.1884676326227783)	(-5.0155615707411947, 0.9017113045702736)	(0.59265744143740307, -3.8114597034701685)	(-5.6228963114924095, -6.6172901209339461)	1.0	slash	0.578258
15	M	A	N	N	B	A	M	B	B	8	2	shapes	N	5	False	122	(1.8105754826414433, -4.909234495049299)	(-5.6030746466994659, 4.0156121273633101)	(-3.0047548118065368, -0.51095505899699134)	(5.8070669134763833, 0.78259672118663559)	1.0	slash	0.551857
16	M	B	A	A	M	N	N	B	M	8	6	shapes	N	5	False	122	(-0.18246427431768453, -1.6915184238226875)	(3.1185337513636817, 3.1689319268990968)	(6.7855257372050204, -2.344946156678656)	(-7.6585195915392763, 3.4150388124627113)	1.0	slash	0.579218
17	N	B	B	A					B	4	2	shapes	B	5	True	122	(3.3628553152569793, -6.5330073329958553)	(-2.2913074690515787, -0.15781344701321665)	(6.821237686132438, 0.93063202898308361)	(-2.7427141524035745, 5.9880196620864048)	1.0	z	0.713236
18	N	B	N	B					B	4	3	shapes	B	5	True	122	(8.4596886790266765, 2.7806868701886742)	(-3.8451022671631581, -5.5251628507636497)	(1.2466422495506446, -6.8383431389975859)	(-5.4446275493824388, 4.883037884069358)	1.0	z	0.75478
19	N	A	M	A					N	4	0	shapes	N	5	True	122	(6.7584925614711882, 4.6224920236195519)	(-3.5663293666161726, 7.3209906239849829)	(2.287846120648247, -7.7172179604593687)	(-5.6192380026824313, -2.7851488069711463)	1.0	z	0.660572
20	N	B	B	N					A	4	0	shapes	N	5	False	122	(4.4043814656874272, -2.0700872866946245)	(-3.5526371146124358, 2.8208499308581203)	(3.9646582148803198, 8.1596675433354804)	(-5.9610942519991514, -8.5638092095725433)	1.0	slash	0.690064
21	M	A	M	N	B	N	A	B	B	8	4	shapes	B	5	True	122	(5.6718146784139432, 6.9650865037541596)	(2.0255969871033503, -5.5422768548917176)	(-2.5513849705107114, -7.3423279988440502)	(-0.34201493348588841, 0.48568668719463837)	1.0	slash	1.04157
22	N	B	M	N					M	4	0	shapes	N	5	False	122	(-5.2156066275938198, 1.4002772509208121)	(-0.78752284583911791, -2.3997376055053934)	(8.4804721722123588, 2.8860399693379257)	(4.7142854314877916, -4.0711611393658877)	1.0	slash	1.11535
23	M	B	A	N	B	M	N	A	N	8	0	shapes	M	5	False	122	(1.3937827685744395, 3.5955484932501296)	(1.9193138956723423, -8.5004740389522286)	(-6.9149530814589619, 8.2261273095385548)	(-5.143419634337306, -5.5802965876992108)	1.0	slash	0.862229
24	M	A	N	B					M	4	0	shapes	M	5	True	122	(-1.9943831034918329, 3.1100223010421946)	(7.1589029122927919, 8.0654589967980996)	(4.915175081650462, -7.7316894968778911)	(-7.0992126033777989, -7.2414562780871705)	1.0	z	0.968815
25	N	A	M	B	M	B	N	A	A	8	5	shapes	B	5	False	122	(-4.0860481780534572, -2.5114490047178615)	(1.1504183010910793, 5.3123771521344754)	(-0.69727825039927716, 0.96688837708530251)	(-7.6982757144846587, 4.2263205151224348)	1.0	slash	0.730372
26	N	B	B	M					N	4	1	shapes	B	5	False	122	(6.5743768164800898, -8.3802805226724502)	(6.1622527505028675, 6.118094203183297)	(-7.6277535302477464, -6.5729703167279308)	(-7.5297195990552037, 0.48732299177816074)	1.0	slash	0.954662
27	N	B	A	B					B	4	3	shapes	B	5	True	122	(-2.8505022213037483, -5.971565552339503)	(3.3651785147861037, -8.3671450644058609)	(-6.6781580899004958, 3.4356166740816168)	(2.7150538773939967, 7.3018784586754073)	1.0	z	0.846351
28	N	A	N	B	A	B	M	M	N	8	0	shapes	N	5	True	122	(-5.9489381690638563, 8.4386696014226388)	(-8.1381107738078953, 2.9020053575877576)	(0.94949807103241923, -3.5516093140035139)	(8.6736149988247604, -7.301300491614561)	1.0	slash	0.58316
29	N	B	B	N					B	4	2	shapes	B	5	True	122	(6.8523536492138337, -1.6513181872377443)	(6.9229501352334033, 4.7042156402684174)	(-0.047929401766882762, 2.2055941960987973)	(-8.5675413256973734, -7.2335319167895236)	1.0	z	0.842734
30	N	B	B	N	A	A	M	M	N	8	0	shapes	N	5	True	122	(-5.4893677344623359, -7.3999833818861269)	(-7.060165115332806, 8.0189349679617585)	(1.5011977379848229, -3.1056591230361175)	(5.1702302080909934, 4.9363813224955191)	1.0	slash	0.812767
31	N	A	N	M	B	B	M	A	A	8	1	shapes	A	5	True	122	(4.3553668260546985, 2.3592809222198685)	(2.1801671291870157, -4.7944186089202772)	(-8.025495681091936, -7.195348109118731)	(-3.4752081384070479, 5.8884769125782022)	1.0	slash	0.604302
32	N	B	A	M	N	A	M	B	N	8	3	shapes	M	5	False	122	(6.8308347074091085, -3.1680373135922073)	(-0.56111129477580945, 6.6506337677195226)	(-3.0926164594792755, 0.053725475947141277)	(-5.9791926517453913, -8.0852825689711896)	1.0	slash	0.542165
1	N	B	B	M					N	4	0	shapes	N	6	True	122	(7.7868831824973483, 6.8968675579008512)	(4.1078890257638196, -7.3153909239730197)	(-3.9485397476459205, -5.9102297969645701)	(-5.8297128905803461, 1.7228885394815165)	1.0	z	0.891522
2	M	A	N	M	A	N	B	B	N	8	4	shapes	A	6	False	122	(-6.3946212596570913, -2.4630258245637178)	(-0.58390752733713924, 1.9476420714046121)	(0.70266214063816967, 6.8174826024936017)	(4.797671400593714, -3.5639178905529807)	1.0	slash	0.627325
3	N	B	A	A					N	4	3	shapes	A	6	False	122	(-6.1689291594709328, 1.1305409808967042)	(8.3925275210714076, 7.8380911116302592)	(3.6209799892868801, -3.7835222745311574)	(-7.1748033956286168, -4.9134997347665994)	1.0	slash	0.759042
4	M	A	A	M	B	N	N	B	B	8	7	shapes	B	6	True	122	(1.1530304015327992, -8.1568039101033758)	(7.6988236611465801, 8.219731941624687)	(2.1582053620369326, -3.8533644543900101)	(-6.3200687253815477, 0.35352304235565235)	1.0	z	0.904432
5	M	B	B	N					B	4	0	shapes	M	6	False	122	(-7.2865308483050146, 3.2098712915438661)	(8.2134240297047008, -0.63097336822445627)	(-3.5426658469348489, -6.4663510116675811)	(4.453371301415638, 6.7917856724142105)	1.0	slash	0.627904
6	N	B	N	A	M	B	M	A	A	8	7	shapes	A	6	True	122	(1.058436966096572, 1.0515761097017879)	(4.2580560380465666, -5.7594178933522908)	(-2.2676081040135347, 6.6608085249181137)	(6.642365910881237, 1.747357173693203)	1.0	z	0.8826
7	N	B	A	N					N	4	0	shapes	N	6	True	122	(5.5871991622949917, 3.4353288189077134)	(-2.0631749244498261, -2.4676785884435057)	(-0.1485009204588863, 3.7807450478416182)	(5.4957307019898565, -8.2826851568411293)	1.0	z	0.674205
8	N	B	B	N					A	4	2	shapes	B	6	False	122	(0.035600196172891785, -0.38173518372155968)	(-4.85724716746887, 1.8056154443179047)	(4.6474699544057696, 0.086366297810796411)	(-3.2553825183234872, -5.6570088485583447)	1.0	slash	0.765304
9	N	B	A	A	B	N	M	M	A	8	2	shapes	A	6	True	122	(-5.4091244433823764, 7.414605375036178)	(4.708069669269312, 2.4874250885481342)	(-6.526177328395387, 1.7359099767423611)	(7.3189666039130792, -4.2808083464239859)	1.0	slash	0.700749
10	M	B	A	B					A	4	0	shapes	M	6	False	122	(3.6466606929569778, 3.1096417909749547)	(-4.7275049496430537, 8.1117900313654765)	(-6.3127792827267353, -1.5182307310943974)	(5.3247099836627516, -8.4329090907592494)	1.0	slash	0.741276
11	M	B	M	B					M	4	2	shapes	M	6	True	122	(0.47231947727302348, -7.8725408133414039)	(-3.8872906543904042, -7.2421698749151355)	(7.1996568847531748, 5.2015143606497283)	(-1.3320028188672888, 3.6441869757185419)	1.0	slash	0.624298
12	M	A	A	M	N	N	B	B	B	8	7	shapes	B	6	True	122	(-1.6726714096158615, -1.3402990664333636)	(-5.9710316366527803, -5.3572640191037948)	(7.6855029903164009, -6.6650553923083544)	(5.4311440942698042, 1.7294797535936475)	1.0	slash	2.50173
13	M	B	M	N	B	A	A	N	M	8	2	shapes	M	6	True	122	(-7.3288728409060591, 3.3409980044846073)	(6.534017868394475, -6.7097604708757519)	(-3.7683562269282485, -0.30457871917611001)	(1.408322030858459, -3.0755072375210153)	1.0	z	0.843425
14	M	A	M	A	N	B	B	N	A	8	6	shapes	B	6	False	122	(-0.023580594515026476, -3.6624373520598583)	(4.7273669411351875, -1.6988100666164403)	(-0.50459197081569229, 1.3128995965119881)	(4.3119952817099492, 6.7164610931172426)	1.0	slash	0.445118
15	N	A	N	M					A	4	1	shapes	A	6	True	122	(0.70580805003789138, -5.5234893455113738)	(-8.088383603190417, -6.0971570898156848)	(-1.531405963860208, 4.5405270952132284)	(7.1930199478652543, 6.6414103430540337)	1.0	z	0.962804
16	N	B	N	A					B	4	1	shapes	B	6	True	122	(-8.2345014007265309, -0.34755813528242818)	(-5.3759283811842788, 7.0578087997954491)	(3.7804201291495403, 5.9720118471465078)	(3.9551383816891477, -7.1351198053984612)	1.0	z	0.77842
17	N	A	M	N					N	4	0	shapes	N	6	True	122	(-2.1271886958254012, -5.8504852755908754)	(5.3098539826133813, 5.0688282433900476)	(-2.571336172338631, 7.2270211549937073)	(6.7826386444460329, -3.875781166040781)	1.0	z	0.792009
18	M	B	B	M					B	4	2	shapes	B	6	True	122	(-2.422340572790378, 4.22674710476592)	(-8.2458692457750562, -8.1870339702954933)	(8.4680632138896463, 5.5779472623344404)	(4.0323096634769069, -4.1262788202126206)	1.0	z	0.692338
19	M	B	B	A	M	N	N	A	M	8	2	shapes	B	6	False	122	(-2.1019533294220496, -5.5185404168577561)	(7.692388376052655, -1.594121233042971)	(3.416003949297691, -4.1371583780430168)	(-6.0264215780398924, 8.6387543779740739)	1.0	slash	0.926203
20	N	A	N	A					N	4	2	shapes	N	6	True	122	(-1.8318877171987351, -5.9398683430125665)	(-6.4381231904565386, 6.3345022717214636)	(7.5410036484635867, 5.6178187012816885)	(5.0718916534366318, -7.6397583734119774)	1.0	z	0.901147
21	M	A	M	N	B	N	B	A	N	8	1	shapes	A	6	False	122	(-8.1449562854139366, 5.7386255742425138)	(-0.65896776146592018, 2.0677243836719832)	(-5.1116940304319636, -2.5913923893366331)	(0.10363591777221082, -5.3147618788673912)	1.0	slash	0.621123
22	N	A	M	A	N	M	B	B	N	8	7	shapes	B	6	False	122	(4.1520189835671601, -1.51327821796803)	(-6.5964652158752388, -8.4284387998672354)	(-3.2700338147644175, 7.9532441207521565)	(4.6512982484537044, 5.7604706822510323)	1.0	slash	0.578306
23	N	A	A	M					N	4	1	shapes	A	6	False	122	(0.27743775637902424, 1.7164503568800455)	(4.2145296962382446, -8.6690320871209074)	(-5.4125024786227476, 5.1895299311095613)	(-7.7567795860595723, -8.4359157079338019)	1.0	slash	0.751907
24	M	A	M	N	A	B	N	B	N	8	4	shapes	A	6	False	122	(-3.62984968054002, -7.9009276469242931)	(4.5943094198303349, -1.3043637200895901)	(-4.6147070625486233, -2.7923831291175212)	(0.31976435154003902, 6.6802103373087807)	1.0	slash	0.491706
25	N	B	M	B	A	N	M	A	B	8	3	shapes	B	6	True	122	(4.6087049660105777, 5.5679471819350681)	(-6.5808912749958752, 0.31851628436512769)	(3.1953591023770134, -5.9955958948045058)	(-6.3209785216326368, -6.6488699795482731)	1.0	z	0.906912
26	M	B	B	M	N	A	N	A	M	8	6	shapes	N	6	False	122	(1.1471106391010562, 4.5905433941255733)	(3.1623413218168803, -3.5031725895455441)	(-6.8420354678782864, -5.4778118083087701)	(5.7956701779621707, 8.6762168224451663)	1.0	slash	1.2229
27	N	A	A	M	N	B	B	M	B	8	5	shapes	B	6	True	122	(3.1535453329007144, 5.8849036714952199)	(-3.6657634086696875, 0.34273983349231862)	(-7.2000353902101626, -4.6398045622635467)	(5.2151300920645092, 2.0812795511208879)	1.0	z	1.12719
28	N	A	B	B					M	4	1	shapes	A	6	False	122	(4.5963784091549122, -1.3428629010914692)	(-0.56491061683131427, -3.8934005268161993)	(7.8519703196304995, 5.5755911753873111)	(-1.5562136594413492, 4.8379636038297296)	1.0	slash	0.758113
29	M	B	N	N					B	4	2	shapes	N	6	False	122	(-6.2793448595037642, -0.7848123728073082)	(-5.2529385466111584, 4.4851464528004996)	(5.0240655479730396, -1.881771443292692)	(0.52238279442459934, 2.2408349466940827)	1.0	slash	0.648598
30	N	A	B	A	B	N	M	M	B	8	2	shapes	B	6	True	122	(-8.3589281543339435, -5.3707129022068987)	(3.1107805823487897, 4.5634457076158377)	(-3.8477863634685265, -2.687487952379449)	(0.79280575154699662, -2.2314197298784828)	1.0	slash	0.824133
31	M	B	B	N	A	N	A	M	M	8	6	shapes	A	6	False	122	(-0.66002573264658793, 8.1281252988715487)	(2.0815118137679676, -3.3018985667067353)	(-0.87188784683886045, -6.8968592017396375)	(3.3657455913748215, 0.6184259816940596)	1.0	slash	0.595121
32	M	A	N	A					M	4	3	shapes	A	6	False	122	(-1.3788823766171845, 0.28594507698743676)	(3.1180327041322276, 5.0596476871139675)	(7.4361799968976428, -6.4688513944417902)	(-6.7145013949745662, -0.19516214481688898)	1.0	slash	1.04495
1	M	B	B	N	N	A	A	M	A	8	6	shapes	A	7	True	122	(7.7932525745626045, -1.5529126899277932)	(1.8424064712027555, 0.38365416369616412)	(-2.1996067282233671, -7.8289406407490496)	(2.8783808547232361, 7.3320220151848225)	1.0	z	0.990126
2	N	B	A	N	B	M	M	A	A	8	4	shapes	B	7	False	122	(3.5463070695144179, -2.5912840018226921)	(7.412267755867699, -1.4028829377971972)	(-2.7375144105609097, -5.3334341277002455)	(-3.569411444754321, 2.9816583717562732)	1.0	slash	1.23823
3	M	B	B	N	M	A	N	A	N	8	6	shapes	N	7	True	122	(7.4346605301927617, -8.5323860617817182)	(1.2084331809635955, 0.97584194621530962)	(-5.4885085962005284, -4.1297094372372563)	(5.0055954534181133, 5.269132737057836)	1.0	slash	0.629721
4	M	A	A	B					A	4	2	shapes	A	7	True	122	(-5.5693839747017302, -0.15376238804680753)	(4.6771931118151073, 1.4884734515144462)	(-4.364916178545136, 8.6237821987187289)	(8.4163796688069894, -5.1834548784463923)	1.0	z	0.951268
5	M	A	M	B					A	4	2	shapes	M	7	False	122	(2.5218801996914912, -7.558807241770138)	(-6.2317939017072135, 0.20707976097154734)	(5.7808867611890218, 5.6522658573852453)	(-1.8328014048622805, -3.7671953850849764)	1.0	slash	1.07509
6	M	A	N	M					M	4	0	shapes	M	7	True	122	(4.0367810509523601, 2.1761054891112384)	(-4.4645891647091682, 0.71639206591562044)	(2.0418355341136625, -6.0848174487373168)	(-3.014204355027494, -8.294389443675291)	1.0	z	0.924539
7	M	B	M	B	A	N	N	A	N	8	5	shapes	N	7	True	122	(-0.41003996879535087, -2.3362222519371318)	(-5.0347852154073536, 2.1801301883589908)	(7.2411463271042162, 7.2805929394177156)	(6.7961880118004725, -6.2331605125602181)	1.0	z	0.904824
8	M	A	N	A	M	N	B	B	N	8	0	shapes	M	7	False	122	(-1.2521340151542226, 4.5624250655718281)	(-6.4559348048109495, -5.1328579352282047)	(-0.75475654157779015, -3.2933616260222287)	(3.8235045342827512, 7.7004819781692539)	1.0	slash	0.627862
9	N	A	B	N	M	B	M	A	A	8	5	shapes	B	7	False	122	(1.3093578456807435, 4.3515596866587725)	(-7.5540923882228981, 7.2461543272447226)	(-6.2306122427947628, -4.0562459539637699)	(7.231586430978858, 3.0792203824285611)	1.0	slash	0.615629
10	N	B	N	A					B	4	2	shapes	N	7	False	122	(-4.3296377706595282, -7.911918880324146)	(-3.5016898738438211, 1.3477948429281668)	(2.6181701019362063, -2.3130529613108948)	(8.6274500627599728, 6.4197268395295275)	1.0	slash	0.805454
11	N	A	M	N					B	4	3	shapes	N	7	False	122	(4.5401437075903424, -6.711172299885301)	(-6.4873567724697541, -6.3546327614794418)	(-2.1578602760020598, 7.1687745512820413)	(4.6458552937515734, 0.085714393879921857)	1.0	slash	0.940728
12	N	B	B	M	A	A	N	M	N	8	6	shapes	N	7	True	122	(-2.9084497765305244, -4.0247533867803948)	(4.2989402688719434, -6.9357027126469344)	(-2.9215472320645217, 3.2008710096772983)	(-3.6565317431430175, 7.3363258318191633)	1.0	z	0.722621
13	N	A	A	N	M	M	B	B	A	8	3	shapes	N	7	False	122	(5.0414157480249795, -5.8582235810757632)	(-2.447238647837148, -3.1727199547759977)	(1.2619466109431965, 7.9873698603847174)	(1.7367025876542641, 1.2034222790548128)	1.0	slash	0.541556
14	M	A	M	A					M	4	0	shapes	M	7	True	122	(-4.2134767542256615, -6.6829809554980439)	(7.8342673120902475, 2.7745971284462456)	(-8.1992915218881084, 7.3205777469867392)	(2.8533339076150277, -7.1346312695020968)	1.0	z	0.769558
15	N	A	M	M					B	4	3	shapes	M	7	False	122	(8.6098161833388858, 6.7014808557776906)	(-8.458274638785003, 1.9785712739035315)	(8.3173314137322478, -1.6481233840993559)	(-2.00466712741758, -3.4486254463564192)	1.0	slash	0.535686
16	N	B	N	A	M	B	M	A	N	8	2	shapes	N	7	True	122	(0.34967303660988058, 1.8362427286132341)	(-4.696097695190848, -3.2502110621840536)	(2.7217286807218457, -2.3813219856200609)	(-5.7298652370956242, 4.6334920729995428)	1.0	slash	1.10187
17	M	A	B	B					B	4	2	shapes	B	7	True	122	(-2.0239456645193883, 5.0851281128506116)	(4.7930297958842019, 3.0747610574876862)	(-3.1951445081962326, -5.4365407668574992)	(8.4333996751320264, -3.9652455325714735)	1.0	z	1.24902
18	M	A	B	A	N	M	N	B	N	8	3	shapes	A	7	False	122	(-1.9706781053048656, 2.6110074215009966)	(-2.4253892730394959, -4.4873906869057638)	(7.8301460840865502, -7.3122560872012876)	(4.2635191134510038, -3.3666037913635307)	1.0	slash	0.472228
19	N	B	A	N					A	4	2	shapes	A	7	True	122	(-6.695546813413813, -8.0063288605444445)	(2.0056778681446623, 3.0060352645825112)	(-1.1243487438058626, 7.4434087051076574)	(8.1957379627179492, -4.2122223989909111)	1.0	z	0.964208
20	M	A	M	N	N	B	B	A	A	8	2	shapes	M	7	False	122	(-6.6967481772890434, 0.38830604380524036)	(-1.7997893935832714, -4.7475652004482614)	(0.57231285441517699, 6.5115878428868452)	(1.6861932508783983, -8.1021275438012452)	1.0	slash	0.702014
21	M	A	A	M					B	4	1	shapes	A	7	False	122	(-5.6566261521049519, 7.6320386041365644)	(-8.496327499446096, -0.85621877229088028)	(8.6935059529363521, 6.7227156847405247)	(4.1358358944898761, -1.2485386809287533)	1.0	slash	0.675233
22	M	B	M	A					N	4	2	shapes	M	7	False	122	(7.1403198148392466, 0.42525350501622761)	(0.023777793484610399, -7.3354682198000809)	(-5.9718999110841668, 7.5583670542526278)	(-8.1671476788521673, -5.4810680562800336)	1.0	slash	0.555339
23	N	B	B	A	A	M	M	N	N	8	0	shapes	N	7	True	122	(-6.754624768914713, 0.3943327496794673)	(-6.3393471473434548, 6.0313924048471357)	(4.5347551334270584, -1.1062645865723404)	(3.0098987506920878, 5.1799205400960684)	1.0	z	0.998832
24	N	B	M	B					M	4	1	shapes	B	7	False	122	(2.8906308511489591, 2.7871633064269723)	(-3.2038908446499033, 3.2089421275951437)	(-1.6556634940450881, -7.8916780528105406)	(3.9615022516488967, -8.001541020449114)	1.0	slash	0.519095
25	M	A	M	A	B	N	N	B	N	8	2	shapes	M	7	False	122	(6.0644060248324507, -2.911363160140052)	(-5.2859596385156866, -6.8067281236050174)	(-3.9596196005073123, -2.0603526477455416)	(0.68877553875209152, -6.0080579030916432)	1.0	slash	0.720756
26	N	B	M	M	A	A	B	N	A	8	1	shapes	B	7	False	122	(2.7008142190166762, 2.5585532244834504)	(-5.7309526530045041, -6.0010265511393301)	(7.8795965409503026, -2.6738070418788311)	(-1.377127970305434, 0.48627490035667087)	1.0	slash	0.953758
27	N	B	B	N	A	M	A	M	N	8	0	shapes	N	7	True	122	(7.7712232163503288, -0.4353627365991688)	(0.72306467225256199, -0.9303751493500787)	(-2.5100484989025436, 1.9655835534000161)	(-2.8588888547747668, -4.4316095434701204)	1.0	slash	0.627665
28	M	A	B	B					B	4	2	shapes	B	7	True	122	(3.3093723686524719, -2.1515649539491486)	(-8.2539810804346949, -1.837915271300556)	(-1.857696703347723, 7.4803111481064057)	(5.5523337936769845, 1.5285707914759445)	1.0	z	0.751005
29	N	A	M	A	M	B	N	B	M	8	2	shapes	M	7	True	122	(-0.73716630421849416, -7.1713289471576971)	(-8.1146709110011557, -0.88595025953877471)	(6.8214832845461046, -4.9261599581209454)	(3.4579449081141238, 0.16486904321230966)	1.0	slash	0.508667
30	N	A	M	A					A	4	1	shapes	A	7	True	122	(2.759960494858662, -5.2820300992220455)	(-3.0377910348132922, 4.072646278427781)	(-3.4360058095357218, -3.5065642926939402)	(1.4493920788493817, 8.551654953225384)	1.0	z	0.904442
31	M	A	A	B					B	4	3	shapes	B	7	True	122	(7.4154924398324731, 8.2088853947639322)	(-1.0957543053641432, -3.8098846852798811)	(-0.61441996330793991, 2.1116472668200164)	(3.1034332376991767, -5.649175039929843)	1.0	z	0.814196
32	N	A	N	B					A	4	3	shapes	B	7	False	122	(-7.272472921838836, -6.5979820020649163)	(-1.3248751880817613, 4.3946237933539276)	(4.6973854502813488, -0.60754718343888214)	(2.3878053566502953, 5.9661052961480028)	1.0	z	4.07809
1	M	B	B	A					N	4	3	shapes	A	8	False	122	(-5.4229039347574144, 4.9434647208772979)	(3.3683846898219532, -3.7445667065148536)	(-0.97126194603464189, -0.91351654822385342)	(5.6594490309988394, 7.4951887869644693)	1.0	slash	1.21921
2	M	B	A	A					M	4	0	shapes	M	8	True	122	(-2.0306847592738473, -8.7490712561405548)	(8.2213842686836998, -6.5544029444288583)	(-0.2023194998228508, 2.9666678871993923)	(7.9338130865646619, 3.2599810686819453)	1.0	z	0.919318
3	M	A	A	M					M	4	3	shapes	M	8	True	122	(-1.434580632437366, -5.2118722995431739)	(5.727737522895227, 0.9250850295417834)	(-3.0427670797321067, 1.8038931011711981)	(2.7446236030797291, -2.5641785820306442)	1.0	z	0.582411
4	M	A	B	A					A	4	3	shapes	A	8	True	122	(-5.2990112633382864, -7.6709896979905015)	(3.1935270033078158, 6.7754194910050227)	(-4.0821078805718365, 8.3336968163748431)	(6.722167436740996, -6.2992861969679996)	1.0	z	1.70811
5	N	B	B	N	M	M	A	A	A	8	5	shapes	M	8	False	122	(5.2776738552383673, -4.6216991795283571)	(-5.2331207666488542, 6.2769652244689915)	(5.7133181752905564, 6.6203227069444619)	(1.5702585944269654, 5.6291363018905916)	1.0	slash	0.503628
6	N	B	N	M	A	A	M	B	M	8	7	shapes	B	8	False	122	(5.3640725719680962, -4.2329520026047529)	(-8.4550009705875038, 6.5796606573845935)	(3.5951981147768812, 2.6013125549884535)	(-0.14485603956864779, 4.6176662386023342)	1.0	slash	0.90897
7	M	B	M	N					B	4	1	shapes	B	8	True	122	(5.6980767742665339, -6.2288491863228224)	(-6.3956187608745818, 1.7916522937713104)	(5.0008308175813809, 7.8867730703783181)	(-5.9303052107960088, -8.3382773594227722)	1.0	z	0.76901
8	N	A	A	M	M	B	B	N	B	8	6	shapes	B	8	True	122	(4.9196745870326204, 8.5834060026218211)	(-4.5775867135757737, 4.5876798075389402)	(-0.39452090631129977, 3.3815706619215202)	(-3.3045257984057583, -0.55555312329395434)	1.0	slash	1.07474
9	M	A	M	B	B	A	N	N	M	8	2	shapes	M	8	True	122	(-0.62991380519516049, -5.7749795941318105)	(6.7020925289008009, 7.1973958775707736)	(-7.3342455703172806, 7.9763361262453714)	(-0.37054969682687222, -0.21635304611450223)	1.0	z	0.996227
10	N	A	N	M					N	4	2	shapes	N	8	True	122	(7.2053414794099222, 6.5123786659198029)	(0.014830855098409756, -3.6894038995690774)	(-2.9371211998368869, 6.5832107363078922)	(-5.9197270004199041, -5.530627149791993)	1.0	z	0.765963
11	M	A	N	B					M	4	0	shapes	M	8	True	122	(-8.2723131243645653, -4.7857323398752971)	(6.6483153530028094, 7.3753411689856527)	(4.1340063719577778, -0.44904359590569243)	(-8.4449065666891734, 8.0842223660010184)	1.0	z	0.748146
12	N	B	A	M	M	N	A	B	N	8	0	shapes	N	8	True	122	(0.11238225169141991, -6.5277474428539426)	(6.9210308018756859, 4.6260590332054861)	(4.9100289289929098, -6.5132913370369607)	(3.8836384596084077, 8.5888797058398971)	1.0	z	0.695315
13	N	B	A	A					N	4	1	shapes	B	8	False	122	(2.0709023483681843, 4.4251633003065098)	(5.8045754146633914, -7.5994633261186575)	(-3.0389889456081249, 1.9635697367627021)	(-4.6829614693474237, -5.6970439668409361)	1.0	slash	0.458969
14	M	B	A	M	A	N	B	N	M	8	0	shapes	M	8	True	122	(-0.30453520412099344, -2.2211607636645896)	(6.4607272473924606, 7.5349649199328539)	(-0.24147452028848804, -8.4205706045330775)	(3.838681429994482, -3.8112490716443865)	1.0	z	0.673861
15	N	A	B	A	M	N	M	B	A	8	4	shapes	M	8	False	122	(-2.5148319281246234, -4.3684503785361768)	(1.5397716529127994, 0.26830476412699156)	(-5.3400789548539667, 2.5416610781632514)	(-6.1135536922696332, 7.0034981847035755)	1.0	slash	0.660138
16	N	B	M	B	N	M	A	A	A	8	7	shapes	A	8	True	122	(-1.0069744293199667, -1.7541978514509733)	(-5.6067519695595518, 7.518665684603846)	(4.3602019629472863, 8.1253491288958948)	(-4.7011119584759928, -4.9218450483085139)	1.0	z	1.3781
17	M	B	N	B	N	A	M	A	N	8	7	shapes	A	8	False	122	(-7.8702848884852425, -7.6009102499082593)	(-4.3410169278513644, -1.5586652319587655)	(6.6373380454291802, 0.5396144650998842)	(-8.0486318926575819, 3.5940933658581109)	1.0	slash	0.631354
18	N	A	B	N					N	4	0	shapes	N	8	True	122	(7.6904156118757037, 5.5269573769340923)	(6.1083117115825107, -7.4529654170374418)	(-3.0746922784753075, 4.5035659283023399)	(-0.76356045244192927, -3.5777752529813247)	1.0	z	0.60124
19	M	A	A	N					B	4	3	shapes	N	8	False	122	(7.2223579026852711, -7.5893381288443038)	(-7.5230230240087712, 0.76493091721474293)	(6.7731011982837916, 1.7808549051633396)	(-5.9154223092760159, -4.6252237425591476)	1.0	slash	0.807061
20	N	B	M	B	A	A	N	M	N	8	0	shapes	N	8	True	122	(-0.39817379489817561, -6.3821959447807783)	(3.9970710375934217, -5.2778295358700174)	(5.5932201083429636, -0.36138917961871186)	(-8.0617714826688402, -1.9632838091857918)	1.0	slash	0.582559
21	N	A	A	M					A	4	0	shapes	N	8	False	122	(4.8171018096795635, 4.4276735504573868)	(-4.1583106040992384, 0.51732707023814406)	(-7.5545727609141098, -3.2993380163471109)	(0.99477000756345291, -3.5180042249297463)	1.0	slash	0.482225
22	N	B	A	M	N	M	B	A	A	8	3	shapes	M	8	False	122	(7.4007914310194209, 6.9033866401719326)	(7.6350191402731724, 0.18801272758092935)	(-8.2719347535790337, -5.2851346168257169)	(4.6321555027086223, -3.4248291055136688)	1.0	slash	0.473719
23	N	B	A	A					B	4	1	shapes	B	8	True	122	(4.3621539460555852, -0.92639973159503786)	(0.058471308078598128, 0.18571785827650089)	(-0.42988651820375701, -4.9506098752172658)	(-3.9053533403047149, 1.4171746274991808)	1.0	slash	0.594675
24	N	A	A	N	B	B	M	M	M	8	0	shapes	N	8	False	122	(-7.8356488724758959, -3.5548165561624092)	(-5.5811978904116355, 5.0079352291370203)	(1.4146871967044774, -7.169770713752607)	(3.1790788358501523, -0.18517875131471051)	1.0	slash	0.446357
25	N	B	A	N	B	M	M	A	M	8	1	shapes	B	8	False	122	(-7.2213371761965686, 8.0060309135056613)	(3.7660517183151185, -3.083020870410059)	(0.68437641100191549, 6.2344633720481841)	(-3.0515059093103787, -7.3629567946569061)	1.0	slash	0.567581
26	N	B	B	M					M	4	0	shapes	N	8	False	122	(-7.7622872193524559, -5.7516610819574421)	(-1.5489719809724889, 5.7063149484881102)	(4.172888801545378, 6.4799059072282059)	(0.29193892358189899, -8.3018926284986918)	1.0	slash	0.73456
27	N	B	N	B					M	4	2	shapes	N	8	False	122	(-0.92654047293228103, -3.6587902260019423)	(3.1125584577184213, 6.1305270382780499)	(-7.4864519238128322, 4.5513830289757085)	(0.80354854838655498, -7.6329735151534273)	1.0	slash	0.564799
28	M	B	N	A	A	B	M	N	M	8	0	shapes	M	8	True	122	(0.12658936439492585, 5.1434132411035254)	(-6.7876441110238339, 1.8505799888630445)	(-5.7933394052798732, 8.095262579947395)	(6.4573700855997682, -2.3774239148946714)	1.0	slash	0.56375
29	N	A	M	M					A	4	0	shapes	N	8	False	122	(8.4375871957264152, -8.262327753103758)	(7.4705977257511549, 0.60160453910472178)	(-1.3657118399399915, 5.3067061172267564)	(-8.066006585023743, -6.7053641083131446)	1.0	slash	0.52169
30	N	A	A	B	B	N	M	M	M	8	7	shapes	M	8	True	122	(-1.3860316108252286, 5.2289080357390194)	(6.5982928038884889, -0.026242652733477811)	(-4.5523145198172905, 7.6791700839638786)	(-8.1217086583961837, -5.5915286381127682)	1.0	slash	0.475738
31	N	A	M	M	A	N	B	B	B	8	4	shapes	A	8	False	122	(6.761098018353719, 0.70631897330739335)	(-0.060474584137622855, -6.0293134895949612)	(-5.4432994534357446, -8.1353425772462806)	(-1.288354963954796, 2.4247250396832083)	1.0	slash	0.552785
32	N	B	N	M					A	4	0	shapes	N	8	False	122	(-7.9630104294291684, 6.3640500361183676)	(-7.8413118436405727, -7.6342371300286063)	(8.5799543162551579, -4.9201673954556142)	(2.0260370318356742, 0.66627959113369251)	1.0	slash	0.660095
