TrialNumber	stim0	stim1	stim2	stim3	stim4	stim5	stim6	stim7	stim.probe	ttl.stims	corr.num	trial.type	stim.corr	block	match	Subject	stim.pos0	stim.pos1	stim.pos2	stim.pos3	ran	resp	RT
1	N	A	N	M	A	M	B	B	M	8	1	shapes	A	Practice	False	123	(-6.6417752460033164, -3.1067444849503678)	(7.44900013977011, 3.0468408199141948)	(-5.0605580555145941, 7.7227270598134119)	(6.3399251756788466, -4.8733688922405953)	1.0	z	3.48288
2	N	A	N	M	M	B	B	A	B	8	7	shapes	A	Practice	False	123	(-3.1309705824986187, -0.30082212047439505)	(-3.7611109227560906, 5.4323975531649573)	(0.19330513805057414, 6.2187177901595287)	(-2.3317888971511422, -7.7971666507842317)	1.0	z	2.90819
3	M	A	B	N					A	4	3	shapes	N	Practice	False	123	(8.5997109555296944, 0.66459182332339672)	(-3.028282922904511, -7.041001671072066)	(0.6136689392884751, -2.6674660195006119)	(-8.7349177187232723, 4.5342431394553593)	1.0	slash	1.98218
4	M	B	N	B					B	4	1	shapes	B	Practice	True	123	(0.68082083253915648, -1.4530310900492864)	(-5.442504935792396, -5.3452853394428423)	(-8.091040080412883, 3.5520257299445817)	(0.22248724171410927, 7.6155030517933398)	1.0	z	2.69746
5	M	A	M	B					A	4	3	shapes	B	Practice	False	123	(8.7128500688418171, -2.7198900665317973)	(-5.2849380784626181, 1.8178604132883525)	(3.6943087639437575, 5.6362440544144707)	(-0.12353003231917725, -1.6355964477545788)	1.0	z	1.56534
6	M	A	A	N	M	N	B	B	M	8	0	shapes	M	Practice	True	123	(4.2999255873588336, 2.5763002484254027)	(-6.6549653516572107, -6.7439092384144033)	(-0.27224517150925287, -2.3781628651609088)	(-2.3129621403256939, 7.5255222624057012)	1.0	z	3.08625
7	M	B	M	A					M	4	0	shapes	M	Practice	True	123	(-5.5291080874898677, 5.4506483989099834)	(-4.2904938909748997, -7.4185701996512687)	(8.3328423978283972, -1.5405274163228118)	(0.87718908458194633, 2.3905820675227858)	1.0	z	1.6385
8	M	A	A	B	B	M	N	N	B	8	3	shapes	B	Practice	True	123	(-3.7082910239980151, -7.0077984482491384)	(2.093049334865249, -4.0923388466093646)	(-3.2443250553442313, -0.87041898303812193)	(4.1460925068198531, 1.3591276791710456)	1.0	z	4.64936
1	M	B	B	M	A	N	A	N	A	8	1	shapes	B	0	False	123	(-8.5335364192777234, -8.0160315006602332)	(-0.74259828354639978, -4.6681557452925402)	(-8.3133603788608816, 2.0571611866525288)	(3.8487457156750935, -6.4898763476108137)	1.0	slash	1.59578
2	N	A	A	B					M	4	1	shapes	A	0	False	123	(-7.2439284480756285, -5.930664459564829)	(-6.33836455605877, 6.390663447748052)	(5.8713268083982122, 8.1478595814161103)	(4.9034470537489874, -5.4491374414604987)	1.0	slash	1.06244
3	M	B	B	A	M	A	N	N	B	8	0	shapes	M	0	False	123	(6.1576976697741479, 3.2783986792823345)	(-7.3833755914610286, -0.5866921283401485)	(-7.0932150738447897, 7.722698551243429)	(5.6502134065358831, -8.0934067756236061)	1.0	slash	1.21382
4	N	B	A	N					N	4	3	shapes	N	0	True	123	(5.6982869056993621, -2.0409364387118796)	(-0.41719542322246461, 2.3673994257961368)	(-0.96238228176485041, -8.1758187140980745)	(8.2580257216873605, 3.14199460912684)	1.0	z	0.87548
5	M	A	M	B					A	4	0	shapes	M	0	False	123	(6.5332883691625678, 1.3210451445833247)	(-5.8419892620410323, -7.4267136251066086)	(5.0461285320431628, -3.5179763801903787)	(-4.4671125270871093, 7.5047478813658728)	1.0	slash	0.936913
6	N	B	N	M	B	M	A	A	M	8	1	shapes	B	0	False	123	(3.039714429487006, 8.6751498978626991)	(-4.1125326745783761, 8.2743288131224695)	(1.2641820696198121, 0.66366114058599734)	(-8.0519960162961901, 1.5422538626292717)	1.0	slash	1.1529
7	N	A	B	B					M	4	2	shapes	B	0	False	123	(-8.616173001797188, -6.280760464336586)	(0.17482923613821022, 3.3306491114198842)	(5.2187979353427334, -8.5309003352984512)	(-6.7822342832655842, 6.1026992264412616)	1.0	slash	1.25846
8	N	B	B	M	N	M	A	A	N	8	1	shapes	B	0	False	123	(5.0298201411877734, 2.1842929985917845)	(-8.542602527702007, -0.31454801119429376)	(-8.5802812994458826, -5.913613853143362)	(-1.400794541276726, 4.6062730390931161)	1.0	z	1.59891
9	N	A	M	N	B	A	M	B	M	8	6	shapes	M	0	True	123	(3.672106766311833, -0.14007726507007412)	(6.8528456793052968, 4.3979984630489479)	(1.895712490860852, 7.685063722380896)	(-3.4567661365567828, 2.3505535439149359)	1.0	z	1.36369
10	M	B	B	M	N	A	N	A	B	8	1	shapes	B	0	True	123	(-5.5650147980926867, -3.4723675591030041)	(-1.2013499089854198, -8.2364520869955324)	(3.2062350734794247, 1.3411683111908523)	(-2.5864848075632789, 3.863533442461776)	1.0	slash	2.99043
11	M	A	A	N					B	4	0	shapes	M	0	False	123	(7.4935967594336148, 8.511422371910907)	(-7.3399980344399607, 6.8564171561222853)	(-1.316140585160424, -4.3364536150089998)	(1.7202850845541828, -7.9383381251008647)	1.0	slash	0.929312
12	N	A	B	B					B	4	2	shapes	B	0	True	123	(8.6758234873316127, 1.592993013693274)	(-1.703251409193288, 4.222200250431456)	(-7.6038499449116053, -2.5197283770281445)	(4.2619071544403724, -0.64416941539058215)	1.0	z	1.19035
13	M	A	B	B					B	4	2	shapes	B	0	True	123	(8.3349762843735959, 3.2703336023855982)	(4.3804492988013433, -7.8455638879307656)	(-0.054998467997821265, -6.2179557355405963)	(-6.8844649271478646, 4.6379151246331212)	1.0	z	0.873285
14	N	A	M	A					M	4	3	shapes	A	0	False	123	(-6.0876669587440997, 4.6819036740033244)	(-4.6432311596685727, -6.888952633879259)	(2.1488937684574694, 0.78608385303027895)	(6.2237778221239033, -3.8890971750796339)	1.0	slash	1.00237
15	N	A	N	M	M	B	A	B	B	8	5	shapes	B	0	True	123	(0.36108065553173141, 1.1115145050207804)	(4.2970413242229561, -7.5975605468349325)	(-1.5948707521359546, 5.1932326071289996)	(0.042909058623134655, -3.5226914377449576)	1.0	z	1.29534
16	M	B	A	A	N	N	B	M	B	8	5	shapes	N	0	False	123	(-2.8326751666525869, 7.2865197578518952)	(-7.3944092612137746, -2.0485245469516471)	(-2.8426320248755683, -0.97805560427007521)	(2.0773728459574876, 7.8399613414091256)	1.0	slash	0.9972
17	N	A	N	M					N	4	3	shapes	M	0	False	123	(-8.1503313247779907, -1.0891866164912258)	(8.1375533378579625, 1.1397707177877585)	(2.7906234833974697, -3.0508723782167149)	(-4.8469027168984864, 1.2531227109720202)	1.0	slash	1.27308
18	N	A	N	A					N	4	2	shapes	N	0	True	123	(3.6491324598973698, -4.2277270559617532)	(8.2232278249201158, 0.025182989283008439)	(-7.1990966181969149, 7.0827234474464174)	(-3.753273773697126, -0.29935224776754588)	1.0	z	1.43653
19	M	A	B	B					M	4	0	shapes	M	0	True	123	(-5.4098712923867129, 7.0385312428289755)	(-7.5815526771916382, -2.516242563289488)	(0.30736765982779346, -5.7784232044971251)	(2.1861046571501088, 7.4205168812871669)	1.0	z	1.18184
20	M	B	B	M	N	N	A	A	B	8	1	shapes	B	0	True	123	(-4.4490038745623481, 2.6211651638823472)	(2.3115452104630254, -1.2334083144664589)	(-0.23441889030100604, -6.0663042294105454)	(5.0434333297017915, 6.9838460886271783)	1.0	z	0.963372
21	N	B	B	A	N	A	M	M	M	8	6	shapes	M	0	True	123	(0.13896150748368541, -7.1217555204918543)	(-5.7580971137739247, 3.5787541884403176)	(-5.6705628576692551, 8.0355266415044575)	(6.9354153899248381, -4.1631496069812775)	1.0	z	0.867756
22	N	B	N	B					N	4	0	shapes	N	0	True	123	(-5.4942937800262914, 3.9537085984920441)	(3.5955268403903577, 1.9114234948304638)	(-1.6119611525401414, -5.6985160751313568)	(7.6358651914167055, -2.5487573307532205)	1.0	z	0.940812
23	N	A	A	B	M	N	B	M	B	8	6	shapes	B	0	True	123	(-7.5703710357770344, 5.3794273952333143)	(6.4922069405466729, -7.3021663126893088)	(-7.3942514227602736, -8.4682464756807256)	(-0.066299207094168366, 3.4384556994153854)	1.0	z	0.994313
24	M	A	B	B	N	A	M	N	B	8	7	shapes	N	0	False	123	(-4.0319568419519811, -6.5027156145893006)	(-2.8294276808936907, 7.1009528547784537)	(1.4005905332957926, 4.8352915195635529)	(-8.5840148286575406, -2.9495860315445404)	1.0	slash	1.23015
25	N	A	A	B					A	4	2	shapes	A	0	True	123	(1.2825346292504456, 7.6216616965434909)	(1.3037673615656988, -7.2235304791788542)	(-6.2643637338576266, -7.4254985016109876)	(-7.1498316939483377, 1.2699533463254706)	1.0	slash	1.16201
26	M	B	B	N					B	4	2	shapes	B	0	True	123	(0.99084474624907592, -0.94735185912294284)	(-7.0663349168586382, 4.4083091006995012)	(4.8425715959264473, 3.7740608915089826)	(-8.2308280636831732, -8.570572620844489)	1.0	z	1.01046
27	N	B	M	M					A	4	3	shapes	M	0	False	123	(-1.9005866808063772, 5.263330988015781)	(2.267166641394839, 0.15599096727715711)	(3.4703292160045525, -6.5770650149090155)	(-4.8547337245032498, -4.4345414979231439)	1.0	slash	1.82119
28	M	A	M	B	A	N	N	B	M	8	3	shapes	B	0	False	123	(1.0106548848687957, -0.97803139101042458)	(7.6387294266021435, 1.4105554026295426)	(-6.6242113810769823, 2.778183014196534)	(-1.7433609090524316, 8.6555500871332178)	1.0	slash	0.882511
29	N	B	A	M	M	B	A	N	M	8	3	shapes	M	0	True	123	(1.7825630554556948, 1.4516061177063033)	(8.0170412706357688, 4.2984699403691042)	(-3.4538460410022775, -0.62804729586896713)	(-4.9221174206542084, 6.8144968350371347)	1.0	z	0.770596
30	N	B	M	B					N	4	1	shapes	B	0	False	123	(6.0107896959149407, 1.2661246347680422)	(-5.72888227924527, -3.0976677172012934)	(-0.44167806621414307, 2.2057270903186819)	(7.3157702411107586, -3.557024385576792)	1.0	slash	0.802073
31	N	A	A	M	M	B	B	N	A	8	2	shapes	A	0	True	123	(4.4498362462321861, -3.7089942024465223)	(0.34831584605833221, -3.6493682761076967)	(-5.0659888618514763, -7.8257961708626675)	(-6.6103033523228518, 7.4966808745862501)	1.0	slash	1.1153
32	N	B	B	M	M	N	A	A	B	8	4	shapes	M	0	False	123	(7.8368722712147516, -5.7892493402469238)	(-3.1411386626982045, -7.3070322311173346)	(3.4028502469180815, 6.2275808282967748)	(-8.2607862466560213, 6.1371361224878989)	1.0	slash	0.887743
1	M	B	A	M					B	4	2	shapes	A	1	False	123	(-2.9666993313054437, 3.4579680494563156)	(-3.9283936273971696, -2.356047053277857)	(8.6224020512198081, 6.5578466221225931)	(2.2886827855163485, -2.8495636394735264)	1.0	slash	0.867302
2	M	A	A	N	M	B	N	B	N	8	1	shapes	A	1	False	123	(0.082564777089435992, -4.8781662382579025)	(-0.11877318657623626, 7.9901708527353428)	(2.7609304442012945, -1.7411478362540782)	(8.0645922359515438, 0.3033136522805151)	1.0	slash	2.7718
3	N	B	A	B					A	4	2	shapes	A	1	True	123	(-0.15041247224553089, -5.0194932660705431)	(-5.2636064838208805, 8.1397802404807713)	(4.9726549735615126, 3.6605828115854351)	(8.3798207349760112, -2.0510692043692336)	1.0	slash	1.97766
4	N	B	N	A	M	B	A	M	B	8	2	shapes	N	1	False	123	(-4.8867312001893035, -2.1886986601033387)	(0.75309931984960343, 4.4465231557199782)	(7.1316429413134586, 3.6411221426128098)	(7.7503597999976925, -5.8163725312260226)	1.0	slash	1.32242
5	N	A	B	N					N	4	3	shapes	N	1	True	123	(-1.7633592915582712, -4.442921731941313)	(7.1625179489760864, -3.3161446280967617)	(6.8741789108295617, 4.5651730686979963)	(-0.38437501655773687, 2.3859048221430843)	1.0	z	0.540287
6	N	A	A	M					B	4	1	shapes	A	1	False	123	(7.4771907037748875, -7.0089808761132213)	(-2.5396214024175725, 8.1886399407646131)	(-5.8095027478653893, -7.3000696807707701)	(7.839995970217629, 8.6899808897156667)	1.0	slash	0.830976
7	M	A	A	M					M	4	0	shapes	M	1	True	123	(8.4571919673672262, -1.7804688173312213)	(-2.2254308400693805, -7.6529291608227723)	(1.7601649240000388, 6.712199575279465)	(-2.5021123224412474, 3.3554119582101674)	1.0	z	0.914792
8	M	A	A	B	N	N	B	M	B	8	4	shapes	N	1	False	123	(5.3809752029433202, 7.2665246381525854)	(6.7821405387746889, -3.7061734968353059)	(-8.6542872441629601, -4.0878417757986982)	(-0.045258474450694308, -6.5202725257228087)	1.0	slash	0.686974
9	N	A	M	A	N	M	B	B	M	8	6	shapes	B	1	False	123	(0.64692438802773822, -6.8534805104736289)	(3.2268995689084186, 3.9603575915239748)	(-4.5351358363357184, -2.3928750854619372)	(-4.8684558303540761, 3.8427428528976613)	1.0	slash	0.632032
10	M	A	B	B	N	A	N	M	N	8	4	shapes	N	1	True	123	(5.4675205551644108, 4.6509374845187335)	(-1.7919661724923914, -5.3708715762525259)	(3.8363785965451633, -1.1624388043384863)	(-5.4618779705140552, -7.0503384659526658)	1.0	slash	0.87401
11	N	B	A	B	N	A	M	M	B	8	1	shapes	B	1	True	123	(-7.4358472726527047, -3.5780307220660426)	(2.2795679031062157, 1.4976743778357928)	(-1.3471586656141037, 7.8879551913455934)	(0.71469010446121217, -2.5102664279014375)	1.0	slash	1.05857
12	N	B	N	B	M	M	A	A	M	8	7	shapes	A	1	False	123	(-3.9803233366553172, -4.713534326271307)	(2.8516012883303326, 0.015971842350641197)	(-5.0982343324725647, -0.60026539244555366)	(-0.62121497375201074, 3.7397074397691377)	1.0	z	1.4267
13	N	B	A	N	M	A	B	M	B	8	6	shapes	B	1	True	123	(5.8522167824471403, 5.976532621086605)	(-3.7271708824740841, 0.94614385706395687)	(2.7504016198582697, -1.6981758855372524)	(-3.5048443129045728, -6.9669210505158858)	1.0	z	0.870153
14	M	B	M	A	A	B	N	N	A	8	6	shapes	N	1	False	123	(-5.4842206018373849, -7.6068748142429525)	(-6.7641059076235228, -2.0907812038580449)	(0.67089151074229925, 1.8700759059423788)	(-4.8286753633605963, 4.8625430797229789)	1.0	z	2.10591
15	N	A	A	B					B	4	3	shapes	B	1	True	123	(5.8129435167844274, -6.208843891848888)	(4.5943339122356743, 2.2449661570930246)	(-3.215768381721313, -0.50261336063970852)	(-6.5850729656695046, 6.4875381322688384)	1.0	z	0.981832
16	N	A	B	A					M	4	2	shapes	B	1	False	123	(2.5663281006987084, -5.7687523013667112)	(-4.6435134091459407, -4.1600882428394632)	(4.8091408804667548, 7.7664548165037317)	(-0.60552081474980568, 7.1016657785953896)	1.0	slash	1.31312
17	M	A	A	B					M	4	0	shapes	M	1	True	123	(1.7472680073601694, 3.1768083194625447)	(7.3441438684386071, -5.3471874202312213)	(-6.979743167832094, -4.9609006490849907)	(-6.2916754300129805, 0.69776244632982554)	1.0	z	1.22867
18	N	A	B	N	M	A	M	B	M	8	6	shapes	M	1	True	123	(-2.5884358088967199, -2.274858464383299)	(7.9501876384893606, 2.8549557445217424)	(-3.3627769156612661, 7.4702920155623751)	(-2.8832751803991377, -7.1911769092288758)	1.0	z	0.914222
19	M	B	M	N					B	4	1	shapes	B	1	True	123	(-3.4049509799150384, -1.3195839525079611)	(7.1115526405436569, -5.5128087117759046)	(5.6492094817908391, 0.3394944752245852)	(-3.691679687217241, 8.6109322657564462)	1.0	z	0.854473
20	N	A	N	M	B	B	A	M	M	8	3	shapes	M	1	True	123	(3.9208667638095225, -6.4997267677556163)	(4.4681514383762497, 8.3861994347191349)	(-1.6964970444068177, -1.6002941058509954)	(-8.2285635833102511, 2.4228447669658308)	1.0	z	0.933459
21	N	B	B	N					B	4	3	shapes	N	1	False	123	(-0.066808034031778263, -3.129903640779454)	(-5.707498935484038, 2.581406611528946)	(8.7055366137267178, 7.169380263821445)	(5.9795943219668768, -5.7437049417471595)	1.0	slash	0.893828
22	N	A	A	M					A	4	2	shapes	A	1	True	123	(-0.26358932778424915, 5.6653299971448607)	(3.1181404899171277, -5.0606985069462791)	(-0.47554316978146005, -7.9376295491598734)	(1.66511538357768, 1.5422816829275448)	1.0	z	0.778746
23	N	B	N	B					A	4	3	shapes	B	1	False	123	(-4.004114867347675, -2.4148998890896127)	(-8.5839952378939497, 4.4208890641512468)	(1.5871612433251041, -1.6700644378892644)	(2.4171549117189919, 3.4690983235573736)	1.0	slash	1.127
24	M	A	B	A	M	N	B	N	A	8	4	shapes	M	1	False	123	(0.41804332955474521, 1.3885530820560597)	(4.6701348742621001, 8.6570968210943313)	(-3.7679486487086686, -6.3362208044725516)	(0.25353354762688873, -7.2181758402808303)	1.0	slash	1.7283
25	M	A	B	N	B	A	M	N	A	8	5	shapes	A	1	True	123	(3.9528015899607816, 7.4114983974031325)	(3.0644438613229656, 2.5316731333525766)	(-8.4082498728310071, 7.5798650268160195)	(7.2315923544184795, -7.8269897524957734)	1.0	z	0.850711
26	N	B	M	B	M	A	A	N	A	8	2	shapes	M	1	False	123	(-6.4561829416992342, -0.22940661322467193)	(0.39787256441851504, -3.4436801407358431)	(8.0608676786669839, -5.0372114689359773)	(-6.5975908558173177, 5.0830149719284385)	1.0	slash	1.76719
27	N	A	N	A					B	4	0	shapes	N	1	False	123	(4.0976877495692214, -6.2814495152346055)	(2.9453129778965721, 5.6117437719148722)	(-4.1250999219961422, -3.6224377597687933)	(-6.3978766620547498, 3.8070096240257723)	1.0	slash	0.936773
28	N	A	N	B					M	4	2	shapes	N	1	False	123	(-7.6496487623220268, -0.67397399541720659)	(4.7964055379921913, -2.2170861722973871)	(-3.9887440617384113, 1.2590349626392197)	(0.64898810403676421, 3.1404769245157471)	1.0	z	1.03065
29	M	A	N	A					A	4	0	shapes	M	1	False	123	(0.3563910618592292, -1.0576376443248705)	(1.3920146694462883, 4.0553595264098412)	(-7.9098689413933911, -6.5078669654487058)	(-4.008920051333507, 0.89309593507617002)	1.0	slash	0.978258
30	N	A	A	B	M	N	B	M	N	8	5	shapes	N	1	True	123	(-0.27127287466058547, 5.4394758852897489)	(6.2668144618715971, 8.0184601708837953)	(2.4657633165801798, 0.38953273229614815)	(-1.9140399851427379, -5.3990318520328593)	1.0	z	3.19168
31	M	A	M	N	N	B	A	B	M	8	0	shapes	M	1	True	123	(4.1789395013915236, -2.9521885317992975)	(-2.740470387436222, -7.4831152003099586)	(-2.4552705492228659, 3.9350428326549611)	(-4.3716352716750384, -1.8543917114058184)	1.0	slash	2.03532
32	N	B	N	B					N	4	0	shapes	N	1	True	123	(-2.9783617553612087, 3.9355613439518162)	(3.8902791268211825, 8.3643833368955853)	(-7.9830176881310972, -6.9120085745849691)	(4.9715401818828777, -1.9798787529013673)	1.0	z	0.846644
1	M	A	M	B					A	4	1	shapes	A	2	True	123	(3.3192559270945861, -7.5212221025463402)	(-8.2304448480583154, 4.3703257167586038)	(-8.3777429950990836, -3.0052801178670681)	(4.397170120706738, 3.2589041840563038)	1.0	z	1.48671
2	M	A	N	B	M	B	A	N	N	8	4	shapes	M	2	False	123	(-2.825492771935334, 6.7311463764974633)	(-1.2619393427214769, -5.4105305690962986)	(2.8289577152096701, 8.602042195412551)	(6.7938143514966693, -5.6603975922430649)	1.0	slash	0.904233
3	N	B	A	M					B	4	1	shapes	B	2	True	123	(7.8539683047986131, 0.11623285468822431)	(-6.4446857609517529, -0.2419927271164628)	(2.8402619795630724, -2.5897093111259881)	(-0.40771539801984247, 2.456095728366483)	1.0	z	0.955408
4	M	A	B	B					M	4	2	shapes	B	2	False	123	(2.2843683881333234, -2.2184876758268404)	(0.45583288050449866, 4.7211240913759198)	(-7.372736102500272, -8.2266264067576333)	(-6.7598524536210221, 1.5200250099156012)	1.0	slash	0.65395
5	M	A	N	M					N	4	2	shapes	N	2	True	123	(-1.6390395160725104, 7.2215267662715323)	(7.4283747363517705, 2.5570612589703092)	(3.0570819149447868, -2.2006505759918067)	(-5.2737222764133227, -5.022371175106163)	1.0	slash	2.20741
6	M	A	N	A	B	M	B	N	M	8	1	shapes	A	2	False	123	(8.2714750185366128, -5.8596847525844957)	(5.700022002568117, 3.0584947284691353)	(0.96826658897384554, 0.043244859323356977)	(3.0374059544850383, -7.2600262234083246)	1.0	slash	0.96847
7	N	A	B	B					M	4	2	shapes	B	2	False	123	(6.0717663715498027, -4.6707883567154793)	(-1.4157797092726296, 0.50797828101401166)	(7.1796502598166914, 6.3517831228834378)	(-1.5793875054453403, -3.712287280248634)	1.0	slash	0.814674
8	N	B	A	A	M	B	N	M	A	8	2	shapes	A	2	True	123	(1.2641201208684478, 7.4588142554314594)	(3.9688441947686037, -5.8879414011502629)	(-4.8026962154858133, 6.0271908685076738)	(-2.4392352634829235, -0.68364588031710838)	1.0	z	0.644768
9	N	B	A	B	N	A	M	M	A	8	1	shapes	B	2	False	123	(-0.54525279061026488, 3.058335160510973)	(5.68995313484238, 4.1465179250266111)	(6.4098466494763553, -5.1709942393922841)	(1.543249394199508, -6.2826235021131414)	1.0	slash	0.943248
10	M	B	A	B	A	N	N	M	A	8	0	shapes	M	2	False	123	(1.9176579741935651, -6.8682733849948576)	(-3.4747385423347676, -2.3515696727967796)	(-7.3593095397136441, -7.1569399583853048)	(5.3008968699178087, 2.9571718424780329)	1.0	slash	0.969151
11	N	B	A	M	M	N	A	B	N	8	5	shapes	N	2	True	123	(-8.3555266878417633, 8.6304898437664619)	(-6.4944036973809158, -1.5522658502170206)	(-7.4796277906652886, 3.5111714608246807)	(5.7256234937141031, 0.077026125128911715)	1.0	z	1.87072
12	N	A	B	B	A	M	N	M	N	8	0	shapes	N	2	True	123	(0.080809663635406537, 6.6643947990263719)	(-0.98617751901125672, -1.3521940187698105)	(4.9182252524588659, 7.40391271489883)	(-2.749316168878881, 3.4931836260253082)	1.0	z	0.724191
13	M	A	A	N					A	4	3	shapes	N	2	False	123	(-1.0154762087948139, -6.3155600973147976)	(2.0934850104973659, 1.5833686218215828)	(-0.50499961533437165, 8.5255774659294303)	(5.762430543540134, -0.69955719320522114)	1.0	slash	0.827961
14	N	A	N	M					N	4	0	shapes	N	2	True	123	(7.2584224780818829, -3.2914139801032576)	(0.93405033173893237, 1.7099219874573155)	(-2.0173291194308662, -4.0723359264034302)	(-5.1994119637891831, 2.9620424438246893)	1.0	z	2.23765
15	M	A	B	M	B	A	N	N	A	8	5	shapes	A	2	True	123	(7.2243487938134123, -6.7604948390494322)	(5.2496174846447019, 5.8426002972231625)	(-5.7749377848195502, 7.5918140493494271)	(-8.1433695732975675, -7.7239461652598322)	1.0	z	0.761217
16	N	B	A	A					B	4	1	shapes	B	2	True	123	(7.4055144636145052, -7.0650881143669899)	(-7.3067197072104593, -5.1869404776619596)	(-5.545115734805151, 5.1973209965825653)	(7.9109506809878951, 5.3153660829220613)	1.0	z	1.09145
17	M	A	N	A	M	N	B	B	A	8	4	shapes	M	2	False	123	(4.9413078493877975, 7.0203322416181813)	(-6.5721014416928636, 2.3783121904676587)	(0.54227655578441691, -8.0740023527758567)	(6.4758358183024498, -2.2161237346678391)	1.0	slash	1.42648
18	N	A	B	A	M	B	N	M	N	8	6	shapes	N	2	True	123	(-2.4326403533112355, -3.9626116852238251)	(2.4515865974589879, -6.7228025156820692)	(-6.64114718850462, -5.6915377621670551)	(7.8085060758273741, -2.0733425935931225)	1.0	z	0.763978
19	M	B	M	B					M	4	2	shapes	M	2	True	123	(-3.6417650309287843, 8.3566838128295515)	(3.0615443703931895, -5.7622358220803243)	(-8.4841869450016567, -5.3400609370021703)	(2.2040216824093122, 6.4605916618893602)	1.0	z	0.692223
20	N	B	M	B					N	4	1	shapes	B	2	False	123	(1.5470182494580182, 6.7826937159502432)	(-1.2800225488235339, -7.1191684052327373)	(0.080610231672492816, -1.4677910559531329)	(-5.721312199084041, 2.9927491721724362)	1.0	slash	0.77184
21	N	A	N	A	M	M	B	B	N	8	5	shapes	M	2	False	123	(-0.76873572512517896, 5.4075548251229488)	(-2.0487849884680891, -7.7737735780622934)	(8.3095811315324539, 7.3634493020169067)	(6.8478886819147071, 0.90635521526385787)	1.0	slash	1.2028
22	N	B	A	M					N	4	0	shapes	N	2	True	123	(-8.6536244937874844, -4.3297089275112004)	(7.2094533172822057, -5.9181658261035199)	(-0.42489284579402842, 7.17866147719322)	(5.0472101445716646, 2.6450037201501004)	1.0	z	0.6527
23	N	B	B	A	A	M	N	M	B	8	3	shapes	A	2	False	123	(4.050530014039591, 2.8223005659679394)	(-0.12648145614766726, 7.2708065171105396)	(-0.21280178012201922, 2.7946019833999145)	(-3.3894608290545571, -3.6323539315838556)	1.0	slash	0.811379
24	M	A	B	M					B	4	0	shapes	M	2	False	123	(4.7287986358373093, 0.42541365568255429)	(4.1284783843899184, -6.9051373505010787)	(-1.0834819652458734, 4.107619154197975)	(-2.4819578853457038, -4.2206747544438388)	1.0	slash	0.795524
25	N	A	N	B					N	4	1	shapes	A	2	False	123	(-3.5100172170416304, -5.617859934874434)	(7.4099089703510934, -4.9759773036162356)	(-0.37008987588672326, 5.4954176774902592)	(7.4544187391402694, 3.1731845704318875)	1.0	slash	0.715948
26	N	A	B	M					M	4	2	shapes	B	2	False	123	(0.90396770750688127, 8.6253823935823775)	(8.2294264412713112, -1.8664463091600281)	(-5.7873155999373243, 2.734630285104144)	(-2.4065999486744216, -0.30567170434223279)	1.0	slash	0.821675
27	N	B	N	B	A	M	A	M	M	8	5	shapes	M	2	True	123	(-6.7243724203727115, -3.4823601025185926)	(5.6558511058677112, 3.8101763330033194)	(-7.7836792935571246, -8.512030658529298)	(2.5998654536035488, -6.3929551461864911)	1.0	slash	1.07102
28	M	A	N	M	N	B	B	A	B	8	6	shapes	B	2	True	123	(2.9158570790522713, 0.82260607515984852)	(-5.8831680328796931, 6.4314559033746654)	(-2.3867193312944641, 2.0050800593223208)	(7.9722663633042998, 6.5406781752610161)	1.0	slash	1.00239
29	N	B	A	B	M	A	N	M	M	8	4	shapes	M	2	True	123	(-0.33118014280242747, -1.1507612857782776)	(-4.4825753489041054, 5.4284724990613391)	(7.1876682803479319, 4.8200970934924463)	(1.9461972169522035, -5.1289871485294407)	1.0	z	1.12448
30	N	B	M	B					N	4	0	shapes	N	2	True	123	(4.4780354106724563, -4.6098318142181949)	(0.045515870651717805, 2.8267897278593654)	(-6.4961269967680693, 6.4305521042878642)	(-7.0824565958215508, -4.3329218780856618)	1.0	z	0.771531
31	N	A	A	M					A	4	3	shapes	M	2	False	123	(-5.496852843908119, 0.69893259081453074)	(-6.3150100333651018, -4.6003824436853904)	(1.5296153530296799, -1.1515598928039861)	(5.0935516184234491, 4.284769188311186)	1.0	slash	0.78874
32	N	B	N	B	A	M	M	A	N	8	6	shapes	M	2	False	123	(-6.965298016504982, -6.7690219480032319)	(-7.9268688148747319, -0.92197273103766264)	(-0.0683784296663692, 8.0335987873234593)	(1.8247987680384199, -3.8907434468541613)	1.0	slash	0.925098
1	M	A	A	M					A	4	1	shapes	A	3	True	123	(6.5978127158351736, 4.5195446488982025)	(3.0141584344687438, -1.6072876450954485)	(-4.7610316918334501, 1.4219873697958967)	(-6.2795506854425653, -2.3005508398091248)	1.0	z	0.820633
2	M	A	B	B					A	4	2	shapes	B	3	False	123	(5.0981593665869891, 3.358703423671944)	(-6.9827371125225461, -2.3130827090191435)	(2.6023536649518118, -8.3674412972387771)	(-7.805483159733198, 1.9487418022468219)	1.0	z	0.851014
3	N	A	A	M					A	4	0	shapes	N	3	False	123	(-4.1169420721836909, -7.3685025661014638)	(1.9453399108222129, -2.3556953339938511)	(-2.0497566956777193, 0.63942858145640713)	(1.4460476903501451, 4.0600427594577297)	1.0	slash	0.704586
4	M	B	M	B	N	A	N	A	A	8	5	shapes	A	3	True	123	(1.3381802798590368, -6.9421149153367256)	(3.0625147113359983, -3.3208135896100339)	(3.6473867600793444, 0.86270882401857385)	(-5.8833958524181345, -7.8276561646319216)	1.0	z	0.773794
5	M	A	A	B	M	B	N	N	B	8	6	shapes	N	3	False	123	(-8.1301530667180781, -1.7533899799589978)	(-3.4603686204690547, 8.3814758930137216)	(-3.8941112032928737, -0.84198504239405381)	(6.4488922537446758, 3.0776096813470257)	1.0	slash	0.853367
6	N	B	A	A					B	4	1	shapes	B	3	True	123	(0.67091788925227469, 8.5526300954862755)	(-8.5091006052871787, 2.3504145267420391)	(-6.2961117873701493, -3.7546278447085548)	(5.576421379040152, -4.6644053967418007)	1.0	z	1.24714
7	N	B	M	B	A	M	N	A	B	8	1	shapes	B	3	True	123	(1.982231422924233, -1.0747428040845035)	(-5.3083715074715663, 5.1050625596501185)	(7.329675991566468, -4.2733751162851776)	(-1.2049200312359396, 1.8880468304603184)	1.0	z	1.39462
8	N	A	B	B					B	4	0	shapes	N	3	False	123	(2.0298532375946685, -1.2222753246427436)	(-3.6177345550308422, 6.8776708242015694)	(-5.5002087266585615, -0.91782723219571682)	(4.3254528065551998, 8.3064303460931015)	1.0	slash	1.30417
9	M	B	N	B	M	A	N	A	M	8	1	shapes	B	3	False	123	(-3.6720969080371058, 3.8534476787295553)	(4.394688411267861, 4.7258017108713375)	(-0.33505892972207718, 1.4026962304446773)	(0.17499415461180057, -3.0442504945462181)	1.0	slash	1.50621
10	M	A	B	M					B	4	0	shapes	M	3	False	123	(2.6153876590609784, 6.3464841736730015)	(-4.6044368358239947, 8.4928835993878202)	(-5.7443144330636891, -1.6330992085350333)	(5.4323931787078212, -8.7062177869480166)	1.0	slash	0.64384
11	M	B	A	A	N	M	B	N	N	8	4	shapes	N	3	True	123	(8.5098547183025168, -3.4524154667603684)	(-7.8487813453392601, -2.8710694582128511)	(-6.5679539771630528, -7.3317406619706951)	(3.2933067447876709, -6.0221833220913581)	1.0	z	1.333
12	N	A	N	M	A	M	B	B	N	8	4	shapes	A	3	False	123	(-0.55461852852446292, -3.0852419388049013)	(4.318882139351448, 3.6901146252627424)	(-6.6091217677258634, -6.475055173199336)	(4.3981309996820723, -5.7215356386221927)	1.0	z	0.947193
13	N	A	B	A	B	M	N	M	A	8	4	shapes	B	3	False	123	(-7.0738938120391532, -5.9992042178500142)	(-1.0655913602097398, -5.2556133488272181)	(4.9025681336501901, 5.5246309499238802)	(5.7409134027165933, -3.3127048226869595)	1.0	slash	1.02289
14	M	B	M	A					M	4	0	shapes	M	3	True	123	(2.2199444879923931, 3.4221118923313778)	(-2.8286271090124053, -7.768517991536199)	(8.0938384434480533, -4.0918150322029208)	(-6.6127621884179266, 2.7146937310079959)	1.0	z	0.929991
15	M	A	M	A	B	B	N	N	A	8	3	shapes	A	3	True	123	(7.7104383546915827, -6.1560278818031016)	(3.6480447298289267, -3.5791721678957034)	(-7.0223331141277283, 5.5017245860067163)	(4.785078961340659, 4.4850738562947843)	1.0	slash	1.23416
16	M	B	B	M	N	N	A	A	A	8	7	shapes	A	3	True	123	(4.7867411099948889, 7.2030258558324753)	(-7.1767686312790202, -3.730680481828557)	(3.2441475354878886, -2.5634847291609324)	(-0.84183706642176315, 3.7430305474687113)	1.0	z	0.678464
17	N	A	B	M	M	N	A	B	A	8	0	shapes	N	3	False	123	(-4.014736276777513, -8.4621642597110824)	(0.80940056490902279, 2.5801498146163215)	(8.3708685058026973, -4.0319330416642538)	(-7.6698255407670279, 2.5592219108823961)	1.0	slash	1.46544
18	N	A	N	A					A	4	1	shapes	A	3	True	123	(-0.23157891271036846, -1.3803225060370874)	(-3.5094480044516434, 2.4555313836259174)	(4.881263814261489, 2.5504033060172766)	(3.7611520055902048, -7.2500738436815819)	1.0	z	0.668453
19	N	B	B	M					B	4	2	shapes	B	3	True	123	(-6.1589090645601683, 0.39456582917270566)	(-4.7889485856641736, -5.5472010947479546)	(2.5260699170209016, 7.6839906501365078)	(1.8925147665937629, -0.86480351619901796)	1.0	z	1.16014
20	N	A	M	B					A	4	0	shapes	N	3	False	123	(5.4152420657722011, 2.7540012819491579)	(-2.7901413244373243, 5.7037041357678717)	(8.1130482403149813, -6.1159040963487552)	(-8.2370943052364218, -0.17292814242455457)	1.0	slash	0.658324
21	N	A	B	B					M	4	1	shapes	A	3	False	123	(6.6710023993163059, -3.3545806088223147)	(-0.34596629516253152, -6.5395247115388884)	(0.45868343830079539, 7.2425245208568843)	(-6.4989839658455688, 6.1723468738346803)	1.0	slash	0.800069
22	M	A	A	M					M	4	3	shapes	M	3	True	123	(-7.5794862150353195, 5.1532066445229479)	(0.88777552777884416, -2.6801437135076709)	(-7.6267764639440472, -2.7505523272249315)	(6.9778934460353987, 3.0700218220669306)	1.0	z	0.649473
23	M	A	N	A					B	4	3	shapes	A	3	False	123	(8.0264992753803917, 7.6721179974781037)	(-7.7178406315539654, 4.414358726474692)	(-6.7319810922100523, -2.8618767716591567)	(2.469219947560962, -6.6903068186966888)	1.0	slash	0.801029
24	N	A	M	N					N	4	0	shapes	N	3	True	123	(8.1962190962332997, 7.6420951695591341)	(0.22571113236901041, -6.7187170703963339)	(-1.5972745562108219, 2.6982494972972777)	(-2.6196261067345317, -1.892874542288177)	1.0	z	0.974876
25	M	B	M	N	A	N	A	B	B	8	7	shapes	B	3	True	123	(-4.337236199595309, 7.7380479072106176)	(7.9665283262322149, 7.2649212599099648)	(3.0700066525627481, -1.5071925767572729)	(-3.6810583418179865, -7.9854189220654588)	1.0	z	0.946468
26	N	A	A	N					N	4	3	shapes	N	3	True	123	(-2.283109066196781, 6.9437208209719703)	(4.410658837153953, 1.2517744730958249)	(3.8336187049528831, -3.9871650341196379)	(-0.72912335151010055, -7.376825655390955)	1.0	z	0.645568
27	N	A	M	A	M	B	N	B	A	8	7	shapes	B	3	False	123	(-0.19975818027682379, 0.028634409179353781)	(5.6265935433628886, 8.3085148368380253)	(-5.5134719653906838, 5.408062037913405)	(-8.4537337174174887, -0.81582422473351013)	1.0	slash	1.1592
28	M	A	B	A	M	B	N	N	N	8	6	shapes	N	3	True	123	(-8.1050542223430107, -5.4713478515780416)	(-3.5959582768430307, -5.2663175483722169)	(1.6408046257703361, 5.2895670262851784)	(-3.0623159628714411, 4.9094696996038412)	1.0	z	0.618997
29	N	B	N	M	A	M	B	A	B	8	0	shapes	N	3	False	123	(-2.9239321935686009, 1.4498241035870372)	(-0.20164424962779393, -6.2867336917404852)	(5.9472231896206669, -0.93014115064820402)	(2.4713096842374309, 4.8206702991782322)	1.0	slash	0.826726
30	M	B	B	M	A	N	A	N	M	8	0	shapes	M	3	True	123	(-0.75313496445136252, 0.72635058054566848)	(5.1217483780218522, 8.4198167491588798)	(-8.0088596816703248, -7.1346449102710121)	(-7.5272172476286148, 4.2886383722612322)	1.0	z	0.604883
31	M	B	M	N					M	4	3	shapes	N	3	False	123	(-0.61183266785965174, 1.6524212556210074)	(1.3838507382297109, -7.5527068770982471)	(8.7312541674992588, 3.8214583912999025)	(-2.1144989836547712, -2.3131961738474693)	1.0	slash	0.620265
32	M	B	M	B	N	A	N	A	A	8	4	shapes	N	3	False	123	(2.2848877917921424, 5.2552487592167942)	(-5.6685705075324631, 5.4504054655179015)	(2.2762659448411924, -2.6377123090992614)	(-7.191531557270773, 0.74224777644194795)	1.0	slash	0.660429
1	M	A	N	A					A	4	3	shapes	A	4	True	123	(-7.8841591081930327, 3.6281166577311748)	(3.8644056587527853, -7.8438808025558515)	(6.5967176822703806, 5.80359339150829)	(-0.22996518318686476, -1.5402800475327139)	1.0	z	0.705017
2	N	B	M	M	B	A	A	N	B	8	6	shapes	A	4	False	123	(0.35446624137140326, 4.2122611951654196)	(-8.0053065986301633, -3.0964883319764507)	(-6.8597526212275266, -8.0913771330312017)	(2.9524462714565463, -0.34438548215865872)	1.0	z	1.557
3	M	A	N	A	B	B	M	N	M	8	1	shapes	A	4	False	123	(0.91480377783859446, -2.6842487724542492)	(5.6096076684884029, -0.91691659586361141)	(-5.9379440361186235, -6.9115426874054382)	(-3.6859763526029017, 3.423536375289661)	1.0	slash	0.680646
4	N	A	N	A	M	M	B	B	M	8	4	shapes	M	4	True	123	(2.4085382625235354, -6.2806285124989021)	(0.14507933260429695, -2.8651601143384768)	(1.0123885739784662, 6.8426439640217236)	(-2.3051085891675998, -6.3577193549661146)	1.0	slash	1.72406
5	M	A	M	N					N	4	3	shapes	N	4	True	123	(0.67113467030358009, 0.53113155497764986)	(-2.3606939567299454, 7.8886531388865855)	(-4.758761910898996, -6.0133243096119644)	(6.7145871949567688, -2.1981180492016943)	1.0	z	0.911776
6	M	B	N	A					M	4	3	shapes	A	4	False	123	(-7.6273144347170092, 5.6150232761947336)	(0.79048832561536386, 1.8442569205068615)	(-0.77131643743395983, -4.5737449336500751)	(3.3172545820631942, -6.8243979697656254)	1.0	slash	1.07063
7	N	B	M	N	B	M	A	A	N	8	3	shapes	N	4	True	123	(-2.6998863032887739, -7.5317086870764669)	(-6.8174638443328686, -8.1797631233721955)	(-0.41923017888748859, 6.6143326873773329)	(7.9561965369590482, 5.9971346730582606)	1.0	slash	1.06728
8	M	A	B	N	N	B	M	A	N	8	2	shapes	B	4	False	123	(8.4498565659207436, 1.8670576018042144)	(2.6384218606887604, -7.0979012113835172)	(-6.5471838634478363, -3.3341378173234428)	(4.5520982107267827, -0.014011749419751141)	1.0	slash	1.21665
9	M	B	M	A	A	B	N	N	B	8	1	shapes	B	4	True	123	(-2.597539668237296, -6.3105062513543739)	(5.4902463000733412, -5.5179627033939314)	(4.738567219697666, 4.4703523370986993)	(-7.494697223712059, 8.2340363282961313)	1.0	z	0.826597
10	M	A	N	B	B	A	N	M	B	8	4	shapes	B	4	True	123	(-1.5963395640776943, -8.6720352902882194)	(1.8180059829727853, -4.5720899639608801)	(-4.7536020374709462, 1.6883821634782805)	(-7.6269650417882158, 5.9716238016934629)	1.0	z	0.66195
11	M	A	M	N	A	N	B	B	N	8	5	shapes	N	4	True	123	(-1.4634454822527507, -7.7513689326533894)	(1.9186048861428837, -4.0599081257421981)	(1.8571658643437061, 2.3846935376925185)	(-8.1346195320051873, -8.0457579038964759)	1.0	slash	1.22751
12	M	A	N	A					B	4	3	shapes	A	4	False	123	(4.7465671859931664, 3.2749626940373755)	(-1.4862051682595618, -3.9639467386876319)	(-4.0799185346491313, 6.5733528805541539)	(6.3073906055806681, -3.4431521766005098)	1.0	slash	0.773559
13	M	B	M	B					M	4	0	shapes	M	4	True	123	(5.0051038339301321, 1.1520757474192607)	(-0.49271436897432785, 1.2459634428828483)	(0.028597561349675615, -7.9528065149155802)	(-4.3988500280964562, -1.6725373415344293)	1.0	z	0.787338
14	N	A	B	M					N	4	2	shapes	B	4	False	123	(-8.6310035022586451, 1.9439580332503166)	(-4.7005236383314326, -1.160049761745892)	(2.3672739090727379, 5.6609646318361921)	(2.3369174309820906, -4.4097699749366051)	1.0	slash	0.92901
15	M	A	N	M					N	4	1	shapes	A	4	False	123	(-8.5538885754820928, -5.3533843213704415)	(8.3536636104699156, -2.6719426414577816)	(-2.6876470085757358, 6.1710065417627735)	(7.4889234940640108, 7.6792079081889675)	1.0	slash	0.728089
16	N	B	A	A	N	B	M	M	M	8	5	shapes	B	4	False	123	(-7.9075201837624451, 6.5536758531660588)	(6.1526678718724792, -3.8301202193529056)	(-1.1442127230172758, -6.3345138933470704)	(0.47604751031762937, -0.7003731976608325)	1.0	slash	0.818512
17	N	B	M	A					B	4	0	shapes	N	4	False	123	(-0.78323038069391338, 0.026389665064019852)	(6.9750533389043561, -6.9367627812174284)	(-7.39185643494198, -6.9949792769504775)	(5.1410617436363282, 6.8179153393368264)	1.0	slash	0.631578
18	N	B	N	B	A	M	M	A	M	8	5	shapes	M	4	True	123	(6.8860704855745212, -0.75545175314236612)	(-0.44932670486852011, -5.6933304395056901)	(-1.0788136080590514, 4.8968747329998532)	(-4.7816905277859458, -5.3877147157520984)	1.0	z	0.923304
19	N	B	B	N					N	4	3	shapes	N	4	True	123	(2.3436402024709402, 4.2926996444263832)	(3.5898935333146937, -7.0600697788143982)	(-2.9671634541390137, -7.1729601213126104)	(-4.1063883907869672, 8.1911430760009907)	1.0	slash	0.720625
20	M	B	N	A					N	4	2	shapes	N	4	True	123	(7.2920982931428568, 6.5582689902887843)	(2.0233489088786687, -4.5189212208139926)	(-3.4044848755876318, -0.87354741339512643)	(-5.4582358371430413, 5.782847742134031)	1.0	z	0.904346
21	M	B	M	B	A	N	N	A	B	8	2	shapes	M	4	False	123	(0.29049298701330883, -2.2469954351092785)	(2.466565005558877, 6.239001550941774)	(3.7853140188581769, -7.6080979745575501)	(-8.213773950957723, -0.17374922895580092)	1.0	slash	0.726537
22	N	B	A	A	M	B	M	N	B	8	4	shapes	M	4	False	123	(7.1095113233376299, 4.3741544004924258)	(4.2117914651061206, -6.6419108653485956)	(5.9318966711422778, -0.33359472071883189)	(-1.4345170451444282, -3.0157579523125841)	1.0	z	1.25758
23	M	B	B	A					M	4	0	shapes	M	4	True	123	(0.44605429857729284, 0.75752409119464481)	(-8.5468198716947086, -2.5104957993651329)	(7.1198155143595212, -1.7721363091398254)	(-8.4152245187777357, 4.2939887782915953)	1.0	z	0.837015
24	M	B	A	B					A	4	3	shapes	B	4	False	123	(-7.3188231045283461, 3.5490385531488133)	(-4.8946593852038642, -3.3392434898996042)	(2.8936357696295918, 2.0845145756916459)	(0.25603501981375487, -5.8091284422858607)	1.0	slash	1.13134
25	M	A	B	A					N	4	1	shapes	A	4	False	123	(-6.4215992193766134, -8.3648223468232601)	(7.4381988481942045, -2.0332441469698352)	(7.202729416739853, 3.5645727647545158)	(-2.82039630793978, 5.641119229672805)	1.0	slash	0.618614
26	N	B	A	N					M	4	3	shapes	N	4	False	123	(4.977768765800743, 0.37142601319155233)	(-1.0591664832772052, 7.2799396622514934)	(2.1123466849495358, -6.2111411228247704)	(-0.72911860445498355, -0.89278112072594418)	1.0	slash	0.63233
27	M	A	B	B	N	M	A	N	N	8	7	shapes	N	4	True	123	(-1.7960878930085658, 2.1702781451326434)	(7.9251434814837047, -7.005611923550715)	(3.595177826645056, 4.1530446671916774)	(7.1594173362443065, 1.2116500866536377)	1.0	slash	0.740125
28	N	A	N	B					A	4	1	shapes	A	4	True	123	(3.1250322813158355, -1.4154565323170472)	(6.0581278588722434, 2.5495643526648379)	(-1.7393101226187477, -5.1486076271667374)	(-2.1837812718446452, 2.4002871092147409)	1.0	z	1.00949
29	N	A	B	A	M	B	N	M	A	8	1	shapes	A	4	True	123	(-5.7038107009132499, -2.2335682659682936)	(2.4302792514042899, 1.7014854267313275)	(6.6387293628050745, -8.0519021151037897)	(6.2782117753590985, -3.895757097031094)	1.0	slash	0.860452
30	M	A	N	A	M	B	N	B	N	8	3	shapes	A	4	False	123	(6.9597357114925522, -1.8206745486230815)	(4.3573136118325149, 2.9605046214747119)	(-5.3624273276837684, -6.5791644213356699)	(-0.00084682808861558101, 2.1224403736049133)	1.0	slash	0.698898
31	N	B	M	A					B	4	1	shapes	B	4	True	123	(1.4467162467273038, -8.5051116082929408)	(-4.3524232663136244, 8.2989319352737567)	(-0.26397006634819142, -2.5487347310406534)	(2.9938636082994741, 5.3284983241774473)	1.0	z	1.16708
32	M	A	B	A	B	N	N	M	M	8	2	shapes	B	4	False	123	(-7.7503388959603541, 0.1291240843658521)	(-4.5691234619211851, -5.4093025196410203)	(4.1962777634540451, -0.23547880202641203)	(-3.8544342888957122, 8.5236277639733267)	1.0	slash	0.872211
1	N	B	N	A	M	B	M	A	A	8	7	shapes	A	5	True	123	(1.4227649775831601, 1.538500702380265)	(3.162308012453531, 7.6833814934425959)	(8.1255690390503723, -1.9518120812618358)	(7.3593081778149809, -8.0293422875571387)	1.0	z	0.877937
2	M	B	N	N	A	A	M	B	M	8	6	shapes	M	5	True	123	(-8.2979980241565201, 1.8365153592089545)	(0.22621964991668264, -5.4277501485136437)	(3.4977989468141626, 5.2140373860140254)	(-1.4811026690296734, 6.7101869330221682)	1.0	z	0.859347
3	N	A	A	B					M	4	3	shapes	B	5	False	123	(-3.2237211658099634, -5.5606761500771817)	(6.4494348079831028, 2.0263475853429842)	(1.1858778610889846, -2.2118525231101973)	(-1.594203514756332, 2.3664459593415135)	1.0	slash	0.697
4	M	A	M	N					B	4	0	shapes	M	5	False	123	(-8.2633430568268516, -3.7604050262502238)	(-8.7084715580196601, 7.6750604996848999)	(4.585587661523558, -0.6651458015190137)	(3.5365844403953055, 4.6340030066402633)	1.0	slash	0.814785
5	N	A	N	A	M	B	B	M	A	8	0	shapes	N	5	False	123	(3.5411592764241178, 1.5305377133894265)	(4.6976435610626623, -4.346044225184829)	(0.071776298654020465, -3.9258575060496419)	(2.3523478421152184, 6.5847219080312218)	1.0	slash	0.598418
6	N	B	A	A	N	B	M	M	M	8	7	shapes	M	5	True	123	(2.7164271010719521, -6.7277117314497046)	(-7.2043501308766436, -3.0944916689763966)	(5.0417321113013376, -2.2539082807710358)	(4.6398774025562375, 7.7664630362738478)	1.0	slash	1.45799
7	N	B	N	M					M	4	3	shapes	M	5	True	123	(7.0478253246378646, 8.0101321313878628)	(-7.7244317020738791, -7.9047634612093898)	(7.9573754698241146, -4.6015081058998692)	(-1.6754440304369034, 4.399754112668024)	1.0	z	0.81556
8	N	B	M	B	A	M	N	A	B	8	2	shapes	M	5	False	123	(6.0476950569164654, -1.7525366852138538)	(4.9753442406956161, 3.8163230120865883)	(-6.1164993816971922, -4.8604715148111985)	(-1.7110145273745774, 7.4232211712990193)	1.0	slash	0.865425
9	N	A	M	B	B	A	M	N	A	8	5	shapes	A	5	True	123	(5.9511162028320648, -7.3675549446127775)	(2.5254201301691417, 3.2538935451622404)	(-1.4635013389693476, -0.84217863672093785)	(-8.548776938110203, -1.3537789640071249)	1.0	slash	1.00708
10	N	B	B	N	M	M	A	A	M	8	7	shapes	A	5	False	123	(-1.7830091588342256, 7.416539164759925)	(-0.13821679063386405, -0.73784938507246345)	(-2.3408122946173711, 2.9689678634757701)	(7.7724208168184887, -4.0499923560956432)	1.0	slash	0.648626
11	M	A	A	N	M	N	B	B	A	8	1	shapes	A	5	True	123	(1.7359662667826825, -5.1659146630352151)	(8.5565063249659303, -2.8560924615639065)	(-8.4555782967999846, -7.4996397276531788)	(-4.6537506383753975, -1.2269590418986542)	1.0	z	1.16225
12	M	B	N	A					A	4	3	shapes	A	5	True	123	(3.3960404637437467, 2.7860233724881738)	(-4.2830988448207137, -0.58004924751862852)	(4.844335568416799, -1.2313909253817874)	(-5.5070534424164661, 6.2392183104546142)	1.0	z	0.778356
13	M	A	N	M	A	N	B	B	A	8	7	shapes	B	5	False	123	(3.2639113849590391, 8.0662138281218176)	(5.5458930796769224, -0.95234198817005655)	(-2.2510533880914361, 3.6632779321601099)	(-6.1526491972195441, 1.3510272162400874)	1.0	slash	0.903617
14	N	A	A	N	M	B	M	B	A	8	7	shapes	B	5	False	123	(-5.8850789269068002, 6.801773008776939)	(8.650596327946765, 3.6226921348594185)	(-1.7033230198358416, 4.2034057747761864)	(6.7033757981094837, 8.3309072373737614)	1.0	z	0.700782
15	M	A	N	N					M	4	1	shapes	A	5	False	123	(-4.5564848929698734, 0.53650993491463872)	(6.4151605603636579, 5.1304602114182138)	(5.0578209487774064, -8.5573253200087009)	(-3.6840961339015692, -3.6722251503104903)	1.0	slash	0.708851
16	N	A	B	A					A	4	2	shapes	B	5	False	123	(-7.514095506371179, 5.9715319778165572)	(2.454541681253799, 0.84562173371286953)	(-7.5050073369106851, -3.5543328388570758)	(4.3172882575102012, -7.3212796504330147)	1.0	z	0.710576
17	N	B	M	B					N	4	2	shapes	M	5	False	123	(-5.3598347274693943, -8.5004911546002599)	(8.5857072105445802, 1.6588060418901041)	(-7.2797965070221462, 6.8727764277725889)	(1.1718543407619091, -0.19938093550844016)	1.0	z	0.838168
18	N	A	A	M	N	M	B	B	A	8	2	shapes	A	5	True	123	(-3.1964533829408923, -1.6178036148597199)	(-3.2222894743370274, -8.1464215251369012)	(8.5935597631032294, 3.7696997843598847)	(-6.7197278643746481, 4.4763550057326977)	1.0	z	0.848376
19	N	A	M	M	B	N	B	A	N	8	0	shapes	N	5	True	123	(2.4929241077930655, 0.67838099276757369)	(-2.7507387666326446, 1.9399937069502968)	(4.0846768582476205, -5.5115090048877038)	(-0.87617709822881196, -5.0985003438593175)	1.0	z	0.591471
20	M	B	N	M					M	4	1	shapes	B	5	False	123	(2.8256633125965749, -4.815726711771922)	(1.1036201603233433, 0.31113405804802596)	(-3.4394829286378448, -5.992395358654961)	(-5.5893151644371368, 0.18861857483825872)	1.0	slash	0.945713
21	N	A	N	B					N	4	0	shapes	N	5	True	123	(-0.7413075184254545, -7.899817204847805)	(8.6124081614369281, -0.55169768908057115)	(-8.1969416977488407, 2.1375511528336215)	(4.4432535227323999, 7.9562313710031276)	1.0	z	0.980786
22	M	A	A	B					N	4	2	shapes	A	5	False	123	(-7.4804756757895596, -1.5961017844756729)	(4.3411605410734566, 2.9154583921776656)	(3.8012076082357478, -1.8928143252821794)	(-7.6917532156880091, 4.3340957684785852)	1.0	slash	0.666852
23	N	B	B	A	M	M	N	A	N	8	7	shapes	A	5	False	123	(0.50515234478643833, -4.336127486561776)	(-7.7126937005887761, 1.3018605920483832)	(-8.1998193398980241, -7.6860993383781206)	(0.27267763924708355, 5.8523012884514554)	1.0	slash	0.815815
24	N	A	A	B	N	M	B	M	B	8	4	shapes	N	5	False	123	(-0.31821423589825848, -7.2681335192049792)	(-3.527699322070351, 3.8751422612847577)	(-5.0129761702160209, -3.1058753167394055)	(3.5720691803445543, -5.49656553822361)	1.0	slash	0.687658
25	M	A	M	B					B	4	2	shapes	M	5	False	123	(-5.8356628325285929, 3.1945513919199371)	(-5.1071783416137464, -6.9168554504490958)	(6.5849691250023792, 1.9179331074251458)	(7.3207111653810948, -2.9001209198381144)	1.0	slash	0.518136
26	N	B	N	A					A	4	3	shapes	A	5	True	123	(0.8597589265615504, 1.7520207882035592)	(4.8899103032769702, -7.1110636901645288)	(-6.176520675436862, 1.0990103734016543)	(-4.5370008234581709, -5.0587596372372197)	1.0	z	0.751069
27	N	B	A	A	B	M	M	N	M	8	2	shapes	A	5	False	123	(-0.66879280808956132, -7.1543939852775651)	(2.2938359631415484, 1.5809973661123546)	(-3.2308762833433624, 1.1350751111385886)	(0.79010183215045338, 7.7671629445365014)	1.0	slash	0.762844
28	M	B	A	M	B	A	N	N	B	8	1	shapes	B	5	True	123	(-7.9466858696544351, 5.9012400464866293)	(-3.9274627333439742, -2.0234800556188004)	(5.6779700604177208, 0.9033047970579986)	(8.2675765514550221, -6.5614090307402266)	1.0	slash	0.796512
29	N	A	M	M					A	4	1	shapes	A	5	True	123	(-3.4529407153885021, 2.0178280380626124)	(6.2732024416885057, -3.0596884876757322)	(-8.3743053257430216, -2.1519823585490503)	(4.3759776574654463, 6.2290508216971627)	1.0	z	0.5246
30	M	B	N	N					N	4	2	shapes	N	5	True	123	(-2.2758305978175146, -0.10611740794375812)	(6.7405419676119749, 2.4029984214694267)	(5.3009516614063461, -1.4486321379573743)	(-5.4449906910362866, 6.0349559647250697)	1.0	z	0.925701
31	N	A	N	M					A	4	1	shapes	A	5	True	123	(-2.6636117213325212, -8.6766393377698137)	(-3.9426246029780732, 3.4361511712465358)	(7.4334841107582399, -7.2494165846685981)	(3.3059395536856169, 5.6248327136061196)	1.0	z	0.743363
32	M	B	N	N					N	4	2	shapes	N	5	True	123	(-5.523878913746378, -1.112040214282124)	(-7.5683175052930007, 5.0033680730063264)	(8.1891077936995771, -1.0816184173539591)	(5.7070535753873184, 7.9567559350171138)	1.0	slash	1.08015
1	M	B	B	A					N	4	2	shapes	B	6	False	123	(0.26648225910933654, -0.086654652624138961)	(7.9329746207364238, 8.6049001140557273)	(-5.7770539544287445, 3.5993130259552881)	(-5.9647315357094897, -1.5892992622450324)	1.0	slash	0.716577
2	M	A	M	A					A	4	0	shapes	M	6	False	123	(0.69688919754065459, -4.9490308452497658)	(-7.4496920329482244, -7.3169259375904367)	(-4.8226414569648011, 4.7859068158208622)	(7.0984427416118052, 5.3191387889713031)	1.0	slash	0.758901
3	N	B	N	M	B	M	A	A	A	8	7	shapes	A	6	True	123	(-3.7239482241111093, -3.0852925469245669)	(3.3256668943915386, 2.1494241496363511)	(4.5459311798266597, -6.582681705545987)	(3.9464906577719034, 6.731919691233113)	1.0	z	0.546426
4	M	B	N	B					B	4	0	shapes	M	6	False	123	(-2.5671646643354018, -8.1960902559169213)	(3.8306732649825594, -8.2374998907242798)	(-2.4529621321964408, 4.037503537926149)	(7.8241340014337837, 6.6335387137715394)	1.0	slash	0.678119
5	M	A	M	N					B	4	3	shapes	N	6	False	123	(-5.7718900779894309, 0.48492388671296816)	(3.2256842732546627, -3.7691624974971818)	(-3.7334101017104553, -6.5516519184747803)	(5.0106651731396656, 7.2414845867897046)	1.0	slash	0.623814
6	M	B	A	M	A	B	N	N	B	8	1	shapes	B	6	True	123	(-4.5817089149899983, -0.57917897365514293)	(2.9460540707544123, 3.2628565180782658)	(6.5149739978592311, 5.5638771131982203)	(-5.6460378610377724, 8.3509700145989747)	1.0	z	0.725607
7	M	A	B	M	N	N	A	B	N	8	5	shapes	N	6	True	123	(2.3550375398336918, -4.6844786198855797)	(-0.99491892271711002, 5.5348643646974267)	(7.1111288899200922, -6.8433297704453944)	(-1.5945315623329614, -1.1060597525951108)	1.0	slash	0.790631
8	M	B	A	B	N	A	N	M	M	8	7	shapes	M	6	True	123	(-1.5885056223479168, 5.223371186155207)	(6.3007304367918913, -0.10522980812068639)	(-2.8406671763504399, -8.5948038987214535)	(-6.4014438390689756, -1.622144282264947)	1.0	z	0.594333
9	N	A	N	B	M	B	A	M	B	8	7	shapes	M	6	False	123	(-2.2097842639955578, -7.5021955814644894)	(-1.8516804402403944, 0.66868662696474779)	(-7.2435419515680355, -0.10531805798449767)	(8.2313745209056322, -3.2065670205543642)	1.0	slash	1.59845
10	N	A	N	M					N	4	0	shapes	N	6	True	123	(0.78108927374767667, -1.8060904441594197)	(1.9917489712544594, 5.2062045382644975)	(-4.4861162241690273, -5.7069183285770819)	(-4.3506931373825815, 4.1864273129077656)	1.0	z	0.58597
11	M	A	N	M	A	B	B	N	N	8	7	shapes	N	6	True	123	(8.46515800810527, -6.730928952122861)	(-0.31413961583456462, 5.5961541182744465)	(2.1284859171356931, -7.5330804548060994)	(-5.1843061746266823, 7.4218414223390745)	1.0	z	0.757782
12	M	B	N	B	N	M	A	A	M	8	3	shapes	B	6	False	123	(-6.7730162268893475, -2.959658105155385)	(0.66254260951403765, -3.0242916233917354)	(-5.5774268556932256, 4.9952073867646263)	(6.9506867737066518, 1.357249350987189)	1.0	slash	0.783248
13	N	B	A	B	M	A	M	N	A	8	2	shapes	A	6	True	123	(3.6695387730778979, -4.2638657489961025)	(-2.7170477496175831, 7.5354693753640092)	(-0.79102023750481365, 2.1714899604563644)	(-0.27988529822957808, -6.5194028736645837)	1.0	z	0.600497
14	N	B	B	N					B	4	0	shapes	N	6	False	123	(-0.48129562993024066, 8.598064170409522)	(8.4296764328811733, -0.9403828437410322)	(6.9040626779078131, 3.4181564425185371)	(-4.0497520857667126, -6.1293437864624085)	1.0	slash	0.803942
15	N	A	M	A					A	4	1	shapes	A	6	True	123	(-5.523056556336658, 0.91733128918429863)	(-5.4623351179947095, -3.533487268043042)	(0.57862717292582033, -7.9020395300427033)	(3.2090074137155788, 0.36108491799053333)	1.0	slash	0.970373
16	M	A	M	A					B	4	3	shapes	A	6	False	123	(-0.025174364900207635, -2.4064400325129052)	(0.75506707818172281, 7.31837214939641)	(4.8806914345972672, -1.077355143381852)	(-6.8064607612005696, 2.2147580037395684)	1.0	slash	0.957372
17	M	B	A	M	N	B	N	A	N	8	0	shapes	M	6	False	123	(-0.51955641084142101, -6.076329652624052)	(-4.8205746619437662, 8.6694605679992591)	(-4.1113232159975848, 0.68059532601808215)	(4.428294056394682, 3.43107952793682)	1.0	slash	0.737179
18	M	B	M	B					M	4	0	shapes	M	6	True	123	(8.1535504290615037, 6.3548551414237355)	(1.5531700526428533, -7.9569730152392779)	(-6.6252215533901495, -7.8770191302443813)	(-0.34777695924009144, 2.5330231754922501)	1.0	z	0.710751
19	M	B	N	B					N	4	2	shapes	N	6	True	123	(-3.9258901966995623, -5.4335301974756618)	(4.5217874856402123, -7.0567815804796599)	(-2.7000583315531692, 7.174256824824452)	(5.5674094082995396, 6.9416140293464252)	1.0	z	0.999841
20	M	B	N	B					B	4	1	shapes	B	6	True	123	(6.9677529504146953, 6.2045240669519508)	(-3.6944231164809862, -6.790549313801856)	(-1.9048568608012149, 8.7160268081433081)	(4.7235304915210286, -5.2701401924344324)	1.0	z	0.842364
21	N	A	B	B					B	4	3	shapes	B	6	True	123	(-6.7721204024525843, -8.455381762195584)	(0.2727538092659838, -7.704470212987836)	(8.087444245145754, 8.5119816877925629)	(-5.6664525609571408, 6.9645489689842108)	1.0	z	0.875822
22	M	B	N	M					B	4	3	shapes	M	6	False	123	(6.0778314492727716, 2.5121653424761057)	(-8.5337636127436269, 2.5862702564800557)	(-8.3530499485943253, -5.7822973123564747)	(1.3393367034135366, -6.7311187223956956)	1.0	slash	0.835792
23	N	A	B	A	M	N	B	M	M	8	0	shapes	N	6	False	123	(4.8196084060499551, -7.4138623136430404)	(-0.9559992650455218, -6.8660235799695517)	(-2.7080678430358045, -2.6371728312894485)	(6.2430757063360343, 0.74135645166200881)	1.0	slash	1.01305
24	M	B	M	A					A	4	0	shapes	M	6	False	123	(2.1849008990959184, 3.1122363002370079)	(-2.4222156368641716, 4.1688827136783662)	(6.0938945825251736, -8.0792780496415926)	(-7.2938269412876124, -8.4791652389242227)	1.0	slash	0.610675
25	M	B	B	N	N	M	A	A	B	8	3	shapes	N	6	False	123	(0.32743178997356104, -2.7174498598342813)	(5.9361482096870439, 6.1275138876805109)	(-2.3240324802456946, 0.73994140386747809)	(-4.4906530200734913, 6.413725155721826)	1.0	slash	0.698401
26	N	A	B	A					B	4	2	shapes	B	6	True	123	(-2.5929306611868697, -7.1938485293065089)	(5.7925493552985117, 2.4188303552442498)	(-5.9043009910927848, 1.9147532794798536)	(1.6513318544247788, -7.4367862935221005)	1.0	z	0.982227
27	M	A	N	A	B	M	B	N	B	8	5	shapes	M	6	False	123	(-7.4589466466121923, -0.9996605517697521)	(0.26429453497504518, 3.3084447735597884)	(-2.421511630998892, -1.9925060025581507)	(-5.9264811693028818, 6.5286421769401457)	1.0	slash	0.563568
28	M	A	M	A	B	N	B	N	A	8	1	shapes	A	6	True	123	(-2.4688200731337862, 3.2362926614638781)	(-3.8665547415015, -1.0183724953221764)	(-3.5298600533903901, -8.2416490583248301)	(2.2934090422590359, 6.6337299085391201)	1.0	slash	0.879918
29	M	B	B	M	A	A	N	N	M	8	5	shapes	A	6	False	123	(-7.4460314351680665, -8.2024664652883015)	(6.3958280588424756, -2.246027072664659)	(-0.78352362285672061, -0.79315490282750822)	(4.4803395620033335, 4.4956516751982747)	1.0	slash	0.70663
30	N	B	A	N	A	B	M	M	A	8	4	shapes	A	6	True	123	(-4.5682338708630095, 2.5451668354782448)	(1.560334162864331, -0.73508486992812472)	(6.7735215754909763, 6.9585753311611676)	(6.1384765761341313, -5.229648437567457)	1.0	slash	0.862939
31	M	A	A	N	M	B	B	N	B	8	2	shapes	A	6	False	123	(-7.8427424320444077, -5.1983712983633081)	(-8.6571442349920922, 0.033733681320761377)	(5.5837355102319908, 4.009371413466404)	(8.6406940200087625, -3.8222414160161327)	1.0	z	1.24614
32	N	B	A	M					B	4	1	shapes	B	6	True	123	(0.95164831058079891, 6.7770327048669863)	(-8.6411039634806421, -8.5624524103061042)	(-7.4123332352562068, 1.5775027426521024)	(7.2269372339179743, -5.2366835683643504)	1.0	slash	0.817797
1	M	B	N	A					N	4	2	shapes	N	7	True	123	(-2.2928578882683102, -5.7474362448531764)	(-2.4232676452478836, 7.4777212437419429)	(1.3014153134221189, 4.7403583744212181)	(3.2760996304515242, -4.3868366525675961)	1.0	slash	1.06144
2	N	A	B	N					A	4	1	shapes	A	7	True	123	(-4.6902999642741801, -5.0777619921402879)	(6.9483097739343851, -0.044527619403629259)	(7.8790471605192778, 7.0244260180958999)	(-4.5845409269031814, 1.0559211115973426)	1.0	z	0.459906
3	M	B	B	M	A	N	A	N	A	8	4	shapes	A	7	True	123	(0.84369258259371627, 0.82394527917961113)	(8.2482569659161982, -6.6015001613677171)	(-2.8005603156745602, -7.0423200930523464)	(3.0765731204904139, -3.784919109990839)	1.0	z	0.826856
4	M	B	M	N					N	4	3	shapes	N	7	True	123	(-8.49100963396784, -2.9457858030882145)	(4.4784236816113516, -1.1370770496848888)	(4.1759316352115192, 4.0652942044788798)	(-2.4747707939122066, 5.7016345308070715)	1.0	z	0.838436
5	M	B	N	N					N	4	2	shapes	N	7	True	123	(-7.0137985252148649, -6.0649177879564693)	(2.4944924089141907, -3.0361972274280369)	(-4.904911776824374, 0.60665708835649923)	(3.1566578336992475, 4.2643992858389961)	1.0	z	0.720513
6	N	B	N	A	A	M	M	B	B	8	1	shapes	B	7	True	123	(8.089372400236563, 3.8909492939714596)	(-8.5942132738737982, 7.8124137171252563)	(-1.1353764194925962, 0.14558956748841823)	(-3.1281755836869767, -4.472918828452368)	1.0	z	0.747904
7	N	A	A	B	B	M	N	M	M	8	7	shapes	M	7	True	123	(-6.0419532076383362, -8.6464816154348725)	(0.31032958875047001, 1.6223790601026415)	(-3.54152105615176, 6.8291480286797199)	(2.9701098611277654, -2.3422669696298959)	1.0	slash	1.06533
8	N	A	M	B	B	M	N	A	M	8	7	shapes	A	7	False	123	(-4.366789477816452, 3.169673355952666)	(-8.2426334635907992, 7.1356054833666764)	(0.93105006898977649, 5.891153785959153)	(-7.3555997129944011, -2.6606664001852636)	1.0	z	2.50284
9	N	B	N	B	A	A	M	M	B	8	3	shapes	B	7	True	123	(-1.6927304702709787, -4.494738267884733)	(2.7155858218779976, 7.0120108598227695)	(1.8457052983000697, -1.9822545027402558)	(-5.6166293324375918, 1.216854921803554)	1.0	z	0.814977
10	M	A	A	B	B	N	N	M	A	8	5	shapes	N	7	False	123	(-5.274664892442015, -1.2629879979083132)	(-3.4825821743300773, -7.2901060293037716)	(7.9943593073229415, 6.5450851233345286)	(1.9103745656171949, -7.0701196588288431)	1.0	slash	0.61687
11	N	B	A	A					N	4	0	shapes	N	7	True	123	(-4.3714319842781659, 3.3829924270341714)	(2.2708030793932643, 5.7372087841499599)	(4.4901751592941039, -5.3552114181551715)	(-8.2968089280995621, -3.5660000580989468)	1.0	z	2.42842
12	N	A	B	N					A	4	0	shapes	N	7	False	123	(-2.2764790751239623, 0.69954805781393858)	(6.1259559861918227, 8.5864367760271101)	(-7.161258242003969, -7.4276789973752795)	(3.7241985446541168, -7.0116734128989293)	1.0	slash	0.493743
13	M	A	B	M					B	4	0	shapes	M	7	False	123	(7.3637897234901324, -7.5470543903070055)	(1.6474539474223562, 2.0477938324568825)	(-2.4764917848265791, 0.51196970462712876)	(-5.0444632375293086, -7.120600514282307)	1.0	slash	0.4995
14	N	A	M	N					B	4	3	shapes	N	7	False	123	(2.539937035112473, 2.6661662958713599)	(-7.1773621336268079, 4.2909906055436959)	(-3.0253645903551236, -1.740832177656193)	(3.3025634030107831, -7.2052268082645003)	1.0	slash	0.680832
15	N	A	M	N					N	4	3	shapes	N	7	True	123	(-5.2964753172070225, -1.894870576252198)	(8.3986213266689163, -7.9686598921323375)	(-0.37688367461485051, 2.5201457812992842)	(0.78409234384255377, 7.6232270680158827)	1.0	z	1.74489
16	N	B	A	N					M	4	1	shapes	B	7	False	123	(-1.3499722489787098, 1.9836143969219329)	(7.5652668896982895, -0.85076894977003192)	(-5.5903395257517818, -5.5809607641123016)	(3.870705516519088, 2.3430516202329983)	1.0	slash	0.686482
17	N	B	B	N	M	A	M	A	B	8	5	shapes	A	7	False	123	(-2.2709052735150275, 8.5211235440239967)	(-6.2517692009987993, -5.8436374855279638)	(-7.7890414082686066, -1.0762955228359257)	(8.4135228098721413, 7.422634513416309)	1.0	slash	0.719639
18	M	A	N	N	M	A	B	B	M	8	0	shapes	M	7	True	123	(-0.69628217931095904, 5.0269450013453199)	(2.1088047062199156, 1.3955976591028847)	(-4.4167364948196681, 7.5960474083006559)	(6.226173903779241, -0.6653628526489701)	1.0	z	0.777295
19	M	B	A	M	N	B	N	A	N	8	5	shapes	B	7	False	123	(4.2976451096884158, 5.1412822018459412)	(0.50426702377680321, -2.2054621135017216)	(-7.2137008576576367, 3.9508304281866877)	(7.7139446880917575, -2.3188007012949283)	1.0	slash	0.718872
20	M	B	N	N					B	4	3	shapes	N	7	False	123	(5.3266224467424514, 8.6382340221439335)	(1.6429207111440469, -5.5005463208775041)	(-2.3771265028750381, -1.2271513193029877)	(-5.1212421979396323, 7.4488847370762343)	1.0	slash	0.632468
21	N	A	M	N	B	B	M	A	M	8	0	shapes	N	7	False	123	(-6.9811762733960769, -8.4330058497317282)	(-7.3999754360966428, -2.25679100721156)	(-6.5477790399315285, 5.2003531100920526)	(5.6558052070588722, 6.2869177613678175)	1.0	slash	0.772855
22	N	B	A	M					A	4	3	shapes	M	7	False	123	(7.2834963477238368, -0.68382992720155933)	(-2.3204733779931921, -0.95698817796801361)	(6.4856367273197399, 6.5478866493921615)	(-7.0167691614367946, 5.3688886918690617)	1.0	slash	0.697996
23	N	B	M	A					A	4	3	shapes	A	7	True	123	(3.6422306738279122, -0.032910328106988018)	(8.1208891575957658, 3.7424110587160815)	(-4.0224903323443435, 6.6660663787978187)	(-3.0365603138357375, -7.0449706791985562)	1.0	z	0.887517
24	M	B	B	A	A	N	N	M	B	8	2	shapes	B	7	True	123	(4.3649700072645139, 0.69741191249238987)	(-5.5604686134805696, -3.0589644465560468)	(-4.7536895062720905, 6.9534028837606581)	(4.1529296436476191, -7.0472539916711741)	1.0	slash	0.591401
25	M	A	M	N					M	4	3	shapes	N	7	False	123	(0.43838190801477772, 3.8593273885969879)	(1.8356195482350426, -7.8085879958256372)	(-3.9072252467643427, 4.0787063561325798)	(-3.9055575169843166, -4.5132535711628918)	1.0	slash	0.852452
26	M	B	M	N	N	A	B	A	N	8	2	shapes	M	7	False	123	(-2.3963640791656351, -0.054051402442617302)	(1.2127966870901759, -3.8634335600607841)	(4.3644239796121731, 6.1901787917849678)	(7.6540764315380834, 3.3847441894257209)	1.0	slash	0.634683
27	M	B	M	N	N	B	A	A	N	8	3	shapes	N	7	True	123	(7.922330549507528, -8.6989570109557448)	(-4.3639816759635464, 8.2741925421085654)	(0.46605980527093749, 2.3518165742225445)	(-5.1569069901719606, -6.5606918551997477)	1.0	slash	0.846611
28	N	B	A	M	A	N	M	B	A	8	0	shapes	N	7	False	123	(2.4289344734091056, 7.070389786922826)	(7.4957025637628867, 8.699731572471098)	(-4.4821688410226876, -7.2985073422239264)	(3.0483883424674332, -4.0440346368667264)	1.0	slash	0.987942
29	M	A	B	B					B	4	3	shapes	B	7	True	123	(-4.299428161765082, 0.23310150847714795)	(1.0180052679228435, -5.7940826898688531)	(-6.2943016807865373, -5.7897764983748736)	(6.3429971935638996, 3.8607802508736953)	1.0	z	0.733455
30	N	B	B	M	A	M	A	N	M	8	2	shapes	B	7	False	123	(-7.6717964655813553, 7.7839052121732202)	(-2.3693991773992318, -3.2302519398912661)	(-3.4343062681359031, 3.4127635507531675)	(-5.9236697795551425, -6.3915772839001992)	1.0	slash	0.525689
31	N	B	A	M					B	4	2	shapes	A	7	False	123	(-5.3074212003813059, 7.6663327174124341)	(8.6131271757856709, 8.2758852657235202)	(6.4752393564491619, -7.3343622922301037)	(-7.8792930050579058, -1.4447693558962431)	1.0	slash	0.964759
32	N	B	A	M	B	N	M	A	B	8	1	shapes	B	7	True	123	(8.0627354709110364, -7.0337820591493623)	(-6.7910076267879944, -6.6224776437527808)	(-0.76970057652350921, -1.5635206224082685)	(1.2672787233644929, 8.1617528664477845)	1.0	z	0.734336
1	N	B	M	M	A	B	N	A	A	8	4	shapes	A	8	True	123	(-1.7141885553538163, -0.2540979274176749)	(6.551579405802979, -7.247227368502303)	(-1.7229854110206979, 5.1762182133201105)	(3.1829492968390483, 5.1596701876367437)	1.0	z	0.925824
2	M	A	B	N	N	B	M	A	N	8	0	shapes	M	8	False	123	(-6.6852830230700224, 2.9623673932222783)	(-7.85367208604334, 7.910947120963904)	(-3.2357228340007023, -5.1691875821569209)	(-4.2240827269012327, -0.31414556361966461)	1.0	slash	1.00576
3	N	A	B	N					A	4	1	shapes	A	8	True	123	(7.6359722654173687, 7.2969151410748303)	(6.5838875177257048, -7.7726204562339083)	(-1.1897365202099701, -7.5518621871373046)	(-3.9249226835524764, 3.9619045777584478)	1.0	z	0.691792
4	M	A	A	M					M	4	0	shapes	M	8	True	123	(3.2836709424296551, 4.7083673533969694)	(-6.3840124762191248, 3.0426166184107046)	(-4.8877625814043588, -4.2608142184192515)	(4.3244616574543944, -1.5102355373369489)	1.0	z	0.602828
5	N	B	N	M	M	A	B	A	N	8	1	shapes	B	8	False	123	(4.3328304447044683, 5.2086683740268356)	(-4.7154192830114985, -5.7177092763318935)	(-4.56133081728915, 7.5925200789473095)	(1.3920834260050263, -7.782539255284239)	1.0	slash	0.592712
6	M	A	B	B					B	4	3	shapes	B	8	True	123	(-8.3780437729791331, -0.80532661991324428)	(7.8939190100069396, -4.5075688521173678)	(8.7262771084057107, 1.7598135087290636)	(-2.2309356581657784, 2.9160052466095383)	1.0	z	0.642285
7	N	B	B	M	N	A	M	A	B	8	2	shapes	B	8	True	123	(-3.1852803819154341, 5.1426759951943772)	(-1.6340129785435415, -7.2440067026983179)	(6.7988225363973545, 6.9214841193174799)	(0.46726951942751072, 6.9739633165693196)	1.0	z	0.700347
8	N	B	A	B	N	M	A	M	B	8	6	shapes	A	8	False	123	(-5.5493696797628065, -1.1103039320133457)	(-6.2567487445135352, 4.0288747460931198)	(1.029272599096176, 1.4087957033420082)	(5.4485208010171302, -4.2356183102081522)	1.0	z	1.37541
9	N	A	A	N	M	B	M	B	M	8	4	shapes	M	8	True	123	(5.8049620591984041, 7.8407312681460084)	(4.2987102317537005, -4.4999757411117809)	(-5.3867791729396686, -6.5121237315759704)	(-0.23758240082590909, 2.3483976864814)	1.0	z	0.791251
10	M	B	B	A					M	4	1	shapes	B	8	False	123	(8.0200975355075421, 1.4607304954849827)	(-1.2388973775256389, 3.4034930602152063)	(6.8481089608510732, -4.6006324721279022)	(-2.6622061795657377, -5.0268913985878658)	1.0	slash	0.567343
11	N	B	B	A	A	M	N	M	B	8	1	shapes	B	8	True	123	(-1.3173173907057194, -3.509395108400633)	(1.721681975950947, 2.6883869912772678)	(-6.5961145288694292, -6.0773252829234892)	(7.1853467321269662, 7.20642692878946)	1.0	slash	0.55105
12	N	B	N	A					M	4	0	shapes	N	8	False	123	(6.4770839826468425, -3.6789616577496753)	(-3.8005020001750767, -3.8995951679974059)	(1.4353328704935517, 6.2075428424639796)	(-4.7772224098596503, 2.0140700350772942)	1.0	slash	0.506831
13	M	A	A	B					A	4	1	shapes	A	8	True	123	(-0.98169352019186373, 5.523478488023871)	(-5.2111174397574125, -0.58654534794314017)	(2.7449749652152047, 7.2072966351972845)	(3.2001331211579345, -3.2088038524595408)	1.0	z	0.683693
14	N	A	A	B					A	4	2	shapes	A	8	True	123	(0.017908837367155428, 2.4222766944249869)	(5.528744608109168, -7.2149980415897819)	(-8.5640980339648518, 0.47570398675240178)	(-4.6495194043322465, -5.2601999573480036)	1.0	z	0.724439
15	M	A	B	N					B	4	1	shapes	A	8	False	123	(-1.4644433307187281, -6.7656406833657901)	(8.5511636162743905, 4.9816805730707561)	(2.6233339339319119, -0.94471819785778788)	(-5.3148921687227872, 4.9533895556596423)	1.0	slash	0.563207
16	M	A	B	M	N	A	N	B	M	8	3	shapes	M	8	True	123	(-2.915308560128457, 8.4168546739533845)	(7.9118808716012765, 6.5154854225464618)	(5.1138275001471651, 3.180344548473709)	(-5.5872495417797321, -1.1815908346608479)	1.0	z	0.572823
17	M	A	N	M					M	4	0	shapes	M	8	True	123	(6.8546516707312346, 6.5833964822431117)	(-6.4050842389364231, 4.2813216057496888)	(3.7319591107069687, -0.46219248304161376)	(-5.8067460060100187, -8.078656999869315)	1.0	z	0.580232
18	N	B	A	N	M	B	A	M	N	8	0	shapes	N	8	True	123	(-1.8809300947801066, -1.2413076023181118)	(3.3797388824696188, 6.8672427043162898)	(3.7080956839729318, 0.87199995649621265)	(8.5001354511258533, -4.4312266891848866)	1.0	z	0.572886
19	N	A	A	N	M	B	M	B	N	8	0	shapes	N	8	True	123	(0.49692576079081086, 8.6376433056673996)	(-2.1811670483140579, 5.015260082171249)	(-1.9283898703473099, 0.14961554582923853)	(3.352455294632005, -2.8318772615169197)	1.0	z	0.625296
20	M	B	A	B					N	4	0	shapes	M	8	False	123	(-4.6764826173123026, -6.5267277438944715)	(2.6475114334930971, -5.6120979547627083)	(-5.2279904060795159, 5.9447512716686486)	(5.1129503267722303, 2.0800163205656457)	1.0	slash	0.871469
21	N	B	A	B					N	4	0	shapes	N	8	True	123	(5.6256936527775867, 4.4717962451261641)	(-2.0993868020194073, 6.9531979242857993)	(3.0810063897263351, -2.2836659168304845)	(-3.9010555263797313, -6.4284688391366789)	1.0	z	0.425058
22	N	A	M	A					M	4	0	shapes	N	8	False	123	(-5.1745994019519124, 0.59902051524795752)	(-1.721575588196874, -3.1061991925507071)	(6.7748946485097683, -6.6349119201746767)	(7.9590541681801952, 2.7241194854645929)	1.0	slash	0.892886
23	N	B	A	A	M	N	B	M	B	8	7	shapes	M	8	False	123	(-8.120356142830147, 2.680955617142601)	(5.5995515934534801, 8.1802315401183883)	(0.84472852991882696, 6.3085947414592098)	(8.2823507465345152, -2.836964553458083)	1.0	slash	1.44518
24	M	A	A	B	N	B	M	N	A	8	4	shapes	N	8	False	123	(-7.4591288261680022, 4.5312033104113105)	(-7.0332703445123448, 0.46137995438780699)	(4.417202116135849, 8.5379843173687071)	(4.2971183519959233, 3.3246649207898376)	1.0	slash	0.838077
25	N	A	M	B					N	4	2	shapes	M	8	False	123	(-7.6271144990068898, -6.5789122981037522)	(2.9932422188498506, 7.9876153024075407)	(8.4266769005857434, -3.252015715990904)	(-7.6146534287193557, 5.9770910428299739)	1.0	slash	0.702241
26	N	A	B	M	B	M	A	N	N	8	2	shapes	B	8	False	123	(0.091203947470036795, -3.3123721096243548)	(5.8920030243586172, -4.5880902699725761)	(1.6301300211307463, 2.5542616331644492)	(-7.5103083210082682, -2.658985773933809)	1.0	slash	1.0681
27	N	A	B	B					B	4	0	shapes	N	8	False	123	(0.10613717303489345, -8.1285651654953135)	(-6.7561722051194879, -0.6778599127395939)	(-2.5320538059062754, 5.6469909552612254)	(2.8665894382617214, 6.1783625394600641)	1.0	slash	0.655088
28	M	B	B	M	N	N	A	A	A	8	2	shapes	B	8	False	123	(-8.1785698692166235, 1.4428830428581669)	(7.6275467973674331, -4.6335834324735812)	(6.460563001095565, 7.1072205372451709)	(-8.0656002860146874, -8.4389091238054856)	1.0	slash	0.89546
29	N	B	M	M	B	N	A	A	M	8	7	shapes	A	8	False	123	(-2.2795024407099866, -4.4261830924107439)	(3.2836236751647334, -7.872404540431968)	(-6.8539987175929413, -6.306442991461827)	(1.2459654061423748, 0.47160041192006297)	1.0	slash	1.10655
30	N	A	N	B					N	4	0	shapes	N	8	True	123	(5.0759346954480904, -3.2778921680811637)	(-1.0030667633813275, 1.1643602469565568)	(6.8107786448215268, 6.0403166654858609)	(-0.47419058190008379, -7.222265330147227)	1.0	z	0.51838
31	M	B	N	A					A	4	0	shapes	M	8	False	123	(-6.662972258228173, 6.4589932035128328)	(5.816008518835627, -0.47124919493062478)	(4.2699491028652421, 5.1716107680531334)	(-2.0866894944383265, -4.0715898489536508)	1.0	slash	1.0614
32	N	B	A	A	M	B	N	M	M	8	4	shapes	M	8	True	123	(-2.5135009054069588, -0.96066150966824271)	(-1.3388653168602342, 4.6843578386561671)	(-1.3406585293449238, -7.7012877062754166)	(-3.0466678148664883, 8.4123149147012484)	1.0	z	0.811406
