TrialNumber	stim0	stim1	stim2	stim3	stim4	stim5	stim6	stim7	stim.probe	ttl.stims	corr.num	trial.type	stim.corr	block	match	Subject	stim.pos0	stim.pos1	stim.pos2	stim.pos3	ran	resp	RT
1	M	A	B	N					N	4	3	shapes	N	Practice	True	124	(5.4556575732492831, 6.0085917320378748)	(-2.4335051453789651, 8.5288912552027938)	(0.24236832189813562, -6.4004848576691735)	(-7.3519557556298594, -6.7061785082750287)	1.0	z	1.56683
2	M	A	A	B	N	B	N	M	N	8	0	shapes	M	Practice	False	124	(6.8426451726058133, -8.1245089548953864)	(-5.0447275965508132, -7.1269134285453433)	(-4.6390874316384574, 5.5603505301085043)	(1.1818127930814537, -6.1047092698443333)	1.0	slash	1.81655
3	M	A	N	A					N	4	2	shapes	N	Practice	True	124	(-3.8496469519316259, -8.1266567325467047)	(2.713639853308969, 3.8462700785831707)	(8.4238196108318633, -1.5129271405900386)	(-7.1375093775361433, 3.264659035875157)	1.0	z	1.43999
4	N	A	B	M	N	M	B	A	M	8	3	shapes	M	Practice	True	124	(-1.029783023317103, -3.2768577775981349)	(1.7537947383272812, 2.3143769203721085)	(8.2079790650717186, 2.8933746338550748)	(1.8257855126622449, -7.807416873187484)	1.0	slash	1.24566
5	M	B	B	A					M	4	1	shapes	B	Practice	False	124	(-5.9868118661398348, 6.807816855179297)	(3.5575247078747623, -6.9640321675782113)	(-7.8508017701148036, -2.7063279595867282)	(5.9715485891429463, 2.2014003308787728)	1.0	slash	0.889064
6	M	B	N	M	B	A	N	A	B	8	4	shapes	B	Practice	True	124	(6.4089041260083448, -7.8765031836599455)	(4.0734828240992442, 5.7162104137122753)	(-8.125868396457836, 6.9797595566599142)	(3.7053909361181532, -0.47303060958655507)	1.0	z	1.12838
7	M	B	M	B					A	4	3	shapes	B	Practice	False	124	(1.5501212959154316, 5.5722038597685728)	(-6.9295571248253296, -5.9561104567457059)	(7.0001066455109449, -3.5059206350853183)	(-3.7773920282212847, 3.3543368825937954)	1.0	slash	1.19251
8	M	B	B	M	N	N	A	A	M	8	1	shapes	B	Practice	False	124	(4.327579900002835, 6.4137499116111449)	(-5.7402700208840525, -5.6470602450539049)	(1.6118458893245649, -8.5721125053285476)	(4.9778936450954987, -4.4644410182641039)	1.0	slash	0.972111
1	N	B	B	N	M	M	A	A	B	8	3	shapes	N	0	False	124	(0.47176230158960486, 6.5236517707549186)	(-5.5893943435013718, 1.152340903177965)	(3.5328692361603338, -0.88659034954197402)	(-5.9881201145787211, -8.70650612833332)	1.0	z	1.62576
2	N	A	M	N	B	B	M	A	B	8	4	shapes	B	0	True	124	(-6.967348918800008, -6.0398832337218105)	(3.8609872701941335, 4.4509001920668005)	(-1.5269768161738098, -0.51935323670420885)	(7.4922182257584282, -1.3726302630282632)	1.0	z	1.8253
3	N	A	A	N	B	M	B	M	N	8	2	shapes	A	0	False	124	(5.9211912365563055, 7.2862779622174436)	(-3.1933954240136115, -8.0923987651056883)	(-2.1394571043915311, 3.0655546681680139)	(4.8707971174801994, 0.18895544625960348)	1.0	slash	0.721098
4	M	B	A	B	A	N	M	N	A	8	5	shapes	N	0	False	124	(3.3189186956826653, -2.2689931360459585)	(6.5742314610384671, 2.3826056795347643)	(0.32619088072187807, 1.5192632797284009)	(5.5399895841142772, -8.2858680386630272)	1.0	slash	0.630673
5	N	A	M	M	B	N	B	A	A	8	7	shapes	A	0	True	124	(-4.0432791680194891, 5.0296189756474359)	(8.4422433474641672, -6.8092162296906862)	(-3.4789872232322745, -1.0200170899787295)	(2.9480559028291147, 3.4046320576377802)	1.0	slash	2.25024
6	N	B	A	A					N	4	2	shapes	A	0	False	124	(3.5957351656182848, 7.7899747278329983)	(-2.6897477030532482, -7.6842453256635377)	(7.066178159948425, -5.1949413551314949)	(-4.4552279697837625, 6.5243753838587537)	1.0	slash	0.665889
7	M	B	B	M	A	A	N	N	N	8	7	shapes	N	0	True	124	(1.0675438401561195, 3.6474618142373227)	(4.572893644879704, 8.2184193792527296)	(-7.6147816978501073, -3.2016599437790223)	(-1.626695356715258, -6.367953056859851)	1.0	z	0.645535
8	N	B	A	N					A	4	0	shapes	N	0	False	124	(5.0981324108732498, 8.5535410164531491)	(-6.4149565377984654, 3.0169091291623751)	(5.2727056756830475, -0.14357674894340633)	(-3.5541525527451618, -5.0448303302825028)	1.0	slash	0.623198
9	N	A	M	N	A	M	B	B	A	8	4	shapes	A	0	True	124	(7.8641900514673182, -2.2839027314990101)	(-0.49365726773893037, 6.4721482723810784)	(-6.1598674117595431, 1.9898347571401995)	(4.6738544802157502, 6.741355001609886)	1.0	z	1.24658
10	M	B	A	N	A	M	B	N	M	8	2	shapes	A	0	False	124	(-4.010046087870184, 1.2490646066503608)	(6.8558232513821604, 7.80841245914376)	(7.9457395548164946, 0.24962271940271918)	(-5.1433321587288274, 6.382966272325767)	1.0	slash	0.840494
11	N	B	A	M					N	4	3	shapes	M	0	False	124	(5.1176350650949516, 1.8007698041752818)	(-1.1415439001958898, -6.0301743992987591)	(-0.089597923565001736, 4.653625910600649)	(8.4912310234561197, -7.3122558402263733)	1.0	slash	1.02222
12	M	B	M	N					B	4	0	shapes	M	0	False	124	(5.3654818171726113, 2.9528089075992128)	(3.398544763350154, -7.0305766896045974)	(-1.0011262953327673, 3.5705792590197785)	(-4.5129572813756065, -6.7649790101265941)	1.0	slash	0.53975
13	M	B	A	M					B	4	2	shapes	A	0	False	124	(6.4176992971082107, 6.6777236441982311)	(3.0915046374876241, -3.0268349212614885)	(-0.27106720286100661, -7.0188780886075008)	(-0.46674859430810223, 4.8410023792144745)	1.0	slash	0.833487
14	N	B	N	B	M	A	M	A	M	8	6	shapes	M	0	True	124	(-0.3551107074983566, 4.7548889474598592)	(-7.2113679494263065, -5.3634152421902446)	(-5.0861771368752731, 3.8331684165653854)	(2.468678449234968, -2.3164870406201681)	1.0	slash	2.72507
15	M	A	N	N					A	4	0	shapes	M	0	False	124	(-7.4906050708577814, -7.5269268883584814)	(7.5868341534788755, 6.5697054927056833)	(-1.4515344817621187, 0.62983708503919011)	(2.57905816895817, -7.9239921628889007)	1.0	slash	0.82255
16	N	A	A	B					A	4	1	shapes	A	0	True	124	(5.824816083632264, -3.992342712805188)	(-0.33639935620732864, -1.5857616562127221)	(5.4535018706624072, 4.6578734699563373)	(-4.9007773589719248, 0.62654481446987731)	1.0	slash	0.492217
17	M	A	B	A	B	M	N	N	B	8	5	shapes	M	0	False	124	(-4.1255396877092592, -7.9271857373968277)	(-8.1209909372224907, -5.3005703277189244)	(1.3429627958189503, 1.4277495794386272)	(3.9569587626746614, -3.9114404797681441)	1.0	slash	0.89393
18	N	B	A	A					A	4	3	shapes	A	0	True	124	(7.8492190440294429, -5.2434110117258292)	(4.1852648040999263, 6.9525755727459817)	(-5.0180622355757976, -6.5542644015180507)	(-2.1512030678294156, 3.9114610357934758)	1.0	slash	0.915682
19	M	A	B	M					B	4	2	shapes	B	0	True	124	(3.0816115635511245, -6.1251678657018243)	(-7.576406347331873, 3.5863186134415503)	(-1.886310120325688, -1.8647660181836327)	(0.81595738732506717, 5.4054154436084918)	1.0	z	0.527373
20	M	B	N	B					N	4	2	shapes	N	0	True	124	(7.6392041401264734, 3.8123421131740454)	(0.3360795797580618, -4.3853769714272604)	(-8.2460612894001315, -1.7798923718446629)	(-6.7965175259051671, 4.3722015850998091)	1.0	z	0.422912
21	M	B	N	M	B	A	A	N	B	8	7	shapes	N	0	False	124	(-7.849414102815075, -3.5057887316261143)	(0.7914461429436912, -2.0749594466742511)	(-3.2807778118015838, -6.6068524291627426)	(-3.7811408836978089, 3.445662992199523)	1.0	slash	0.802586
22	M	A	M	N					M	4	3	shapes	N	0	False	124	(7.4921060621699276, -3.9168064397084068)	(-0.90503283573769711, -6.6488038912043708)	(-3.7813224939552414, 6.3474601417445395)	(4.0951063832238326, 1.390505130181964)	1.0	slash	0.679118
23	N	B	M	B					B	4	3	shapes	B	0	True	124	(-1.1401175133995691, -8.7450647759486433)	(6.2414740359210388, -5.2551042187897927)	(-0.92142547106878059, 1.3704055641696478)	(5.4077345201593676, 4.3489020452091562)	1.0	slash	1.39397
24	M	B	A	B	A	M	N	N	B	8	3	shapes	B	0	True	124	(7.4584836640604237, -2.8318291369803257)	(7.1373748359545086, -8.6135865425254483)	(-6.9716028727177584, 6.3561172093879357)	(-3.9314449280464476, 1.9867675038535495)	1.0	slash	1.21547
25	N	A	M	M	B	A	B	N	N	8	6	shapes	B	0	False	124	(5.909204937965816, -3.52638997534428)	(3.8954453664095379, 2.5977554482459126)	(-2.725700207599651, -5.4055950215512745)	(1.2257678404790422, -0.50698158367582913)	1.0	slash	0.711013
26	M	A	B	N	B	A	M	N	A	8	2	shapes	B	0	False	124	(7.0450463304921396, 0.012937966496545883)	(4.6951903443380818, 7.7799645185424318)	(-3.8844268601736864, 3.9781025544424047)	(4.0666822597456243, -5.0649348615504621)	1.0	slash	0.642787
27	N	B	M	N					N	4	0	shapes	N	0	True	124	(8.5010752062857584, -5.4858795181231859)	(-3.3184661703306855, -6.9448037062637438)	(-1.0754632688780061, 7.0635831028130998)	(7.8411452797702594, 1.3732358195968075)	1.0	z	0.820613
28	N	B	M	A	B	A	N	M	M	8	2	shapes	M	0	True	124	(-8.2437566963665621, 3.9015233260180651)	(-2.9122105247999786, 7.9268170138922187)	(8.0886903943424002, -2.3953459806160513)	(-2.8587002165249027, -5.1585073593845641)	1.0	slash	1.596
29	N	B	M	N					B	4	1	shapes	B	0	True	124	(4.6534188370307987, 4.9692891294574153)	(8.6934303365517174, -8.5403247134164193)	(-3.3909697179150324, 2.6411798346139577)	(-4.8892405636709491, -2.889370852485488)	1.0	z	0.919702
30	N	B	A	A					M	4	3	shapes	A	0	False	124	(-3.1505368614289546, 2.8257490979529756)	(4.4711485689406416, -0.79892460872590565)	(-0.68718658389405896, -3.487007845160953)	(5.5480407090767088, 3.8416845996702751)	1.0	slash	1.4092
31	N	A	B	N	A	B	M	M	A	8	4	shapes	A	0	True	124	(-7.8540468171721391, -8.6265690334782192)	(5.1337462675786973, 0.46177595052600573)	(5.7879399836681245, 6.8936800556084439)	(1.1016238821723601, -4.4118204226261151)	1.0	slash	1.41089
32	N	A	M	M					A	4	1	shapes	A	0	True	124	(0.11806713724252837, -0.34492221622537222)	(-5.4377079246090769, -1.4606942586447573)	(6.0195211537154627, 4.2100850754665142)	(-6.0533595679146144, 7.7054010101188055)	1.0	slash	1.17816
1	M	B	A	A	M	N	N	B	N	8	5	shapes	N	1	True	124	(-6.0200711904536561, -4.8488802100409352)	(8.5214976303602832, 7.676993824586134)	(3.6385380475009725, 4.9831073921814522)	(6.7564161892448187, -6.0601372532189366)	1.0	z	1.99089
2	M	B	M	A	A	B	N	N	B	8	0	shapes	M	1	False	124	(0.13019750865425017, 3.5931131965286411)	(-6.9845955392999794, 2.6227537432284755)	(-1.7131938722022957, -5.5175416539970339)	(4.2302475530989945, 1.8510792776965843)	1.0	z	2.01431
3	M	A	B	M	B	A	N	N	A	8	7	shapes	N	1	False	124	(3.4447723555545284, -0.0074292718701016724)	(-7.0010405417795418, -7.6649182727048641)	(2.9231028261878294, 6.3016902359347746)	(-3.8140379400134998, -0.55582589799422877)	1.0	slash	0.855266
4	N	A	N	B	B	A	M	M	A	8	6	shapes	M	1	False	124	(8.2533568607648, -6.0256764967022738)	(1.041478975052442, -6.8669269524265975)	(-6.4264441214165116, 1.9376019255726558)	(-8.1138878312718283, -8.3316298097815675)	1.0	slash	0.833073
5	N	A	M	N	B	B	A	M	B	8	6	shapes	A	1	False	124	(3.486711181096446, -8.4328184868553091)	(8.746512876704756, -6.0401126375467937)	(-7.539919859857414, -7.9921822951078045)	(-1.6623156373888524, 5.69867496272275)	1.0	z	0.90263
6	M	A	B	M					M	4	2	shapes	B	1	False	124	(6.0724491980302275, -2.3203907726311499)	(-8.6830900569152139, 4.7028638899058013)	(-2.5445242428224528, -7.1825631907821563)	(2.1335231737377622, 2.5114166147495816)	1.0	slash	0.828073
7	N	A	B	B	M	M	N	A	M	8	5	shapes	M	1	True	124	(8.464794022449766, 7.5989346011453236)	(-7.9688208278165593, -7.7216296244831817)	(0.62654325064462668, 5.7945509735273628)	(2.0658149449726615, -3.4431032666670562)	1.0	z	0.457963
8	M	B	N	N					M	4	0	shapes	M	1	True	124	(2.4894231465815171, -3.2380900131786339)	(-8.4372153455583092, 4.223785388663881)	(5.7036546197146496, 6.4518547752337518)	(-7.2697325679828602, -2.2148089020034458)	1.0	z	0.511568
9	N	A	M	N	M	B	B	A	A	8	4	shapes	M	1	False	124	(1.2743995758305662, -5.1987586430297963)	(2.8413247402654509, 4.1246832637304571)	(6.7727052600260667, -1.3326920423405619)	(-7.1350243835182967, -5.4200569221243899)	1.0	slash	1.29907
10	M	B	A	B					A	4	2	shapes	A	1	True	124	(-5.8315276385545429, 2.6155316220431466)	(5.4690306384918603, -3.7033824021470796)	(-7.2373792637892223, -6.6751252249269255)	(7.1361980194275176, 6.4371920710122126)	1.0	z	0.760849
11	N	B	N	M	M	B	A	A	B	8	0	shapes	N	1	False	124	(5.9712459790785548, 6.4453118287034314)	(-1.8737486985510126, 0.75450499486490763)	(3.8617782166349937, -4.7744207552418256)	(8.3825864618537196, 0.91797219873847347)	1.0	slash	0.6746
12	M	B	B	A					M	4	2	shapes	B	1	False	124	(-4.2104002395715101, -5.0671560813659946)	(1.0250959873773606, -2.6474255277209346)	(3.444156350002844, 2.3006766001660797)	(-0.10418665024583795, 4.2689421177528324)	1.0	slash	0.582204
13	M	A	B	M					A	4	1	shapes	A	1	True	124	(-4.1758982647853005, -7.9616852456529639)	(-1.3378243302488357, 2.8081110791466966)	(3.8643430629824671, -6.8552610724993688)	(4.3203635082152836, 1.0869607120973441)	1.0	z	0.715857
14	M	B	N	M	B	N	A	A	M	8	0	shapes	M	1	True	124	(-0.57012666582968663, -2.0748110233086043)	(5.68726124782245, 6.9283017627275658)	(8.1131926165211503, -6.0888036222180109)	(-0.97889381274913756, 5.634265585017042)	1.0	z	0.740864
15	N	A	M	N	A	B	B	M	N	8	4	shapes	A	1	False	124	(3.6548532150724924, -4.9709502586179788)	(0.94850266595969579, 4.2057841521436377)	(7.4856759893831182, -7.2681045402525246)	(-2.9821336686698077, 2.9555638242619207)	1.0	slash	0.713262
16	N	A	N	B					N	4	2	shapes	N	1	True	124	(-6.637826494093054, -2.7664794236832355)	(-4.7698897516764447, 2.1687382595399889)	(8.463276152142555, -5.8994488717592013)	(2.7568228632349268, 4.7539159875820491)	1.0	slash	1.75673
17	N	A	N	M					M	4	3	shapes	M	1	True	124	(-0.93321871612938789, 6.1456119780199323)	(5.4067977531833726, 0.32891961110757428)	(-3.8707129265564006, -1.7866984286675383)	(0.95927016696162326, -1.0765357026426194)	1.0	z	0.816386
18	N	B	N	A	A	B	M	M	A	8	3	shapes	A	1	True	124	(8.3690561682429561, 3.4147806979283679)	(6.4821766969518269, -3.3933653114933744)	(6.6300581211100926, 7.0373012727462907)	(-4.2308137869885103, 3.2883988921335749)	1.0	z	0.544087
19	N	B	N	B	M	M	A	A	M	8	5	shapes	M	1	True	124	(1.2857105351570493, -0.58152321526545414)	(-0.14037298903616602, -6.8127602025140925)	(-7.3927342991371141, 1.1121050278270985)	(-2.6241910161225315, 4.986498244990198)	1.0	z	0.823267
20	M	A	A	N					A	4	2	shapes	A	1	True	124	(-2.5320477632490705, -3.0150762356691869)	(5.6613548192935461, -7.8826749767222228)	(-5.918939155423498, 1.2906676777921966)	(2.4794249042611352, 3.1378807908043047)	1.0	z	0.621615
21	M	A	A	N	N	B	B	M	M	8	7	shapes	M	1	True	124	(-1.7072078529504342, -2.1927994035374869)	(2.5968879942541445, 5.8593271409542371)	(5.8241954717180562, -1.8541494124805702)	(-5.8149561807590988, 7.661485092396024)	1.0	slash	0.95724
22	M	B	M	A	A	N	N	B	M	8	0	shapes	M	1	True	124	(0.025369497779491823, 1.921422992217348)	(-2.9643378316066142, 8.0871911835875174)	(7.4302624992199249, -6.1650377094322248)	(-6.1854763719574652, 3.9156619174053731)	1.0	z	0.768846
23	M	A	B	M					M	4	1	shapes	A	1	False	124	(1.192272881791574, -6.2236148368135336)	(4.1761544316610202, 5.9939987314311747)	(-2.3615274787447156, 2.0078254231029558)	(-8.3547638559433253, -2.283172872990054)	1.0	slash	0.722467
24	N	B	N	A					A	4	2	shapes	N	1	False	124	(4.8483287280261678, 7.0790430575650252)	(-5.7990883023863802, 1.0764564809109647)	(3.2987128744979479, -1.4149533979381204)	(-2.8441490810466616, -7.8453108771773605)	1.0	slash	0.767936
25	N	A	N	M					B	4	3	shapes	M	1	False	124	(-1.3416800604705275, 5.7358060126867727)	(-6.6485874895228427, -0.21135052614627448)	(5.6228406532972937, -5.9779627823314785)	(6.5702309065135722, 2.4851473072088321)	1.0	z	0.983676
26	M	A	B	B					B	4	2	shapes	B	1	True	124	(5.8411047239535794, 2.5268368590092791)	(-8.3327502232846413, -3.4564961841252346)	(-2.6426373659817495, 1.5052557385726395)	(7.1392890685433059, -2.3200575468075852)	1.0	z	0.597299
27	M	A	N	N	A	B	B	M	A	8	2	shapes	N	1	False	124	(6.3007774877158855, 4.3804958438328896)	(3.0110969929612548, -8.6311918832326509)	(7.0408627932105734, -6.4408476247594404)	(-5.9478084541277507, 2.5870551822660666)	1.0	slash	0.570234
28	M	B	A	B					M	4	0	shapes	M	1	True	124	(1.0862496335092349, -5.7257993092613617)	(1.7438594317276532, 2.9694967704493802)	(-5.0303370676607528, -6.3055973281949065)	(-5.8356387108134742, 5.9703552157519919)	1.0	z	0.674744
29	M	B	N	N					A	4	2	shapes	N	1	False	124	(2.1121089069467107, 1.9570764134916647)	(-3.2361397128235927, -1.0356990503298729)	(4.6580713263821263, -2.2569278725564317)	(-5.5234646668536698, 2.5344425359498093)	1.0	z	0.758353
30	M	A	B	N					N	4	1	shapes	A	1	False	124	(2.6067939931842101, -2.1964041762277269)	(-4.0774675459921648, 5.2970206260169306)	(5.4607410213850205, 2.9830164378076347)	(-6.6823245083418357, -3.4063345306443553)	1.0	slash	0.566012
31	N	A	N	A					M	4	3	shapes	A	1	False	124	(-8.5623417812139788, 5.9129311672665512)	(3.3989876392127769, -3.4211350404042769)	(7.8965964589919224, 1.6664374759740284)	(-3.9887552076370083, -3.1046730214613119)	1.0	slash	0.559662
32	N	B	N	M	M	A	A	B	A	8	6	shapes	A	1	True	124	(0.26452745962947688, 8.4530069814131785)	(1.8724057036670274, -4.2952559469287817)	(7.9926238338937985, -4.8708448418018051)	(-3.0951477291235774, 2.6793780724640204)	1.0	z	1.02162
1	M	B	A	M	A	N	B	N	A	8	0	shapes	M	2	False	124	(-5.9157695343613499, -5.5475964602692915)	(5.0625941851325216, 3.5561931436543333)	(5.8966580037348919, -5.4110702458635132)	(-5.9586127868924716, 5.2369035185172432)	1.0	slash	0.668833
2	M	B	B	A	M	A	N	N	N	8	7	shapes	N	2	True	124	(8.046767764957476, -2.2986488077564946)	(3.4192199560102026, 3.0106539275112816)	(-6.4558868669538807, 4.5680783100941049)	(-4.8868089745360361, 0.20743755274321174)	1.0	slash	0.978525
3	M	A	M	A					A	4	1	shapes	A	2	True	124	(-3.9179003851446774, 7.6420697209192134)	(4.8281293299032146, 0.32019109688710046)	(-1.1249542506916965, -1.4088334259011805)	(6.6837974012531554, -6.4724086508336205)	1.0	z	0.632158
4	N	A	B	A	M	N	M	B	B	8	3	shapes	A	2	False	124	(3.9752505821251329, -2.815942056577061)	(4.5287743799758218, 8.6781228397539039)	(7.3053922101152402, 4.9003746388822655)	(-6.3198429992132441, 6.156220239359115)	1.0	z	0.739885
5	M	A	B	N					A	4	3	shapes	N	2	False	124	(0.35820603783547256, -7.3997641699435661)	(-5.7923447966650086, 3.0406710465878639)	(-6.8237597964516707, -1.8682518600121352)	(6.6259333478766642, 5.6466100103474801)	1.0	slash	1.16669
6	N	A	M	N	B	B	A	M	M	8	3	shapes	N	2	False	124	(7.6278222470947377, 3.9850294661410395)	(-0.37193922078593644, -1.9174175641026947)	(5.9173163817151, -3.3962479530963927)	(6.4638849253181299, -8.5437665062766914)	1.0	z	0.721149
7	N	A	M	A	N	B	M	B	N	8	0	shapes	N	2	True	124	(6.7633840790257889, -1.0287771503424192)	(-0.11651399087768155, -3.0839783729866417)	(-6.9857229729250623, 2.8468063933928942)	(-5.8677430821755419, -1.2550500005109697)	1.0	slash	0.774349
8	N	A	N	B					N	4	2	shapes	N	2	True	124	(-4.1544586163498138, 3.9102874397038576)	(-4.9623428615376026, -4.7700039980732392)	(7.7285760774394383, -5.3425167807035621)	(6.0621749675528562, 4.8256393406809952)	1.0	z	0.662612
9	M	A	A	B					B	4	3	shapes	B	2	True	124	(7.5728621322149969, -2.5480432636771528)	(-8.0491584479231832, 0.14328218613277421)	(-5.6278059453653624, -6.7629588203679329)	(8.7164908764584865, 4.242665588195182)	1.0	z	0.716028
10	N	B	B	A					M	4	0	shapes	N	2	False	124	(3.6232011085355644, 3.438223838190364)	(-2.2669695366611693, -2.3805573495738308)	(-3.1264074477142847, 5.29711838261961)	(1.9931188881498105, -5.9484475700593631)	1.0	z	0.583806
11	N	B	M	A	M	B	A	N	N	8	0	shapes	N	2	True	124	(-6.3580591926516545, -4.5978328764241212)	(3.3715419801537614, -1.9742264351249341)	(-3.4198346479812951, 8.1618742139791607)	(-7.6874706661731471, 7.0478690515782585)	1.0	z	1.01287
12	N	A	B	B					N	4	2	shapes	B	2	False	124	(5.2263936610457868, 8.3487107687495588)	(-6.1384056835287684, -6.7198980047834773)	(8.6884288123006002, -6.7644835659593472)	(-0.095384942471156364, 6.8333521202014715)	1.0	slash	0.589166
13	M	B	M	A					M	4	0	shapes	M	2	True	124	(0.67300949097130847, 0.84086294215383717)	(-5.7177830447069233, 7.197733787024637)	(4.9681401964371652, -8.5871129412890905)	(-7.081262887933379, -5.8239474452115836)	1.0	z	0.464827
14	N	B	M	A					N	4	0	shapes	N	2	True	124	(-6.1816594066955224, -1.3873555449335075)	(0.39848363234236395, 2.4228635296560341)	(1.8545693591381038, -7.539844348461342)	(-3.3969614221659539, 7.5241644403340722)	1.0	z	0.534419
15	N	B	A	B	N	A	M	M	N	8	0	shapes	N	2	True	124	(-7.188566909486136, 6.1261729895633614)	(0.28635847802131131, -5.7021861769468662)	(-1.3316041621143002, 0.97878107401423975)	(6.985140260169505, -6.053671451815811)	1.0	z	0.686172
16	M	B	B	A					B	4	1	shapes	B	2	True	124	(5.8409924070615915, -4.4510723750885051)	(1.1380671470967609, 5.79748449004334)	(-0.73528658998116647, -3.0607645689048288)	(-6.3959731512803195, 8.5404686125131661)	1.0	z	0.447746
17	N	A	N	M	M	A	B	B	B	8	4	shapes	M	2	False	124	(5.9546208241003313, -2.2174292212386311)	(-5.1149299438826343, 4.9092241398348406)	(1.0570474798902101, 8.4391183143398045)	(5.4494914421609497, 4.1753982631141309)	1.0	slash	0.601437
18	N	B	B	A	A	M	N	M	A	8	3	shapes	A	2	True	124	(8.5051058981958505, -3.9327705055264017)	(-1.5996083641647001, -6.0711052125991687)	(-2.8813264948458865, 3.7623369321206894)	(2.5782474753807261, -3.6944396649707993)	1.0	z	0.644563
19	M	A	A	N					N	4	3	shapes	N	2	True	124	(0.9645025303478505, -0.039303481803449003)	(-7.4129933308904778, 8.4948804739583998)	(8.2210909274320372, 6.0005364550609475)	(-2.7660437113879492, -5.3534940566718614)	1.0	z	0.414732
20	N	B	N	A					M	4	3	shapes	A	2	False	124	(0.89821584460588788, 4.1512907812301272)	(-7.0921099862913026, 1.6681508585117122)	(3.3875946312657401, -0.72191990780187965)	(-0.91819716177135202, -0.79430301607574538)	1.0	slash	0.43034
21	N	B	A	M	N	B	A	M	B	8	3	shapes	M	2	False	124	(0.57421320067848747, -8.4494318017254209)	(1.8464279370876273, 2.9360985168816729)	(-8.6445439558321109, 3.3612838212617486)	(0.88550842824243148, -3.8215970999615587)	1.0	z	0.475648
22	M	B	A	M					N	4	2	shapes	A	2	False	124	(0.6612462431154924, 6.4565640855646347)	(-0.82079682463547332, -5.8786797425957547)	(-1.8742765381706068, 0.23788632647092101)	(7.9618329080225152, -8.2131986456369805)	1.0	slash	0.445902
23	N	A	B	A					B	4	3	shapes	A	2	False	124	(7.3054586074630272, -5.7286528942027086)	(-7.819373993266427, 0.30413624838002029)	(-1.856150891027097, -3.2336086826531929)	(2.6867328129054755, 2.1323413099081527)	1.0	z	0.98364
24	M	A	M	A					B	4	1	shapes	A	2	False	124	(-7.8646206505149987, 1.245826116933376)	(-3.8433024412630186, -1.3398129355634314)	(2.5485100433517438, -6.9070592289200743)	(1.3145688966325331, 0.49871896454491171)	1.0	z	0.781274
25	M	A	N	A	N	M	B	B	A	8	3	shapes	A	2	True	124	(-5.4542080560088912, -0.38325413690643906)	(0.37311966302859823, -0.80341191618020691)	(-6.4373152743141286, -4.964712949895703)	(0.6544384575876343, 6.1361441505670591)	1.0	z	0.858828
26	M	B	B	A	N	A	N	M	A	8	5	shapes	A	2	True	124	(-6.4427103744571683, -2.6553668674365225)	(4.876953019342718, 2.9340162015104454)	(-3.9243666289038792, -6.3590965937602135)	(-4.4368322418603601, 4.6861699389145741)	1.0	z	0.778412
27	N	A	A	B	N	M	M	B	B	8	0	shapes	N	2	False	124	(-1.7747069762010224, 3.6399041843730622)	(-6.9671006518054561, -8.5515320074934476)	(8.3951638457968585, 3.4445936187674082)	(-7.8269018471955372, -1.8225045295319795)	1.0	z	2.00197
28	M	A	N	N	M	A	B	B	B	8	7	shapes	B	2	True	124	(-5.7640544142003485, 1.7223062096643549)	(7.9023083293856722, 4.5950580605801221)	(-4.0624231792822894, -4.6045074935831627)	(7.5983381291374315, 0.56481014377949812)	1.0	z	1.36571
29	N	A	N	A					M	4	3	shapes	A	2	False	124	(1.1551428682955223, 3.9725555089155904)	(-4.433674589019744, 3.124956016808099)	(4.1001278611103356, -3.2303304087056715)	(-5.213012588143922, -7.019871757520951)	1.0	slash	0.453194
30	M	B	B	N					B	4	1	shapes	B	2	True	124	(-1.3399652622008418, -5.4538889258602739)	(-7.4761605255269687, 2.0334366996317321)	(5.6994635946492913, 0.7991752181723335)	(7.1078117806997234, -3.4585412860672529)	1.0	z	0.573214
31	N	A	A	N	B	B	M	M	A	8	5	shapes	B	2	False	124	(-6.8008491255065122, 4.871390020821126)	(1.9791038513203567, 5.2055679058279676)	(-0.63023386592551667, -2.151629783306511)	(-4.0648257595879764, 1.8982759577159953)	1.0	slash	0.628207
32	M	B	A	M	B	N	A	N	M	8	6	shapes	A	2	False	124	(3.9192819667458405, -2.3822577889934147)	(-0.9852605169825388, -1.0062874680046789)	(5.3276869789520056, -7.6465380565087102)	(6.711083829325478, 1.6827301122157028)	1.0	slash	0.712188
1	M	B	B	M					B	4	1	shapes	B	3	True	124	(-7.3813654637553832, 1.1539759726922139)	(-3.5357693489214341, -4.5263902841916597)	(1.6984959817815106, 3.6976431427327281)	(5.6330394515342608, -0.0048026120211535073)	1.0	z	0.515328
2	M	A	M	A	N	B	B	N	B	8	6	shapes	B	3	True	124	(3.5476737351241017, 6.5129931690671139)	(-0.19510399591660033, 2.2361661568764983)	(6.3054870083718431, -5.2419458313059675)	(7.8728811919048773, 0.40012696698063976)	1.0	z	0.72756
3	M	B	A	N	M	B	A	N	A	8	6	shapes	A	3	True	124	(7.9162493770387989, -7.4930903827458541)	(-1.1992674708965367, -2.2002923851380034)	(-7.2160169148716831, 5.9805809545271611)	(5.7314543282273718, -0.76122950241369036)	1.0	z	0.49641
4	N	A	M	A					A	4	3	shapes	A	3	True	124	(7.4046826856954659, -8.0803430122741204)	(5.0908119258060864, 7.5509786884953556)	(-8.5345691599095321, 6.1031937633705304)	(-3.6751305350544143, -7.5977387048521345)	1.0	z	0.591073
5	M	A	M	B	N	B	A	N	N	8	0	shapes	M	3	False	124	(7.2080458769470237, 4.9500983890069588)	(4.0842910737040512, -4.699061799160293)	(-1.9972438156261108, 8.576334707401351)	(-3.9725992936694237, -8.0161331503540971)	1.0	slash	1.56268
6	M	A	N	M					M	4	3	shapes	M	3	True	124	(8.2402737038006357, -6.1861280014154385)	(-0.15847124465384788, 8.0394201377488841)	(0.62921745706822207, 2.38207967915932)	(-4.5848565588295598, -6.8775692781723201)	1.0	z	0.330285
7	N	A	B	A	N	M	B	M	B	8	6	shapes	B	3	True	124	(3.3612264689107452, -4.3640749444042033)	(-1.6608886610497153, -2.9018091732610554)	(-3.7660233551917353, 3.8583590234509835)	(-6.9256087775323465, 8.2568056912385757)	1.0	slash	0.884013
8	M	A	M	N	N	A	B	B	B	8	7	shapes	B	3	True	124	(-4.25731883756547, 6.4827585689757772)	(-7.6426686955282248, -8.4790475615824317)	(0.14744493703055639, 6.145678151993069)	(-0.092646943734125742, -4.4703158360724)	1.0	z	0.567523
9	M	A	A	B	B	M	N	N	N	8	0	shapes	M	3	False	124	(-8.6130218939409495, -6.0316545012984282)	(5.7362901915045796, 4.6721156811948852)	(-8.3682696081219934, 8.4619491080324849)	(8.1926111683029568, -4.3465391207849438)	1.0	z	0.665227
10	N	A	N	A	B	M	B	M	B	8	3	shapes	A	3	False	124	(-5.9755580985998442, -7.1645551631384494)	(6.9420166430580412, -6.8575751165541288)	(-5.3849552584950526, 4.4774337601102161)	(-8.1712470088207478, 8.1225143448758494)	1.0	z	0.638879
11	N	A	N	M	M	A	B	B	N	8	4	shapes	M	3	False	124	(2.6056740786882031, -3.2295278467551674)	(0.66401284400707361, 3.1359755620684506)	(-2.4866531977081845, -0.14096522004786038)	(-6.1349902826942495, -3.6239668874887503)	1.0	slash	0.618137
12	M	B	M	B					N	4	2	shapes	M	3	False	124	(-5.3331579108706286, -2.7186704246274358)	(-0.76256290193283771, 5.7189618172297418)	(4.5071702133330938, 5.4029005044161238)	(6.9803203145652208, -3.5445214973591224)	1.0	slash	1.00626
13	M	B	B	M	N	N	A	A	M	8	3	shapes	M	3	True	124	(-4.90290310141385, -2.2718219669380053)	(5.6354716898190116, 4.546353546991595)	(8.1245656299328957, -7.7269877826714746)	(-7.1086887748243441, -8.4331785888423525)	1.0	z	0.865957
14	M	A	B	N					B	4	2	shapes	B	3	True	124	(-6.1674163100191057, -8.3481101090784549)	(5.8589137482655076, 7.7911039032345499)	(6.9342297232337682, -3.6538783990629558)	(-8.1842177738497917, 1.6725492128200035)	1.0	z	0.711481
15	M	A	B	N	B	N	M	A	M	8	6	shapes	M	3	True	124	(-2.1063113724685394, -0.70288416061923975)	(7.4102363331593359, -1.4035299620096735)	(-4.9529839824439819, -4.2532886835938815)	(6.7018406766133349, -7.3682104098975474)	1.0	slash	1.05914
16	N	B	B	M					B	4	2	shapes	B	3	True	124	(-3.0200827504636276, -4.3302737576193628)	(-4.367310386237869, 7.7735606670414228)	(3.1196783037113907, -1.530650610179773)	(3.213463180477321, 3.5451700979914609)	1.0	z	0.712797
17	N	B	B	M					N	4	1	shapes	B	3	False	124	(6.2593833095869087, -3.2273885688594026)	(3.6982902671011697, 1.8120754971498165)	(-2.2599200342654413, 1.1742212152659963)	(-3.3420232300070811, -4.2011841504323071)	1.0	slash	0.540389
18	N	B	B	M	M	N	A	A	M	8	7	shapes	A	3	False	124	(5.2510258820164548, -4.7535148700125731)	(-0.35106467564989075, 8.6587326941584166)	(-7.4204530492487066, -4.0383126020163962)	(7.5641297163197372, -0.62179799542595582)	1.0	slash	0.74818
19	M	B	B	N					A	4	1	shapes	B	3	False	124	(-3.7161110478241941, 5.2004322204563209)	(1.1413379707057114, 0.029208822162949843)	(5.3966399452600218, -2.8195099969342374)	(-6.2073604093522174, -0.28565989635806943)	1.0	slash	0.573769
20	N	A	M	B					A	4	2	shapes	M	3	False	124	(7.1313293465185748, 0.78475756489092774)	(-4.9396386179462919, 4.0492337554888369)	(-2.946240707417517, -3.9983828675671145)	(4.2566897201499199, -6.9283812576715018)	1.0	slash	0.621372
21	M	A	B	N					B	4	2	shapes	B	3	True	124	(4.9614588766497398, 4.3248442327908929)	(-7.910839504730431, 2.9121283382769185)	(0.049353981286374804, -4.9097609227303183)	(-7.9213519714157421, -6.4105601787481614)	1.0	z	0.5632
22	M	B	N	N					N	4	1	shapes	B	3	False	124	(6.5972091721447033, -7.5628005246752732)	(-6.412733126769564, -5.9079944333177759)	(-3.8736158265505267, 1.4398550557802139)	(2.8214854860941596, 4.6153212393849863)	1.0	slash	0.660717
23	N	B	M	M	N	B	A	A	M	8	1	shapes	B	3	False	124	(7.1371107261423941, -3.9396438682799957)	(-3.347712875809445, -2.0043011561293413)	(-5.6613674436117147, 3.8235260763092302)	(7.6530223251551881, 4.5360181212702422)	1.0	slash	0.6026
24	M	B	N	N	B	M	A	A	A	8	1	shapes	B	3	False	124	(-7.3252111471638681, 1.4618387364569152)	(-5.7013963812535131, 5.9900502260053141)	(1.8116347490843019, 6.233666287731511)	(5.7107766281982197, -0.57570874661105442)	1.0	slash	0.997693
25	N	A	M	N	A	B	B	M	A	8	4	shapes	A	3	True	124	(-6.1751193982526456, 6.8137790451850471)	(-6.1305361228699926, 2.2166355084405485)	(7.5377769636820524, -6.0893171252965406)	(6.7802256238595628, 7.2826386705392672)	1.0	z	0.697763
26	M	B	B	M					B	4	3	shapes	M	3	False	124	(4.4252604383113496, 1.4423347826299064)	(-2.5943162993447855, -1.9427126440293705)	(-0.78072935824975787, 3.6557782761570188)	(8.3974359756617147, -5.7008543802244329)	1.0	slash	0.525537
27	M	A	N	M					A	4	2	shapes	N	3	False	124	(3.4986444941479711, -4.1131997311771338)	(-7.1511652826051062, -6.860507316021252)	(0.93709766982258103, 0.74482678578594808)	(-7.3586751590434378, 0.38991581124467878)	1.0	slash	0.663159
28	M	B	N	A					B	4	1	shapes	B	3	True	124	(5.9125964441839116, -3.5645472109674525)	(-4.4123191342080084, -1.9501721047185434)	(6.6684177607757995, 8.3030438638886288)	(-4.2399619976356924, 3.6854505731595637)	1.0	z	0.404797
29	N	B	M	A	N	M	A	B	N	8	0	shapes	N	3	True	124	(-4.9212374612207324, 4.1172742827895856)	(-4.0313889776397067, -0.030789469741238307)	(-1.2194058325098878, -3.1086799080621725)	(7.0583597287482647, -2.1259867525738825)	1.0	z	0.58381
30	M	A	B	A					M	4	3	shapes	A	3	False	124	(2.2622575550379551, -5.7856240166989155)	(-5.8715525725062996, -7.0248197838164526)	(2.7289429000771808, 7.7291844312046649)	(-1.3146564485549472, 7.8722104055271771)	1.0	slash	0.556032
31	M	B	B	A	A	N	N	M	M	8	3	shapes	A	3	False	124	(-7.0363232361347379, 1.5364895650843273)	(3.8187088038613606, -4.8293166108186867)	(-3.6699707548303344, -7.3590598335420889)	(4.7245623111527042, 1.2783120229774418)	1.0	slash	0.503837
32	M	A	A	N					M	4	0	shapes	M	3	True	124	(-1.2989127630518773, -2.8109943448546062)	(4.5071467034739587, -3.1723645301307597)	(-6.7695436468099377, 3.8544984576765913)	(0.28865592997446932, 3.3712979221514239)	1.0	z	0.64558
1	N	A	A	M	M	B	N	B	N	8	6	shapes	N	4	True	124	(2.8826053811382391, -5.6679142676330754)	(3.2102822215073488, 3.2575557432611113)	(-1.650355526267929, -8.2186273167616086)	(-6.7469142417022994, -5.3371198869462475)	1.0	slash	0.797214
2	N	A	N	M					A	4	0	shapes	N	4	False	124	(2.6385239170785582, -7.8665691099968171)	(0.67842058280235484, 8.0350521802413546)	(-7.5669824731043693, -0.32819937522646292)	(-3.6458279388422508, 3.5342801851476668)	1.0	slash	0.512767
3	M	A	N	N	M	A	B	B	N	8	6	shapes	B	4	False	124	(-4.1712563803638565, -5.2757080977301598)	(2.3822354554779643, -7.2673642969647396)	(-2.9457962430469262, 8.1456722113856976)	(5.7040462288698013, -1.1207609049993801)	1.0	slash	0.859905
4	N	B	M	M					N	4	0	shapes	N	4	True	124	(5.8865023824023801, -0.58762626824017694)	(-7.7193449163927923, 2.3677373537024149)	(-6.5912662614772959, -5.8167441125801185)	(3.5716176783263158, 4.4313868676811676)	1.0	slash	0.386055
5	M	B	A	M	N	N	B	A	A	8	3	shapes	M	4	False	124	(-7.6740866739711766, -2.0498043233367014)	(-0.74683793725760061, -1.8435031928329764)	(-7.9073020008195574, 5.271095998778625)	(2.6068882500088009, 0.81454855500817303)	1.0	slash	0.76692
6	M	A	M	B	N	B	N	A	A	8	3	shapes	B	4	False	124	(1.5548297192296499, 2.732439964677603)	(2.3709719736711712, -2.8912622440781988)	(6.8455499037595455, -0.78621445445019145)	(5.5797683415167132, 4.33608549294871)	1.0	slash	1.0174
7	M	B	M	N					B	4	0	shapes	M	4	False	124	(-5.2260610141015249, -7.1574902217485237)	(2.9052758690940621, -0.85748337678445807)	(-7.5257566900938322, 3.7748548333083445)	(6.9797875929880373, 3.5826701705680932)	1.0	slash	0.665114
8	M	B	A	A	N	B	M	N	A	8	2	shapes	A	4	True	124	(-6.7557303875896606, 4.3697326352177246)	(5.3525157800719096, 0.71281894402809165)	(1.0527411841345025, 4.7623487858038089)	(-6.252154740803153, -6.9112052459869036)	1.0	slash	0.684733
9	M	B	M	B					N	4	0	shapes	M	4	False	124	(-2.2413913128180267, 2.7763287924561606)	(5.2918696366186353, 8.5113589790392012)	(-6.7433076631762852, -7.3217870834742467)	(6.8245055373859387, -6.9056489751793695)	1.0	slash	0.558395
10	M	A	B	N	M	N	A	B	A	8	5	shapes	N	4	False	124	(4.1586295592250977, 2.2136530559543228)	(0.69279753795252574, -1.5356550741252999)	(-0.46907817202061963, -7.7825297081062956)	(7.902548137344823, -4.1452270927234416)	1.0	slash	0.754233
11	M	B	M	B	N	N	A	A	B	8	0	shapes	M	4	False	124	(-0.28213992937819299, 3.2354927514729113)	(-3.3647368798535808, -2.8787878656948092)	(4.3899127859740172, 0.78363975311733292)	(4.4847952880042943, -7.172409190869395)	1.0	slash	0.639147
12	N	A	A	M	M	B	B	N	B	8	0	shapes	N	4	False	124	(-6.8142401796559957, -7.7800067561509954)	(0.094834398278141663, 1.701508881956455)	(3.0000237455709353, -8.2659879414413009)	(-5.4432878010471599, 2.0489572756615413)	1.0	slash	0.667492
13	N	A	B	M					B	4	0	shapes	N	4	False	124	(-5.9827583783291907, 4.7397512943491193)	(-8.0522564057664923, -7.6667269739928798)	(8.4204291670261462, -1.1165516734860246)	(3.8256827977662908, 4.397672708161851)	1.0	slash	0.53716
14	N	B	M	A					B	4	1	shapes	B	4	True	124	(6.2321428178577616, 1.0790393527813045)	(3.3244969977153591, -4.3549835139899304)	(-5.275931130857126, -7.6643952073321753)	(-2.2394000785341488, 0.38663172620785602)	1.0	slash	0.472803
15	M	A	A	B					A	4	2	shapes	A	4	True	124	(4.7035833330590595, -8.6841343847134862)	(-6.1686449684641413, 8.4490924071440539)	(4.4548098406202232, 3.9639345162839934)	(-6.4150863516143852, -5.3743984439653971)	1.0	z	0.500569
16	M	B	N	B	M	A	A	N	B	8	1	shapes	B	4	True	124	(-8.3022929293216556, -3.0063674527219497)	(-5.1949468216514259, 5.1213606837971781)	(0.7485370268133984, 0.70142826705058603)	(-2.5183432600176063, -3.4855354779709025)	1.0	slash	1.10011
17	M	B	M	B					A	4	0	shapes	M	4	False	124	(8.0360900977069818, -7.664581476480623)	(5.3174281445887956, 2.3327269362944012)	(-5.4284442176414647, 0.60675639697263328)	(-1.085214752111396, -5.6359940947354943)	1.0	slash	0.79379
18	M	A	N	A	M	B	N	B	N	8	5	shapes	B	4	False	124	(5.4058814925932079, -8.4386201796497549)	(3.7816830782795492, 6.5855289095223206)	(3.6143094233316972, -2.1213994689463815)	(-7.3302737082740421, -0.33254299158463674)	1.0	slash	0.62153
19	N	A	N	B					A	4	1	shapes	A	4	True	124	(-7.9412411525551301, -1.8499058876821781)	(2.0319365807845138, 0.99555868126204672)	(2.8716046184854669, -6.4270500482464179)	(-4.9641029488968673, 6.0378320844907858)	1.0	z	0.811227
20	M	B	N	B					N	4	3	shapes	B	4	False	124	(4.8296153373693489, -0.65470881432524308)	(-7.6605681042917713, -3.5649579478864046)	(5.1523323515041994, 3.8431210161865366)	(-0.92786934383912456, 4.9480634215893762)	1.0	slash	0.594701
21	N	B	N	M					N	4	2	shapes	N	4	True	124	(-2.2846599300502257, 1.6993717791665865)	(7.7051096333418272, -2.2825198430841285)	(2.6261227854132621, 2.4958553978985627)	(-5.8450809913186621, -5.5299811925323592)	1.0	z	0.470328
22	M	B	N	B					M	4	0	shapes	M	4	True	124	(2.785193852521461, -7.4175882986336461)	(-3.0998623319132719, 3.6253612513946454)	(-7.2190337578996635, -0.98089021629881756)	(1.6544058693514696, 8.2873078988001083)	1.0	z	0.820459
23	M	B	N	B					M	4	2	shapes	N	4	False	124	(-5.3372179112054488, -3.8432042101987243)	(-4.1933619163330356, 8.3977162407206869)	(2.9069886775062521, 3.9358217331209779)	(7.0580589334638422, -3.5616467497105653)	1.0	slash	0.597762
24	M	B	A	B	N	M	A	N	M	8	5	shapes	M	4	True	124	(-0.66562553472245689, -7.1178932587929911)	(-4.5880920412792001, 8.4582610412716299)	(7.4697972925449037, -6.1517447373357985)	(7.8872756085913203, 1.839982920272945)	1.0	slash	1.20942
25	N	A	N	A					B	4	2	shapes	N	4	False	124	(-5.0646532027476105, 7.4954456558142155)	(3.6922942434597132, 0.91163872167214599)	(0.26883305573683636, -7.8103416437009852)	(-6.6095680399686234, -6.6376084840436267)	1.0	slash	0.545076
26	M	A	A	M					A	4	1	shapes	A	4	True	124	(4.0115728830399799, 2.7337793807151058)	(7.428321497516567, -7.7145735004593021)	(-5.5504649733009535, 1.0513720640538278)	(-8.5095078938359681, -3.9657604818855106)	1.0	z	0.684707
27	N	A	M	N	M	A	B	B	N	8	0	shapes	N	4	True	124	(-7.3740573809789467, 1.2048158314912332)	(-1.0452429909002072, 8.5316510061231661)	(2.1321082511086438, -5.5675984778649301)	(5.8287320982460731, -0.52272840558380551)	1.0	slash	1.06243
28	M	A	A	B	N	M	B	N	A	8	1	shapes	A	4	True	124	(5.8823143492809749, 1.9312879825753022)	(-7.3047156508880082, -4.6396153717359025)	(1.3481512790557915, -0.52084996531649352)	(0.71632590275177321, 4.5513521932751448)	1.0	z	0.676027
29	N	A	M	M	N	B	A	B	A	8	6	shapes	A	4	True	124	(3.674347708799802, -1.7246252593325497)	(4.7256826562089227, 7.2306080088813367)	(-6.0004570102405888, 1.2300924755568197)	(-1.9020313954201518, 3.7423853245136396)	1.0	z	0.565849
30	N	B	M	M					N	4	0	shapes	N	4	True	124	(8.7235702091931309, 1.887910140903962)	(-4.3759057317864283, -0.84609452838073729)	(6.6240325687644486, -3.31054274630492)	(-4.3456986045567172, 6.3913447177982103)	1.0	z	0.595229
31	M	B	M	B	N	N	A	A	N	8	2	shapes	M	4	False	124	(-8.7353170605114006, 1.7258845542354493)	(-1.1201051855484092, 8.0262982254083646)	(6.6832665784203797, 5.7398404022471698)	(6.5227854503415212, -1.2899799878683496)	1.0	z	0.704401
32	M	B	B	M	A	N	N	A	B	8	1	shapes	B	4	True	124	(0.85049881717496056, 7.8695978195964997)	(-8.5144431735985577, -5.765266480450185)	(-3.2067152092517723, 0.9330369015024047)	(0.012235314250364837, -5.6527049321914795)	1.0	slash	0.718742
1	M	B	N	M	B	N	A	A	N	8	5	shapes	N	5	True	124	(1.0186704277095053, 5.1857875684505039)	(-2.8306832579155365, -5.3087444572152709)	(-1.6424319204053734, -0.73335244762964713)	(2.7015035094377424, -5.1415506411786982)	1.0	slash	0.908244
2	N	A	B	B					B	4	3	shapes	B	5	True	124	(-5.2203598555102957, 1.1844612526414924)	(1.0650690060428492, 4.9647472326171442)	(3.9445231872243873, -0.31157500177083186)	(-7.9685538204299995, -5.6277713549018111)	1.0	z	0.703919
3	N	A	A	M					N	4	0	shapes	N	5	True	124	(8.5403049185485358, -7.40918227559116)	(7.1814106257743582, 3.3823043253602325)	(-5.5302556372451157, 3.0359253460272004)	(-8.0186801613206597, -1.3109990504953188)	1.0	z	0.637631
4	M	B	B	N	A	M	A	N	M	8	3	shapes	N	5	False	124	(-6.3288601386911765, -8.0811390655428763)	(2.3564402836963705, -0.84858943145529331)	(-7.7598670251220101, -1.3940204933712579)	(7.0679324276252338, -3.0674316897825111)	1.0	slash	0.897233
5	N	B	M	B	A	N	M	A	M	8	7	shapes	A	5	False	124	(-7.2197998883114813, 0.60887307262466273)	(5.0161620324044875, -5.0996259536278847)	(-6.6448172520701245, -4.5042263406107086)	(0.23575685988884132, -5.471617810961698)	1.0	slash	0.961024
6	N	A	N	M	B	B	M	A	M	8	7	shapes	A	5	False	124	(4.6560753397464349, -7.9810047067269245)	(-8.048840988217778, 5.4472103970239356)	(-8.6474177004791795, -2.3033882526044795)	(-2.5684761060442582, 7.3064155943152187)	1.0	slash	0.750075
7	N	B	B	N	M	A	M	A	M	8	4	shapes	M	5	True	124	(4.1794227088237879, -3.0591691195026076)	(-4.8765280971232787, -5.1903999753003642)	(-8.3899556909630366, 3.906248849269927)	(6.3637245531915418, 8.4034708527940083)	1.0	z	2.42023
8	M	B	M	A	B	N	N	A	A	8	3	shapes	A	5	True	124	(-0.72139765531565558, 7.2842440007752138)	(-2.1333255953258439, -4.7671547545911972)	(8.1072903652588835, 5.3893612664701003)	(4.2139934115110602, -3.4757741124219326)	1.0	slash	1.01969
9	M	A	B	N					M	4	1	shapes	A	5	False	124	(-1.8707284302703275, -5.4439456168031217)	(7.0037979373554737, -2.3550932559797069)	(-2.6972443808773203, 4.2489926922629255)	(8.0258090509588556, 8.7310233644684168)	1.0	slash	0.65729
10	N	A	N	A	M	M	B	B	N	8	0	shapes	N	5	True	124	(-5.6374556935690787, 7.2090212964842042)	(-1.1344567736579165, 8.6210625470529436)	(1.4873810730911465, 1.5920294522376235)	(-0.0064867424103489668, -5.2386579733877969)	1.0	slash	0.593131
11	N	B	B	M					A	4	1	shapes	B	5	False	124	(0.87783772011284888, -4.7125900249020036)	(-8.4668511620827456, -5.6459129464402675)	(-7.2254321418299234, 1.9035783191276572)	(1.761218229086996, 1.5422824031336599)	1.0	slash	0.828706
12	N	B	A	B					N	4	1	shapes	B	5	False	124	(4.1719894781236402, 0.81117301205059178)	(-2.7640851100330757, -0.21147104733132593)	(1.8090759295002954, -5.8501039857855677)	(-6.7592107620921666, 3.7212125197183088)	1.0	slash	0.624376
13	M	B	N	N	B	M	A	A	B	8	1	shapes	B	5	True	124	(3.7320405577748748, 6.7906541567716481)	(1.5845171494534558, -4.4737677080131686)	(-5.8334809440505886, 4.4733282944919246)	(7.8996079296408332, -8.7432412181486292)	1.0	z	0.974011
14	M	A	A	B					A	4	1	shapes	A	5	True	124	(-2.2111100287267558, -5.5351725274075765)	(5.5443681752355953, -1.9316681250005923)	(-7.2169526327266773, 6.1509830777691761)	(0.54502256469877253, 6.7895512574006869)	1.0	z	0.531584
15	M	A	M	B					B	4	3	shapes	B	5	True	124	(-5.0951393724481662, 7.6381862079079603)	(4.2119121954082619, -7.3246100294253882)	(1.6373682470375623, 1.3361583281729654)	(-7.5436512748889486, -4.5441087497834571)	1.0	z	0.427375
16	M	A	N	N	M	B	B	A	N	8	6	shapes	B	5	False	124	(-7.3657725995000174, 7.1855088690767257)	(4.1212412422323013, 7.7313598840434388)	(-2.205862506527378, -3.6558515803102667)	(-7.7560785680909801, -0.22107118214894328)	1.0	slash	0.519865
17	M	B	B	M					N	4	0	shapes	M	5	False	124	(3.454534119710253, -3.5715666097897429)	(-1.0122639049152129, -8.5783130414563207)	(1.4318806977873493, 6.2186138933396435)	(-7.3398710409727244, 0.64303146960987512)	1.0	z	0.506584
18	N	A	N	A	M	B	M	B	B	8	4	shapes	M	5	False	124	(-8.739989346857687, 1.0923683432048374)	(8.0360851669595839, -5.7780154763904061)	(-0.16019613577930869, 1.609211844570817)	(-2.2243804989072986, -8.4911795495903277)	1.0	slash	1.61597
19	N	B	M	M	B	N	A	A	N	8	6	shapes	A	5	False	124	(-2.2442522451415075, -7.6508186216806884)	(-4.7346185684077629, 5.7423475656602605)	(0.50008520993476502, 4.6782654624629902)	(0.25916837131684467, -1.6330663040133135)	1.0	slash	0.871953
20	N	B	B	M					B	4	3	shapes	M	5	False	124	(1.8753420315513658, 3.099749481926823)	(5.1954913615754261, -5.7074972160525794)	(-5.8946076755756955, -3.0283172968641674)	(-4.6186660877817038, 7.07894835351917)	1.0	slash	0.659552
21	N	A	B	M					B	4	0	shapes	N	5	False	124	(-0.42894336199346839, 5.2767286654676298)	(8.3119854472575518, 3.4842163307264524)	(-6.8869983950132747, -5.9800729223742577)	(2.1817206416859758, -3.3689491294173584)	1.0	slash	0.513286
22	M	B	A	B					N	4	2	shapes	A	5	False	124	(3.3448378743451173, -5.6655793901350933)	(-2.6129988274587319, 3.3183617276215625)	(-7.3162560787509667, -2.592296462337254)	(3.6348004510090579, 8.208640750695146)	1.0	slash	0.458834
23	M	B	N	A					M	4	1	shapes	B	5	False	124	(0.98361386682187657, -6.4370575440355564)	(-5.0748104516212518, 0.03158219266348361)	(6.6023389006693733, 6.5772260054498588)	(-7.3468632343185991, -6.5653968421756392)	1.0	slash	0.480697
24	M	B	A	M					A	4	2	shapes	A	5	True	124	(0.23207775680954512, 4.7967286923153054)	(-5.7464998591203518, -1.5299498861721963)	(6.1739200874637969, -2.038791931029178)	(-4.4109129364293578, 7.9595198978065937)	1.0	slash	0.386233
25	N	B	B	M					B	4	2	shapes	B	5	True	124	(-3.6898277526670551, 6.8945976469632377)	(7.1472068263858795, -3.4260184973996033)	(-2.0322682005140296, -4.6761784729451312)	(2.9473785932549088, 4.4385817951726647)	1.0	z	0.327605
26	N	B	A	B					A	4	2	shapes	A	5	True	124	(8.7360657769967709, -4.7604960174950586)	(-4.6574174185539601, -7.9154927329380396)	(-0.52605037698739388, 8.5819611816816526)	(3.5410100569309009, 5.3532562700159136)	1.0	slash	0.543744
27	N	B	B	N	A	M	M	A	M	8	6	shapes	M	5	True	124	(-0.94548820524449884, 0.33106052836527766)	(3.794496793001219, 8.215186521050466)	(5.7771108215714975, -8.1263995897643326)	(-6.0838539123536712, 2.9645523909382181)	1.0	z	0.927784
28	N	B	A	M	A	M	N	B	M	8	0	shapes	N	5	False	124	(5.8283033840806659, -4.4236277941694135)	(-7.234271401440628, -1.0034736212085518)	(2.5348190109198754, 5.4404540215356718)	(-7.9923243696165134, -4.9835239135322045)	1.0	slash	0.748999
29	M	A	M	B	A	N	N	B	M	8	2	shapes	M	5	True	124	(-3.4068796683850682, 6.5912232211007247)	(4.815172367552135, 2.9827214562087168)	(-4.786080808867772, -2.4470598895419418)	(-1.7235595390446203, 1.4327998619835611)	1.0	slash	0.770642
30	N	B	N	B	M	M	A	A	A	8	7	shapes	A	5	True	124	(-7.5122766671334471, -4.5323203134115033)	(6.7056606484912678, -3.5725736432198421)	(-1.3243791997773142, -2.7819643802644203)	(-0.23943039855769044, 2.993705476815844)	1.0	slash	1.15637
31	N	A	N	B					N	4	2	shapes	N	5	True	124	(-5.5162237391760218, 2.2564650170381952)	(0.66193950606310281, 8.2139799740125348)	(2.5030489152636477, -7.4008605225920983)	(-4.6623293738986709, -6.0863570075009878)	1.0	z	0.5339
32	M	A	M	N	N	B	A	B	A	8	2	shapes	M	5	False	124	(1.8419686187440494, -0.064736929937778243)	(0.04518441138706919, -4.9540960995472458)	(-6.4801941456357532, 1.3132211622392482)	(4.3345865096293981, 4.1508934013251793)	1.0	slash	0.541727
1	N	A	M	A	M	B	B	N	M	8	0	shapes	N	6	False	124	(0.23968709928555221, 3.8483028473885739)	(-4.1781583972406766, 2.1374231114441056)	(-0.65760247737690847, -4.475208698482243)	(0.028915131461712207, 8.0390488908798652)	1.0	slash	0.759268
2	N	B	M	N					B	4	3	shapes	N	6	False	124	(-4.9880441711787924, -7.959348688837272)	(1.2198845478138676, -8.0756604078169918)	(-8.7236928151424742, 6.4650515198560186)	(7.7202164283863759, 3.4546073609280832)	1.0	slash	0.578958
3	M	A	A	N					A	4	2	shapes	A	6	True	124	(6.6023075091035057, 2.1761826990309139)	(8.3083047165087649, -3.74624682349633)	(-3.2614220660189996, -7.7956367031295475)	(-3.9351859296623015, 7.0588319130330763)	1.0	z	0.526585
4	M	B	A	N	N	M	A	B	M	8	0	shapes	M	6	True	124	(-3.1994686949424773, 5.8281098911177729)	(-2.0046892452871017, -5.3239194516350077)	(4.885371487370648, -6.9161312964722637)	(-4.5634461904812333, -8.7457091271571166)	1.0	slash	0.592293
5	N	A	M	B					N	4	0	shapes	N	6	True	124	(0.87247389058611091, -7.5269465864039296)	(-6.6535068651866212, 3.3251743325026517)	(-3.9740800489317829, -1.3634296765681135)	(2.0763336803445895, 3.9167346074919323)	1.0	z	0.867915
6	M	B	B	N					N	4	1	shapes	B	6	False	124	(-7.2094274112351, 1.2505357584993462)	(-5.2798286097619949, -7.543865923513926)	(7.8647772473589228, -5.4174174017998871)	(4.6464020114636302, 4.8078632369481422)	1.0	slash	0.626263
7	M	A	N	A	B	N	M	B	B	8	4	shapes	B	6	True	124	(7.5708555626517295, -0.47339744852699184)	(-6.6361883681844116, -6.6582214915853868)	(-7.9590398107666331, 0.75614952855497819)	(8.5083686331386055, 7.9008751302325066)	1.0	z	0.771162
8	M	A	M	N	B	B	A	N	B	8	4	shapes	B	6	True	124	(-2.8663042772570808, 2.4215904094971865)	(6.2101214500134052, -3.4054858276948652)	(8.1678704085406579, 0.10967208206944612)	(1.9687491359373599, -4.2839615324021709)	1.0	z	0.586869
9	N	A	B	N					N	4	0	shapes	N	6	True	124	(4.6451135139543531, 0.23609892052177273)	(-5.2116989586227582, 4.5749813614641273)	(-3.7426395071385041, -3.4971195708080165)	(1.2731341674307508, -5.6749097137901856)	1.0	z	0.376659
10	N	B	N	A					B	4	1	shapes	B	6	True	124	(-3.6907757724530148, 0.368559856547515)	(-8.3502165503183843, -1.5240798597139262)	(0.97477024278758684, -0.40144838428538421)	(5.5585161225731383, 3.0762449300147665)	1.0	z	0.35831
11	M	B	A	A	M	B	N	N	B	8	3	shapes	A	6	False	124	(-8.44103439397378, 4.4561933780840786)	(6.2703885922005842, -1.4395771338141961)	(-5.374721090326485, 7.3347900793477585)	(4.7158146140040689, -5.8169935981282119)	1.0	z	0.713325
12	N	A	M	A	N	M	B	B	N	8	4	shapes	N	6	True	124	(-2.4154156276614565, 4.2053087826123612)	(0.019230388485468097, 0.55479829737446629)	(-5.0094860279207776, -2.2452043784323017)	(4.699953482804597, -6.1716425679847582)	1.0	z	0.453735
13	M	A	N	A					B	4	2	shapes	N	6	False	124	(-2.4034615558016084, 1.9684135066200099)	(6.8994566323647426, -6.9824197016663936)	(4.146646969447719, 8.6275900907064802)	(-5.3706042130615206, -1.5950645065623394)	1.0	slash	0.507267
14	M	B	A	N	M	A	N	B	A	8	7	shapes	B	6	False	124	(-1.3824878684957076, -3.5495710052440144)	(8.6348820472041261, 8.4965768314219972)	(-8.5085135830828946, 7.0272113744754865)	(-4.9600862798969008, -8.54187070280196)	1.0	z	0.944847
15	N	A	M	M					B	4	2	shapes	M	6	False	124	(-2.2723885476645727, -7.3947232619372851)	(-1.9774446483921571, 2.8201670984846494)	(7.7750336730682648, 5.2433957011970147)	(3.6960752212067209, -7.0141119166891883)	1.0	slash	0.900793
16	N	A	B	N	B	M	M	A	M	8	3	shapes	N	6	False	124	(2.5978510689846583, 0.25738067764241279)	(-3.1655925244571561, 0.9505579405811968)	(-8.5053522229181411, -2.8990906092995168)	(7.9572431309204994, -4.8924494782252896)	1.0	z	0.836129
17	M	B	A	A					M	4	0	shapes	M	6	True	124	(-6.7896392240413164, -6.636013229868853)	(-0.71624964137642166, 7.2317015229625206)	(5.6867781985130552, 1.8566601920211383)	(2.9739892574047069, -7.9935562267519131)	1.0	z	0.589835
18	N	B	B	A					M	4	2	shapes	B	6	False	124	(2.1015157266845641, 5.2287536006770878)	(-1.1393552207294153, -0.38235297930033063)	(4.5588154475294989, -7.7035855920418772)	(-8.6762723431794093, 5.4202065021176242)	1.0	slash	1.53752
19	M	B	N	N	B	M	A	A	M	8	0	shapes	M	6	True	124	(-3.4891812046309463, -7.3284614065281399)	(0.69843717264796013, 2.6008290414735846)	(5.6549608556286177, 5.6950822205544451)	(3.1008384020465805, -1.0027035487556439)	1.0	z	0.649174
20	M	A	B	M					B	4	2	shapes	B	6	True	124	(1.3124179890556551, -1.3844131882126192)	(4.2690343075013661, 7.0572921690125412)	(-4.5839746311154244, -0.18278650568756305)	(-6.4579773753304135, 5.5492646971085744)	1.0	z	0.656639
21	M	A	N	A	M	N	B	B	N	8	0	shapes	M	6	False	124	(6.9031947382696757, 3.1994004480608407)	(1.7399216889406723, 3.7768421620653907)	(-1.5276839839727039, 0.52013206533047729)	(-8.3293139296655365, 8.5273072258828648)	1.0	z	0.822522
22	M	A	M	A	B	N	B	N	A	8	1	shapes	A	6	True	124	(2.1963406337208653, -1.7101987200729738)	(-6.0349025837902284, 4.6252443753995074)	(-4.5229242719926095, -0.74992256869484386)	(0.31275213285064574, -8.6471243095565491)	1.0	z	0.772041
23	M	B	B	N	M	N	A	A	B	8	7	shapes	A	6	False	124	(4.2162072195980933, -5.8811746960275189)	(-0.43980310891467056, -7.4375493524310183)	(8.5073807829151313, -1.8437400663919741)	(-0.85190164802438151, 5.818876617727069)	1.0	slash	0.627906
24	N	A	B	B	N	A	M	M	B	8	4	shapes	N	6	False	124	(8.5344526811650958, -5.3189493029083206)	(3.2905723664215785, 3.3965912105050542)	(8.2243217376698254, 7.0777418923386879)	(-1.8051759064669408, 4.3107418137542872)	1.0	slash	0.528911
25	M	A	A	N					B	4	3	shapes	N	6	False	124	(-5.4518764218137141, 6.4508091489691903)	(8.3639727089008211, 7.0650060433338364)	(-4.0260948667125138, -0.90168105514146113)	(0.21005589945790426, -4.7992869715998472)	1.0	slash	0.529119
26	N	A	B	B	A	M	M	N	N	8	0	shapes	N	6	True	124	(-6.7361039855679898, 8.1712838040964826)	(-2.7531580098502451, -5.7571802504331071)	(-5.774142977398153, -2.5847634124427668)	(5.2333536143269068, -0.8278202885508037)	1.0	z	0.626775
27	N	A	A	N					B	4	1	shapes	A	6	False	124	(7.5501087902806034, 2.1272454685574829)	(1.6769679578042105, -4.4464456617638675)	(-2.4545993192114182, -5.8220611277428107)	(-5.8992575017638362, 4.4131736764053713)	1.0	slash	0.568541
28	N	B	N	B					N	4	0	shapes	N	6	True	124	(-1.9335822172465118, 5.2387923296587164)	(2.2119585242108748, 7.0094129506943315)	(3.9623687526187794, -3.0618262971786567)	(-5.0037966395395124, -0.20957930354709298)	1.0	z	0.368175
29	M	A	N	M					N	4	2	shapes	N	6	True	124	(7.4173490644984632, 4.1599969506866703)	(-4.7738610867709141, -7.6494753857042195)	(-1.7297821452579045, 0.32416398212010833)	(3.7580316178200484, -5.4832897543790571)	1.0	z	0.503705
30	N	A	M	N	M	B	B	A	N	8	3	shapes	N	6	True	124	(-7.2704029922887079, 4.9141224408297344)	(3.8179059457836768, 2.0668881409520878)	(1.5843175529412878, -8.0413563176624869)	(8.7274378042157359, 4.4317039519498351)	1.0	z	0.445463
31	N	B	B	M	M	N	A	A	A	8	5	shapes	N	6	False	124	(6.8728142568117008, 7.4487838600564089)	(-7.0999500360261756, -6.0343796354297901)	(-3.3937039636017587, 2.9605704506951227)	(2.9469219996435339, 6.1145233758814612)	1.0	slash	0.927154
32	N	A	B	N					A	4	0	shapes	N	6	False	124	(1.285768112587208, 4.666394310594475)	(-4.9595289779490965, -2.193165329712035)	(2.6318249617368767, -8.2528613073196464)	(-5.7543345664810568, 6.0220623794773225)	1.0	slash	0.688906
1	M	A	M	N	A	N	B	B	A	8	1	shapes	A	7	True	124	(-0.60556091536584766, 1.9712852042423759)	(5.1963615581446714, -2.5390292458429116)	(-6.029755809084774, 0.99286032774898025)	(2.7319770018002707, 8.7400245701619141)	1.0	z	0.680621
2	N	A	B	B	N	A	M	M	A	8	4	shapes	N	7	False	124	(-1.6550355289404584, -7.5243318394516123)	(8.1330762733757389, 1.3249540044737671)	(1.3607297437429899, 8.4772009526729768)	(-8.1442652577189527, 1.934854493251791)	1.0	slash	0.644026
3	N	A	B	N	A	M	M	B	M	8	6	shapes	M	7	True	124	(-6.8815815695854283, 0.24361648056576435)	(8.4217988550604375, -8.5532985245805424)	(1.8879799833571695, 0.86821739001088361)	(2.1883814798423007, -3.9181986259512049)	1.0	z	0.685323
4	N	B	A	M	N	A	B	M	M	8	1	shapes	B	7	False	124	(-3.503128422307614, 2.6411168408878627)	(-4.357033853227561, -2.1652976253221166)	(-7.1414364197903328, -5.8558938098821756)	(-1.5120207856422985, 8.7493461035764355)	1.0	slash	0.623416
5	N	B	A	M					M	4	3	shapes	M	7	True	124	(4.1533735592192755, 5.4949320679272482)	(6.3780311523911308, -5.8238675104048472)	(-6.8882629621718472, -1.8604024924338107)	(-8.7214446018953762, 7.1220977562394658)	1.0	z	0.613193
6	N	B	N	A					A	4	1	shapes	B	7	False	124	(2.2674628718786174, -0.14136241532704297)	(-3.7534939391038158, 4.6381334791091842)	(-8.0200932179740505, -4.8642481106475444)	(4.7135985308378512, 3.4636240860073997)	1.0	slash	0.572799
7	N	A	M	N	M	A	B	B	N	8	3	shapes	N	7	True	124	(2.128809691009975, 6.6354393061011123)	(-2.4641739247615035, 8.2798431099139371)	(4.8864745091600668, 0.77612574140399815)	(-5.265757972847112, -5.1631678721350198)	1.0	z	0.716603
8	M	B	A	A					M	4	2	shapes	A	7	False	124	(-7.2989106820515257, -4.8084189191452342)	(4.1135534442699218, -3.3379520872350685)	(-1.5493488981201624, 6.5702939813632888)	(0.30234629920045464, 0.80599115429286705)	1.0	slash	0.492269
9	N	A	A	N	B	M	B	M	N	8	1	shapes	A	7	False	124	(-3.1077230138186556, 4.0358380895665871)	(3.5153477801382689, 2.1109108386959594)	(6.0255701529043435, -8.0374473807365465)	(-5.6204028951718401, -1.16396997398674)	1.0	slash	0.627312
10	M	A	M	N					N	4	3	shapes	N	7	True	124	(5.9618498873359211, -8.5321932466847041)	(-2.0850374293126333, 0.65055167866455399)	(2.0301568420300153, 1.705595573240501)	(-3.3939392942569828, -7.0764449960555487)	1.0	z	0.565192
11	M	A	A	M					A	4	2	shapes	A	7	True	124	(3.5320751983026533, -7.6663679017062227)	(-3.3913526769152202, 4.1679304973599525)	(-4.0110261198589372, -2.6339954924781397)	(6.6027792571898054, 3.4310843248770002)	1.0	z	0.395187
12	M	A	B	M					M	4	3	shapes	M	7	True	124	(6.1338939537448862, 2.4372483005983749)	(2.8895795601733401, -3.119900296996577)	(-5.7210408234839889, 1.4923176258676758)	(-2.6212528244926352, -3.7609882867698072)	1.0	z	0.695027
13	N	B	M	M	B	A	A	N	B	8	4	shapes	B	7	True	124	(6.4737474117646538, 4.9510553111212836)	(-3.3502937992558284, 2.9510888597837148)	(-6.2402956704912995, -2.2721377812077943)	(2.2008721923634802, 6.4404510706612346)	1.0	slash	1.14309
14	M	A	A	B					M	4	0	shapes	M	7	True	124	(-3.8521102594953245, 7.2106136764013655)	(4.0819158576329855, -8.0848899952957751)	(6.145928295335489, 3.0483211802401176)	(-7.8807930025834203, -2.9387012371451657)	1.0	z	0.540309
15	N	B	B	M	A	M	A	N	A	8	1	shapes	B	7	False	124	(4.2877369966913772, 4.152104665459964)	(-3.6384199544431235, -7.1695088650603758)	(-2.8194154611679734, -1.6844423159867796)	(-3.372235580149991, 5.916214669125921)	1.0	z	0.573276
16	N	B	M	A	B	A	M	N	A	8	4	shapes	B	7	False	124	(7.9553664957887875, 2.1318134535272808)	(7.9872693243107342, 6.2380884405317083)	(-1.7613184814546896, -0.11397702013385214)	(-3.2251466347286764, -4.6495320865099368)	1.0	z	1.03729
17	N	A	B	A	B	N	M	M	B	8	2	shapes	B	7	True	124	(-2.624377079427016, -2.2993547758248978)	(0.69733110679107924, 2.1642837281238414)	(-6.6453069517749457, 3.5739046916724089)	(-0.049970047026100417, -7.5613409814896864)	1.0	z	0.849131
18	N	A	A	M	B	M	B	N	A	8	7	shapes	N	7	False	124	(-1.3845706371569992, -1.8247633000503196)	(8.3002880003280666, -0.32820606009308584)	(-4.6784431925248331, 0.47514878096881397)	(-6.8847859794529587, -2.8613680900136114)	1.0	slash	0.586668
19	M	A	B	M					N	4	2	shapes	B	7	False	124	(3.4042089662206862, -7.4948791860177675)	(6.486070636878134, 5.4076989421686257)	(-0.88551615039064036, -7.8890980949923772)	(-6.0162619406687377, 0.081433581340784045)	1.0	slash	0.64837
20	N	B	M	B	M	A	N	A	A	8	5	shapes	A	7	True	124	(-5.9895292496473376, -7.0355080419101963)	(7.4490144947953425, -5.540411860116536)	(-4.9249983439202669, 8.564459922018191)	(-0.48403862873377967, 6.9637424302035793)	1.0	z	0.633989
21	N	B	N	M					N	4	1	shapes	B	7	False	124	(-8.4577573681922562, -7.9019425309731641)	(3.1459844369356382, 6.742835015623287)	(7.7704134078711853, -7.2221397748199081)	(-0.52656843517609353, 0.030561976214245945)	1.0	slash	0.617259
22	M	B	M	N					B	4	0	shapes	M	7	False	124	(1.8517715348965282, -2.7584604211077695)	(6.3893210244030172, 7.7691243220371433)	(-5.8955156113979701, -0.92492043691204096)	(-7.2917581503181284, 8.1688029125615316)	1.0	slash	0.597416
23	M	A	M	N	B	N	A	B	A	8	3	shapes	N	7	False	124	(-8.5501266809287877, 6.5673536153377352)	(5.9266883147357454, 8.185598906251375)	(8.5116926153021382, -7.8387260868650062)	(-6.3491312249326208, -4.3169449628202097)	1.0	slash	0.611168
24	N	A	B	A	B	M	M	N	N	8	7	shapes	N	7	True	124	(-8.5591488143904737, 6.7321092657424604)	(-5.4303644522918955, 0.76430445372007405)	(2.3407860263556479, -6.7545621036428996)	(5.2759226790320177, 8.3981296088156441)	1.0	z	0.710746
25	M	A	A	M					B	4	1	shapes	A	7	False	124	(-2.3920184924469465, -1.6884661412894406)	(-4.8409614884709971, 2.1968201713669213)	(5.9813785817201115, 7.4035618131426126)	(4.0951049447412586, -0.13486662589621545)	1.0	z	0.564308
26	M	B	M	N					M	4	0	shapes	M	7	True	124	(7.9786751240355258, -3.9495896009881069)	(1.6161410886693428, 1.3823363901882715)	(-1.1292154172643247, 7.5622225202231128)	(-7.3233283256356216, -1.6950576357089506)	1.0	z	0.654132
27	N	B	A	M					B	4	2	shapes	A	7	False	124	(4.76733840326437, 7.6684855263120717)	(8.1936986504663842, -6.138470292479413)	(-2.2139685798460054, -5.5941348853527515)	(-8.0037774145115392, 3.8495763277868846)	1.0	slash	0.589683
28	N	A	M	B					A	4	1	shapes	A	7	True	124	(8.1911879748513314, 1.2658278743070479)	(7.9348066146522314, -5.4788928661258502)	(-6.1193328899186223, -1.0788090688763443)	(-2.9822596441190159, 4.0354719015566758)	1.0	z	0.617402
29	M	B	M	N	A	B	N	A	M	8	3	shapes	N	7	False	124	(0.33946901802436535, 2.0917627690917158)	(0.65240014818852465, -3.6120860977645215)	(-4.7781977202796249, -1.3167496605422473)	(8.4855178603674908, -4.8493606726614669)	1.0	slash	0.648576
30	M	A	B	B	N	M	N	A	M	8	0	shapes	M	7	True	124	(-3.2807636351475802, 0.92326206934499666)	(3.59061378728188, -3.1625213850940996)	(3.2092043183586743, 1.6828333634320316)	(7.0594204502279698, 4.2085728106746867)	1.0	z	0.594699
31	M	B	N	M					M	4	0	shapes	M	7	True	124	(-7.2416697448270151, 7.5991614467969661)	(8.6863065481712454, 2.458495484705578)	(-6.93270744939373, -2.7343896106577636)	(5.1104759741518624, -5.2620609312386435)	1.0	z	0.878526
32	N	A	B	A					M	4	2	shapes	B	7	False	124	(0.50957238354387613, -5.3144375070216352)	(-6.8924587976287714, 2.6252574394063934)	(-7.5971059508713976, -2.3653788796898221)	(7.2142674287194453, 4.8504731284145848)	1.0	slash	0.624045
1	M	B	M	N	B	A	A	N	A	8	6	shapes	A	8	True	124	(1.4284087891194819, -2.5437227345200686)	(-4.5079282218856003, 7.066148019631008)	(-7.4318424518156139, -6.8005127400017313)	(8.052509766309953, -1.6553826411650991)	1.0	z	0.676814
2	M	A	B	M					A	4	0	shapes	M	8	False	124	(-4.4066339692260943, -4.0849090555550802)	(-6.8195966720168464, 0.75594753013986526)	(1.0003290158171048, -4.521159599176281)	(3.9420143162418562, 5.9207434163606667)	1.0	slash	0.581393
3	N	B	B	N					M	4	0	shapes	N	8	False	124	(6.8601305136447586, -0.75123493198657076)	(-8.101410124098237, -0.68588472453422789)	(-5.4860045207653405, 3.2648032176248343)	(7.9266907467480614, 4.5988586474699478)	1.0	slash	0.515083
4	N	A	N	B	B	A	M	M	B	8	3	shapes	B	8	True	124	(3.7520409470992337, -0.42638668350722497)	(8.4525494230645641, 8.7218772067497952)	(-5.3401266704794894, 4.6442491591154855)	(-3.8672126941639666, -0.3651880901499549)	1.0	slash	0.966279
5	N	A	M	A	M	N	B	B	B	8	3	shapes	A	8	False	124	(2.4889610571009371, 1.5691524259748686)	(-7.4446921488641529, 0.81240452897147009)	(-8.6448304488690297, -3.4185921919876607)	(1.3054086957414164, 8.058601401122413)	1.0	slash	0.62446
6	N	B	A	N	M	M	B	A	B	8	6	shapes	B	8	True	124	(6.5975333814818544, -8.6525833913082231)	(-2.7677959339409233, -4.9725980088837014)	(7.312878911240869, -4.0502767706835847)	(-6.8077946827296394, -5.9830693414342546)	1.0	z	0.366057
7	N	B	A	N					N	4	3	shapes	N	8	True	124	(6.3827588231535426, -1.6169833430919294)	(2.8679599641509572, 1.5489387186199366)	(-1.4007340613914181, 5.1863085023405446)	(-8.601765062214211, -2.1684765312732335)	1.0	z	0.647647
8	M	A	N	N					B	4	0	shapes	M	8	False	124	(0.21321357266494267, -2.3326611295256958)	(-7.3987238585525068, 2.313915518449905)	(-7.5833941691779465, -6.4321508962220015)	(4.799731067644986, 6.2111834994134458)	1.0	slash	0.585401
9	N	A	A	N	M	B	B	M	B	8	2	shapes	A	8	False	124	(1.0858293316456535, -7.8948074422363419)	(5.5759283793575545, 8.6168109283158643)	(-4.2231710186638312, 5.3726463768111099)	(-7.2483001636653022, -1.1072202160648867)	1.0	slash	0.734656
10	N	A	N	M					N	4	0	shapes	N	8	True	124	(2.7645048952818438, -5.1730588525752248)	(8.5404607777288142, 2.1351971836220009)	(-7.9504126161704392, 2.6572923763228928)	(-2.0189399853374486, -3.2993567696445805)	1.0	z	0.474771
11	M	A	N	A					A	4	1	shapes	A	8	True	124	(-3.2938106785886792, -1.0415921224348246)	(5.0436649858986744, -2.2992567644671329)	(-3.0893620744192578, 8.2955993773680419)	(7.7582963608054243, 3.5906837125135702)	1.0	z	0.390419
12	N	B	N	M	M	A	B	A	A	8	2	shapes	N	8	False	124	(0.22655259790547611, 2.876149074206598)	(0.28431075721103838, 8.5206118235616657)	(-8.079574147960324, -4.5599139627659842)	(3.5908647577845443, -0.9405703538115322)	1.0	slash	0.692413
13	M	B	A	M					A	4	0	shapes	M	8	False	124	(0.79206117630683615, 1.6063982420894209)	(2.4828705515662879, -2.9621217486742459)	(-7.5859452351511028, 1.5979169570854417)	(-2.7540627298237457, -5.5219646530518522)	1.0	slash	0.593738
14	N	B	A	A					A	4	1	shapes	B	8	False	124	(2.3867712336105349, 8.666901585528926)	(-4.8811740063910456, -3.3406770847551295)	(-8.5770142555342321, 7.7667933912975613)	(4.9851987703482852, -6.2598861896647193)	1.0	slash	0.597457
15	N	B	N	B	M	M	A	A	N	8	3	shapes	B	8	False	124	(8.2364439285368434, -1.3635394257506608)	(-7.8492163906587367, -2.575328396509776)	(-8.536336504962593, 7.1903333863516394)	(-1.7356768275258441, 2.8146410456142519)	1.0	slash	0.432463
16	M	B	B	A	A	M	N	N	B	8	5	shapes	M	8	False	124	(0.54387263930414598, -7.8086014677180202)	(8.7272312700559134, 6.9603555161332036)	(-5.9540782763037576, -5.6891592645749061)	(2.6015944942418248, 1.6188418315368054)	1.0	slash	0.481945
17	M	A	B	A					A	4	1	shapes	A	8	True	124	(-3.1038318683372026, 3.6413982321298004)	(-5.2965068589042552, -1.4250574461847076)	(6.1551011089855265, 6.2277460198951378)	(4.0671446698371554, -2.3753858406510941)	1.0	z	0.954446
18	N	B	B	N					B	4	2	shapes	B	8	True	124	(-8.7489405746439832, 2.512935810705871)	(7.4492864773290179, 5.8759235333807034)	(-1.1481424080816298, -5.1174747274642334)	(3.99444182907488, -4.2024157693216839)	1.0	z	0.750101
19	N	A	N	B	A	M	M	B	A	8	1	shapes	A	8	True	124	(4.4162537355852329, -5.6823006065126052)	(8.5141878697100246, 3.688935924812446)	(-2.7690931301977093, -3.8254856576538536)	(6.9474703476128585, -0.72656240994808563)	1.0	slash	0.987807
20	N	B	N	A					N	4	2	shapes	N	8	True	124	(7.9355990792291315, -7.6851187572782678)	(-3.6947379782331033, -2.7118579536775398)	(-1.0081807479924603, 5.7189182233513307)	(4.2509123683713774, 7.3495132434749131)	1.0	z	1.02132
21	M	B	M	A					M	4	0	shapes	M	8	True	124	(-1.0618360110729652, -3.155176160341199)	(5.9934142323878188, 8.5745887040902744)	(4.3783318753491063, -7.442891735104765)	(-1.0402121082925673, 2.6668360187895992)	1.0	z	0.346995
22	M	A	N	N	B	B	M	A	M	8	3	shapes	N	8	False	124	(-6.2761822064317201, -4.0008424764037418)	(-1.5012782595233078, -6.4404677848957377)	(-4.9673373460212922, 3.7468287846601314)	(2.0161456606795607, -0.45184621807879388)	1.0	slash	0.688757
23	M	B	M	B	A	A	N	N	M	8	0	shapes	M	8	True	124	(5.9671117548949297, -3.0672136217453598)	(1.8160102717498425, 6.5289431074883453)	(-8.7366785403837657, 7.5500019407844157)	(1.9146705871203888, -8.220570662539803)	1.0	z	0.642256
24	N	B	N	M	A	A	B	M	N	8	7	shapes	M	8	False	124	(4.3737533569421281, 6.1903928328414271)	(-0.3412552628655785, 7.2060092487157146)	(-4.6856268712392142, -7.0494751874122965)	(2.6808411754615697, -1.4827733819844786)	1.0	slash	0.635546
25	N	A	B	B					A	4	1	shapes	A	8	True	124	(-6.6460092040290046, -6.3670469201234026)	(-1.8994457249060366, 0.92664901988079862)	(5.5655728039373003, -6.1533074699406214)	(3.8668098472071915, 8.4912413284757484)	1.0	slash	0.613719
26	M	A	N	M	A	B	B	N	M	8	3	shapes	M	8	True	124	(-8.2305343431297633, 3.3143811768515956)	(-3.0260706908773036, 7.0566037996863695)	(7.2029427472682475, 7.5639366183577437)	(6.7527761616447624, 1.9108181210041657)	1.0	slash	0.941464
27	M	B	N	M					M	4	2	shapes	N	8	False	124	(0.76316511043753366, -5.5205408683256731)	(-3.4194617981828621, -1.5214502114464628)	(-5.609610507460852, 2.2010316500962759)	(0.18126421812751659, 1.1559091509564414)	1.0	slash	0.61106
28	N	A	B	N					B	4	0	shapes	N	8	False	124	(-5.785639595362805, 2.7539674295962406)	(-5.5454914497212506, -7.5712544476619907)	(6.7276454055468982, 0.75262720699325669)	(0.53614850511916501, -3.8405574205349939)	1.0	slash	0.53052
29	N	B	A	A	N	B	M	M	B	8	4	shapes	N	8	False	124	(-4.1131915792416542, 3.3314074967859995)	(-0.78235071889635321, -1.6872376129762241)	(-2.9138522832685503, 8.7320653146006819)	(3.3468408708442379, 3.3464725153833239)	1.0	slash	1.12419
30	M	B	B	M	A	N	N	A	N	8	5	shapes	N	8	True	124	(-2.4893541883767902, -7.2600491087025016)	(-3.6211188881743048, 1.3950894547341637)	(4.6585914192415547, 2.7749173655222545)	(8.4273730825946878, -4.2811070784321963)	1.0	z	0.925373
31	N	B	B	A					M	4	2	shapes	B	8	False	124	(-1.6120419583847596, -2.5172357852444751)	(-5.5659036432647504, 6.9529105105286995)	(7.4205970027281332, -0.49739767180513361)	(2.2832547332488371, 4.5117424118874752)	1.0	slash	0.655666
32	N	B	M	N	M	A	A	B	M	8	4	shapes	M	8	True	124	(-4.5441254605195303, -0.27197482743531154)	(2.8301970629277697, 5.4683559592431656)	(-1.2090178106138882, -6.9649807639777537)	(2.2585889795270777, -2.0109199724781472)	1.0	z	0.823383
