TrialNumber	stim0	stim1	stim2	stim3	stim4	stim5	stim6	stim7	stim.probe	ttl.stims	corr.num	trial.type	stim.corr	block	match	Subject	stim.pos0	stim.pos1	stim.pos2	stim.pos3	ran	resp	RT
1	M	B	B	M	N	A	N	A	N	8	3	shapes	M	Practice	False	125	(-2.0230014605933917, -0.43680028217775835)	(5.0463330778626805, 7.8164230341162977)	(1.4981191647122873, -4.5006164725113971)	(-2.6565456798467313, 6.3440162395664075)	1.0	z	3.5555
2	M	A	B	M	A	B	N	N	M	8	0	shapes	M	Practice	True	125	(-7.7511618068333723, -0.8624812664334085)	(5.8216632823189247, -4.553044862701805)	(3.2444809484395485, 4.7220812986483587)	(-4.9112093536921186, 2.2872413107525293)	1.0	slash	2.18099
3	M	B	B	A	N	M	A	N	A	8	0	shapes	M	Practice	False	125	(-5.8279015978740212, -6.2627262501603482)	(-7.8393134036812775, 6.0854849632515187)	(0.44284753768256024, 1.0772880713329105)	(4.8986719216615935, -1.2962895241452168)	1.0	z	2.06648
4	N	B	M	M					M	4	3	shapes	M	Practice	True	125	(5.1827374211997075, 1.5575190435558302)	(-8.3003391384732907, 5.4509511401321138)	(4.08391263139786, -6.3233356808203292)	(-7.1915868825090943, -4.3792202356361081)	1.0	z	1.37197
5	N	B	M	M					N	4	0	shapes	N	Practice	True	125	(-2.6459533259892014, 1.6467876139678719)	(1.5877631121372069, -2.4514200389083785)	(5.0475843669555811, 4.7316206115342094)	(-3.4942563404053208, -2.7114263233448508)	1.0	slash	1.50011
6	N	A	A	N					B	4	1	shapes	A	Practice	False	125	(6.4716013885726298, -0.33275585072988356)	(2.7056943288542161, 4.0632436190728587)	(-3.3133626176553594, 0.67004988633461515)	(-6.0942311561231577, -3.4485039420948667)	1.0	z	1.46537
7	N	A	M	N					B	4	2	shapes	M	Practice	False	125	(7.8140666254788691, -8.4443877751563257)	(6.6135769624264391, 2.6179120017177393)	(-6.3614070933405173, 1.1089675257025196)	(-5.8246637802499368, -8.3991994297963828)	1.0	slash	1.17279
8	M	B	M	A	B	N	A	N	A	8	6	shapes	A	Practice	True	125	(-5.0576607051653877, -8.5448831384957327)	(8.1755516654033968, 2.8163533627227224)	(2.5552755798001989, 6.4758616349869982)	(2.1782886442293492, -8.3359923025046267)	1.0	slash	1.3089
1	N	B	B	N					B	4	2	shapes	B	0	True	125	(-2.9678481789480839, -1.3628851521103025)	(4.5007163796942091, 3.3075559829996557)	(6.351813175234863, -4.2391980056124599)	(-7.9980698614857557, 5.1014764888287427)	1.0	z	1.52381
2	N	B	N	A					M	4	0	shapes	N	0	False	125	(0.46455841000479126, 5.5191492744229596)	(-8.0893644916798717, -7.2952069208787709)	(0.1136929040181105, -5.5960753235243601)	(-3.009695225750046, 1.9827686226770211)	1.0	z	2.41329
3	N	A	A	B	N	M	B	M	A	8	3	shapes	B	0	False	125	(5.5796660062698109, -4.6962225319002773)	(-1.2327319906453758, 3.4841328423262734)	(-1.9346830104867259, -6.5215459921091297)	(7.8721909427074017, 5.9494941536510666)	1.0	z	1.55168
4	N	A	M	B					A	4	1	shapes	A	0	True	125	(-5.9894403694174123, -3.2784512801878334)	(-1.4148248736937497, 1.6910978906132144)	(2.8590318511929382, -4.8550645199627507)	(0.41481508358047847, 7.2074432201948042)	1.0	slash	1.12934
5	N	B	N	B					M	4	0	shapes	N	0	False	125	(-0.63546456336770163, -1.5141956911526728)	(6.5221128357661726, 4.9854623147750843)	(-8.26650987459427, 1.5877185629430581)	(5.2803189595822371, -6.6032322777669625)	1.0	slash	1.68809
6	M	B	B	N					M	4	3	shapes	N	0	False	125	(-1.9340895550405461, -4.3621648831832127)	(-6.8141220813550749, 0.087355307382042113)	(1.4932044617724038, 4.6523653735510404)	(6.108429168769673, -6.9457246535336168)	1.0	slash	1.13628
7	M	A	B	A	N	B	M	N	N	8	6	shapes	M	0	False	125	(-8.4199356139128252, 2.8726548331029704)	(-4.8709211403127783, -5.6017594182975028)	(2.0706894010722952, -3.0345249030771875)	(4.6499563282549303, 5.6527897132627594)	1.0	slash	1.28155
8	M	A	N	M	A	B	N	B	M	8	4	shapes	A	0	False	125	(-2.1535363810200066, 7.9651576232333952)	(1.4847577634925564, -7.6727337438543568)	(3.3836851911797243, 1.9635142011257933)	(-1.023176174760863, 2.6994033534340929)	1.0	slash	2.2494
9	M	B	N	N	B	M	A	A	M	8	4	shapes	B	0	False	125	(-1.9820337775593115, 6.242407183176871)	(-2.7771410957824711, -8.3185603853603283)	(6.7919772174171413, -0.37581679559247405)	(8.0200561249228812, 7.5155504159168025)	1.0	z	1.02731
10	N	A	B	M					N	4	1	shapes	A	0	False	125	(3.5183856217072478, -5.3547112553294092)	(4.3191987725445031, 5.2439219205832988)	(-1.5112353687689097, 1.00657019874353)	(-6.1866278950801297, -7.0100357688499884)	1.0	slash	1.78
11	N	B	B	N					B	4	1	shapes	B	0	True	125	(5.2211923354551253, 0.17905995124234408)	(-4.0946848492867698, 6.2937127305349794)	(5.1261009601747816, -8.6169984084414715)	(-1.9646690354755139, -2.549670383407701)	1.0	slash	1.22439
12	N	B	A	B	N	A	M	M	N	8	5	shapes	A	0	False	125	(-6.0937267512513928, 0.76762306981585837)	(-3.6185732347371582, 5.094323855578093)	(8.5834609841119196, 1.6666170550474853)	(-3.0450639844057488, -7.8463727097163636)	1.0	z	1.23743
13	M	A	A	B					A	4	2	shapes	A	0	True	125	(2.2834270802278684, 0.1875649044506158)	(-0.40707997275634789, 6.1264782237438293)	(-3.4308852389781865, -2.6287111313378331)	(7.3648329675490487, -4.0382634802408868)	1.0	z	1.0791
14	N	A	B	N					A	4	1	shapes	A	0	True	125	(-3.8650978504285893, -5.194964492925183)	(-0.16832905426153744, 6.985679786680409)	(0.10072832062842707, -0.60895577712278737)	(5.4578830530510629, 4.3142958617468157)	1.0	z	0.73463
15	N	A	M	M	N	A	B	B	A	8	5	shapes	A	0	True	125	(1.142969514998299, -0.62222014934829772)	(-2.1660024868816574, 2.4285058680031231)	(-4.5080112058640651, -5.9127129112173762)	(4.6495568014842785, 6.3633591420043665)	1.0	z	1.50067
16	N	A	M	N					A	4	1	shapes	A	0	True	125	(2.4291663531481849, 2.6713856575300827)	(-1.1901015416103515, 7.21477751108484)	(4.6581428087236247, -3.913535429865469)	(-0.40089349475980463, -6.4421177386053632)	1.0	z	0.802056
17	N	B	A	A					B	4	3	shapes	A	0	False	125	(-0.31612557958156629, 7.5260973147163526)	(-0.94790848918314552, -0.80650587695527065)	(7.4147692302486199, 0.51883023196313616)	(2.4632889048984481, -8.2631535586784235)	1.0	z	0.755808
18	N	B	A	N					N	4	3	shapes	N	0	True	125	(-4.0063164265607512, 2.8446163541889913)	(-1.3365233059615695, -3.5419626715082337)	(2.4452380777648663, 7.7300194099234361)	(5.3171634329858275, -3.2659852938403873)	1.0	z	0.803156
19	N	A	N	A	B	B	M	M	B	8	4	shapes	B	0	True	125	(4.5336447779043176, 5.3909930871446612)	(3.3216982253915752, -7.1280117564805323)	(7.9662662334402619, 8.5964073506215506)	(-1.2201181202013949, -8.4870754918190023)	1.0	z	0.694531
20	N	A	B	N					A	4	1	shapes	A	0	True	125	(-7.5690412477173039, -2.9812055494528478)	(2.6736516867244831, 0.98439122345634189)	(5.6968705551667327, -4.3837581630276139)	(-3.5609268047808698, 1.5296632506956698)	1.0	z	0.750379
21	N	A	M	B	N	A	B	M	M	8	2	shapes	M	0	True	125	(6.2234567349211378, -6.6208954796452382)	(-1.9932750865289846, 3.2684357158380273)	(-4.5200720195954549, 6.8535632629280165)	(5.9073349275537659, 3.7376655136029733)	1.0	z	0.778153
22	M	A	A	B	B	M	N	N	A	8	2	shapes	A	0	True	125	(-3.0890531543493891, -2.172018511543965)	(8.0633332158493367, 1.6753150395185106)	(-7.3215539252985993, -7.527256014929022)	(-4.4315139655994127, 4.8740056180947313)	1.0	z	0.546484
23	N	B	N	M	B	M	A	A	M	8	6	shapes	A	0	False	125	(1.4130254886845908, -8.1241551721697647)	(-6.0604623430977167, 6.3187932434868461)	(-7.599286793787698, -8.4490583973878142)	(7.7886649000439263, -2.0045274751816509)	1.0	slash	1.29555
24	M	B	B	A	A	N	M	N	A	8	2	shapes	B	0	False	125	(-4.4436074224656661, 5.6247506214403025)	(-8.5672992127503047, 2.8193009302228269)	(1.7929645403886507, -4.6591900809993954)	(2.0198969458082985, 8.4600784917205161)	1.0	z	1.34372
25	M	A	M	A					N	4	2	shapes	M	0	False	125	(6.6297688731212396, -7.8881546599922121)	(1.7023181197692647, 4.165896626786008)	(-7.8405684544853553, 0.64094785056719061)	(-0.0025951032182103262, -8.2405007299997148)	1.0	slash	1.10652
26	N	A	B	N	M	B	M	A	A	8	2	shapes	B	0	False	125	(5.1732154182131662, -1.3938042623623392)	(7.0652206562943949, -7.6134351275231342)	(-6.5786395425867141, -5.3170648586213494)	(-6.9666678306562506, -0.24134619413833569)	1.0	z	0.76604
27	M	A	M	B	A	N	B	N	B	8	6	shapes	B	0	True	125	(-1.5993981198463487, -0.42395101941094815)	(7.1912003018584389, 3.0111497993238761)	(-3.8313204403553884, 5.8434774615811822)	(-5.3754148719558241, -7.5472214258132624)	1.0	slash	0.989934
28	N	B	N	B	M	M	A	A	B	8	3	shapes	B	0	True	125	(2.9570603498139878, -6.5862312255685467)	(2.9035832507718542, -0.93432250355095636)	(3.8343823192901691, 6.3662885114117245)	(-8.3490218593619439, -4.2630154474462634)	1.0	z	0.715776
29	N	B	M	A	M	A	N	B	N	8	6	shapes	N	0	True	125	(-0.88389901067398924, -3.4428764615388339)	(5.6788371078283078, -1.5738395915519341)	(-4.2124429424347003, 3.0862222891476936)	(3.2766918580763598, 2.7634645247452738)	1.0	z	0.853289
30	M	B	M	N					N	4	1	shapes	B	0	False	125	(-2.2278339942253185, -0.78013719827505312)	(-5.588069856882921, 5.5798289288463483)	(4.4209099792552262, -4.5740090170477838)	(5.9107087943644583, 0.42943672734310567)	1.0	slash	0.80956
31	N	A	N	M	M	B	B	A	A	8	1	shapes	A	0	True	125	(8.5070568025687869, -6.6288031040521709)	(6.5105270232018349, 0.79247414773898939)	(-0.32664565289754677, -4.913353869821024)	(-7.3347923697789721, 2.3442283112442794)	1.0	z	1.20928
32	N	A	A	M					M	4	0	shapes	N	0	False	125	(3.6274189239230523, -7.5394695077627061)	(-7.9001558150965323, 0.51250788721766938)	(2.5824827409644513, 2.2990637020236449)	(-0.68352901265428834, -3.0413656216913214)	1.0	slash	0.808292
1	N	B	A	A	M	N	M	B	A	8	0	shapes	N	1	False	125	(1.6754801314196364, 6.4284904113183625)	(5.5830851224834763, -2.5312649420029594)	(-5.5652630889490275, -0.43160350774917866)	(-2.5916759602685326, 5.3362769009292244)	1.0	slash	0.704362
2	N	A	A	N	M	M	B	B	M	8	7	shapes	B	1	False	125	(8.2567662270535109, 5.0140033623027893)	(-0.24427671989893796, 8.7051211997969524)	(2.6117211612638762, -6.9886818728482201)	(-5.2810635189681561, 4.1255799273252229)	1.0	slash	0.955572
3	M	B	N	N					M	4	3	shapes	N	1	False	125	(-7.3737421770487206, 0.77533979277161436)	(6.6629073414335789, 6.8607967343430385)	(-3.6690159340424415, -3.3524275329543185)	(8.0618425261071351, -5.138489486960502)	1.0	z	0.947276
4	M	B	M	A					B	4	1	shapes	B	1	True	125	(6.0827026519664855, -1.863935474415209)	(2.588085963292178, 4.8097745878955163)	(-2.1835056207815722, 2.1223671771543131)	(-6.0691135291648255, -0.70980692707809645)	1.0	z	0.69497
5	M	B	N	A	N	A	B	M	A	8	5	shapes	A	1	True	125	(2.4705425516415396, -1.3121384850139775)	(-3.5412111511863751, 4.1905352126348081)	(2.716095858630263, -5.9866957524518076)	(-0.38719136675827137, 7.6029434473632413)	1.0	z	0.638297
6	N	A	N	B					N	4	1	shapes	A	1	False	125	(1.4805239587034489, 5.8848732824356027)	(3.3805298370206138, -5.0490879759404264)	(-2.9482730954753409, -3.2279887742933742)	(-3.2178977299092342, 3.784329617787666)	1.0	slash	0.726155
7	M	B	M	N	N	A	B	A	B	8	6	shapes	B	1	True	125	(-3.1198340462751801, 3.6229739474118912)	(-6.2991469976376298, -3.6972955241693874)	(-2.5904110218168892, -5.8175880341471284)	(8.7198638879859587, -5.2899283419567205)	1.0	z	0.535867
8	N	B	M	N					B	4	3	shapes	N	1	False	125	(2.0991320357572114, 7.3738794671270149)	(-8.369227570412777, -6.8357575264097656)	(-7.7424923562208798, 0.53153860957202603)	(7.7218695313886165, -4.8680854635079029)	1.0	slash	0.717366
9	N	A	N	A					N	4	0	shapes	N	1	True	125	(1.8776015890463196, -5.1930137321757979)	(-4.844174593007633, -0.86416172852570305)	(2.5739641814516574, 1.4340294176050872)	(-4.6588859144023864, 6.1351924779288485)	1.0	z	0.981621
10	M	B	N	M	A	B	A	N	N	8	2	shapes	N	1	True	125	(5.5002567338722521, -5.1573569639114805)	(-5.3511250448388257, -8.7326905103977186)	(-5.1617368609902901, -0.49776744907570247)	(6.759024212082462, 2.2069857911134392)	1.0	slash	1.61321
11	M	B	N	M	B	A	N	A	N	8	2	shapes	N	1	True	125	(-6.6412914085784518, -6.6375029582445375)	(-2.0701577396107664, -1.2120091829755557)	(6.7601418226618666, 1.2803365386508112)	(7.8239761484875316, 5.8360755471294468)	1.0	z	1.02038
12	N	B	B	M					M	4	0	shapes	N	1	False	125	(-0.85113759806368083, 0.0020389327474461538)	(-1.794145267130431, -5.1282637366025963)	(8.5105958774303474, -1.0190173592109808)	(6.0222678928905449, 5.882876212008048)	1.0	z	0.856598
13	N	A	A	N	B	M	B	M	N	8	5	shapes	M	1	False	125	(4.8229748849779099, 0.64049637492347244)	(-4.3184822844498845, -2.3958053620192032)	(-6.993253927307352, 1.0581655109819614)	(-2.4448340293059445, 2.8844220084354824)	1.0	z	0.848803
14	M	B	A	M	B	A	N	N	M	8	3	shapes	M	1	True	125	(-8.3997335097348085, -8.1327454710374916)	(-7.0538033618367253, 4.1184901437785353)	(6.0051621369982868, -2.065990581810186)	(-3.4985503520682251, 7.8558262266517147)	1.0	slash	1.12201
15	N	B	B	M	N	M	A	A	N	8	4	shapes	N	1	True	125	(-7.2442511856492224, 6.939050781453604)	(-3.6143567524859357, -7.0518850981949726)	(7.2423256963732356, 6.7558070925492668)	(5.8125849752592966, -6.5376210108159594)	1.0	z	0.996881
16	M	B	M	B					M	4	2	shapes	M	1	True	125	(-0.99127801035786867, 6.8190899514984373)	(-4.7760783368782578, -8.603603899257978)	(6.5219024613219236, -4.0706546653432776)	(5.7428616309656793, 3.3257749871196154)	1.0	z	2.37262
17	N	A	N	M					M	4	2	shapes	N	1	False	125	(-2.1147129019014601, 6.6876193333271576)	(8.6497226300341481, 8.6707716534088597)	(4.8269490949640836, -2.5740435050690396)	(-7.6356666139065217, -3.3774623728409674)	1.0	z	1.32392
18	M	A	A	B					A	4	0	shapes	M	1	False	125	(-3.3090829936344086, -0.049524569463352819)	(0.9470220338006925, -7.2043851067224072)	(-0.62394883499508147, 4.8602053320901106)	(3.8230362503834456, 0.68873617196955195)	1.0	slash	0.649312
19	N	B	N	M	M	A	B	A	A	8	4	shapes	M	1	False	125	(0.95931528742915795, -5.105223725884712)	(-1.0817319753646908, 6.182165287784553)	(-2.6091087777770579, 0.40857700221856774)	(3.5010869846435568, 0.41899224465056406)	1.0	slash	0.683519
20	N	A	B	B	N	M	A	M	N	8	1	shapes	A	1	False	125	(-0.13458112002737366, -5.2062740448382154)	(-8.0026353758277171, 3.6111358200979513)	(3.8654654064264431, 6.4681379356518729)	(0.64375551612321047, 3.0722206242029984)	1.0	slash	1.10769
21	M	B	M	A					A	4	2	shapes	M	1	False	125	(-3.9776513498873962, 0.2516054987016858)	(1.6703720021630808, -6.077424451317567)	(6.7714732948023819, 6.6130840100065917)	(-6.1995135524739702, -3.1279012869931702)	1.0	z	0.724664
22	M	A	M	B	N	N	B	A	B	8	4	shapes	N	1	False	125	(-1.4775530524899452, 3.8214860915738758)	(4.3965868086186735, -5.1261248595389324)	(2.7926009340618823, 2.7319226641545065)	(-6.8948774002123514, 5.9300146094745614)	1.0	slash	1.46226
23	M	B	A	N	A	N	M	B	A	8	6	shapes	M	1	False	125	(-8.0915642894470743, 6.4867188074511635)	(-0.05738404802493946, -7.7082730972876945)	(0.60115034262065592, 2.7692488388360399)	(3.7450125494097257, 8.2408576185787119)	1.0	slash	1.06644
24	N	B	A	N	M	M	B	A	A	8	7	shapes	A	1	True	125	(5.2238651435155017, 3.9148212502580932)	(-3.4143079345630714, -6.9242671498810875)	(3.3752779422969059, -7.9972697769938961)	(-1.2842594450686144, 2.7624076396433885)	1.0	z	1.14948
25	M	B	B	A					A	4	2	shapes	B	1	False	125	(7.5180184408728756, 0.6336545927886803)	(-2.7049040014247971, 7.5974596019167429)	(6.7679842452375585, -4.1259843086175438)	(-6.3454972607059279, -1.7329296019129723)	1.0	z	0.849296
26	M	B	M	N	B	N	A	A	A	8	1	shapes	B	1	False	125	(0.96004631400237628, -0.75676035747076309)	(-4.2003592905321492, 1.9366125143468054)	(-3.1809773033935249, -2.6369584946769535)	(6.1410676287849384, -1.733158343975207)	1.0	z	0.826751
27	N	A	M	B					N	4	0	shapes	N	1	True	125	(-6.1729022449593192, 2.1589868665572371)	(5.553901607732703, -6.1881842900647301)	(4.6294374465101455, 4.5341966791687103)	(-2.0732299322191743, -7.8151855188642667)	1.0	z	0.916497
28	N	B	N	A					N	4	0	shapes	N	1	True	125	(-1.0773006733083719, -8.1815289420215827)	(-4.4765336321542515, 4.1287814494826502)	(6.3567808657458613, 1.8012822262212111)	(2.0051051795925936, -3.7304682434645731)	1.0	z	1.10017
29	M	B	N	A	M	B	A	N	M	8	0	shapes	M	1	True	125	(4.4335795789254764, -8.1737269965239445)	(-5.0403060187924442, -3.0403496189928951)	(4.5944582379939813, -1.6955710037878573)	(-7.159075782912323, -6.4665173830989895)	1.0	z	0.793602
30	N	B	N	A					N	4	0	shapes	N	1	True	125	(-8.3602482309331414, 6.2084503399331972)	(2.5282359047399758, -4.7297444441645231)	(1.508280455217573, 2.9260653853744145)	(-8.2065408797089336, -8.0364234636307206)	1.0	slash	0.987384
31	M	A	A	B					A	4	1	shapes	A	1	True	125	(-8.4229310635983481, 4.3913409992119927)	(-3.7270229155574803, -4.9539357586366357)	(8.1981290639535835, 1.8366711172018526)	(0.063663930073692754, -0.11828950004678518)	1.0	slash	1.11115
32	M	A	A	B					A	4	1	shapes	A	1	True	125	(7.7998198175917999, -6.206402234778059)	(1.3739747831575695, 8.4323216355178623)	(-6.0101511412932869, 4.02615565644669)	(-2.9950739116560223, -2.8074255123751239)	1.0	z	0.890645
1	M	B	A	A	N	B	N	M	M	8	0	shapes	M	2	True	125	(2.5925216590606333, 1.8286860618601786)	(-8.0655340591765565, 2.0863788172234745)	(3.7137634675798843, -3.6690570827375062)	(-5.7046255644228072, 7.4585545329986402)	1.0	z	0.886272
2	M	B	B	N	A	M	N	A	A	8	1	shapes	B	2	False	125	(-5.4473848160979577, 4.5859627221302439)	(5.0525872972984551, -6.6213600768195349)	(7.1639863938179307, 1.4222922222752619)	(-0.1394834852941802, -4.4599001283959794)	1.0	z	0.999863
3	M	A	A	B					M	4	3	shapes	B	2	False	125	(6.8756195851898543, 3.0914016957673685)	(4.7233860538341048, -8.6502301825598025)	(-6.0236343612645422, 6.965849025995853)	(-1.9820422419211328, -5.9273058027280294)	1.0	slash	0.881598
4	N	A	N	B					M	4	2	shapes	N	2	False	125	(4.2796048889135356, 5.6615862057048236)	(3.5745370052498124, -5.4574197732489971)	(-6.4984279193024612, 6.8567565435413549)	(-7.9114863493019136, -6.5560864736197146)	1.0	z	1.18743
5	M	A	A	M					A	4	3	shapes	M	2	False	125	(-3.8283071012541949, 1.1052764745431283)	(4.3511196561194492, 0.60448115070033026)	(-7.8893553925077882, -8.2665137923562906)	(0.74261552612370529, -1.554771896736824)	1.0	slash	0.932875
6	N	B	B	M					B	4	1	shapes	B	2	True	125	(8.3176434477892407, 2.7943485634536867)	(-3.9124664701150422, 1.315033750368098)	(4.5741286946431572, -5.4025226045674941)	(-1.5699859383720645, -5.3807673030551149)	1.0	slash	1.18059
7	N	B	A	A					N	4	0	shapes	N	2	True	125	(5.9628520045385329, -4.2064560326977265)	(-5.1656917347553879, 1.6177962355730031)	(-4.0135317403095598, -7.1083192939371482)	(7.9711391165569516, 2.4026083568889778)	1.0	z	0.690078
8	M	B	M	A	B	A	N	N	N	8	7	shapes	N	2	True	125	(8.2493351854936634, 4.5782802510808835)	(-7.1819198332192382, -6.3728588739400323)	(1.853212268626292, -7.8193998576275261)	(7.2861923730867844, -4.7477527648860018)	1.0	slash	1.15648
9	M	B	M	A					A	4	0	shapes	M	2	False	125	(-4.9517063998193773, -1.9848073838422025)	(3.8805685193538046, 6.950374400188581)	(-6.9174383740791239, 2.2518187101131417)	(3.1500043551635439, -6.2668978804192381)	1.0	slash	0.813314
10	N	B	N	B	A	A	M	M	A	8	3	shapes	B	2	False	125	(-8.3089459432371697, 6.7775984403699407)	(-3.8289076721294721, 0.010779764506434475)	(3.7561383727898932, -8.0811241335127075)	(-6.8729627363249461, -3.544839053031243)	1.0	slash	0.877099
11	N	A	M	M					N	4	0	shapes	N	2	True	125	(7.9100872403820794, -5.6884864216594933)	(-8.6396866076052401, -1.1064736132788102)	(7.1874429881507922, 8.2779985575081838)	(-7.5749340121918092, 3.0246082868202162)	1.0	z	0.935274
12	M	B	M	B	N	A	N	A	M	8	3	shapes	B	2	False	125	(1.8118688731115675, -0.1533958620740794)	(-6.5964006077795636, 6.0296851362169441)	(7.6395142854145206, 5.9410929200231521)	(-4.2726271560774487, -5.676376140123228)	1.0	slash	0.756189
13	M	B	M	A	A	B	N	N	N	8	7	shapes	N	2	True	125	(-1.4643425781302213, -5.505734029706769)	(-7.8515044367301527, -0.94856680184992737)	(5.6229100276472703, -7.3315546001265801)	(5.2225327436226259, 0.79715168682155912)	1.0	slash	0.758546
14	N	A	A	M					N	4	0	shapes	N	2	True	125	(-2.9116470298648949, -1.6512481034325495)	(1.6153807461065828, 6.35812099550472)	(7.674750257925627, -4.7723955725166469)	(-0.36088199765984008, 2.507562772189992)	1.0	z	0.824215
15	N	A	N	B	A	M	M	B	A	8	0	shapes	N	2	False	125	(4.307475260335897, 1.0612139489462873)	(-8.0607642507658657, -6.8665103938240089)	(0.41557577406621427, -0.74838070576773497)	(5.995890350685217, -8.3147139003399513)	1.0	slash	0.771244
16	N	A	N	B					A	4	1	shapes	A	2	True	125	(0.35490837376150175, 0.82782789616373442)	(-6.7554563609536649, 5.8303201414924306)	(-2.4050751000161377, -5.0889660862807329)	(2.7402480568419652, -4.5683914760159974)	1.0	z	0.851606
17	M	A	N	B	M	N	A	B	A	8	1	shapes	A	2	True	125	(-2.8677075273971129, 8.3954890793545829)	(-6.1223356330626668, 0.57864803772965168)	(2.1260126538238442, 1.2988898164532472)	(6.4370414468203805, -6.4817433888468017)	1.0	z	0.589152
18	M	A	B	A					A	4	2	shapes	B	2	False	125	(6.2470878719182803, 3.8046579735559156)	(0.79870387576290192, -4.7703403420623918)	(-5.3202425886146623, 6.6754785366341203)	(-2.8308128615077326, -2.8325998799624506)	1.0	slash	0.668947
19	N	A	A	B	B	N	M	M	N	8	0	shapes	N	2	True	125	(-1.2670467610823506, -3.960856228236791)	(-5.5769913860156528, 7.9395187964322318)	(7.694353614242857, 5.3005906413097215)	(-7.66620942391034, -1.5377426242689349)	1.0	slash	0.96262
20	N	A	A	N					A	4	3	shapes	N	2	False	125	(-6.8252881594320236, -7.1733190666262168)	(-0.44573829894462413, 5.8579994753906774)	(0.23127324489836276, -5.8749434405963221)	(5.8632599292080059, 4.4456296468485021)	1.0	slash	0.7555
21	N	A	N	B	M	M	B	A	B	8	1	shapes	A	2	False	125	(-8.3944093313485055, 1.6296208680873168)	(-3.6122124514369496, 7.1166378583934087)	(-3.166137179593572, -5.8520829280836706)	(4.6008677437466989, -7.7225183762034719)	1.0	z	0.88526
22	N	B	N	B	A	A	M	M	N	8	0	shapes	N	2	True	125	(-7.2280000499100554, 1.3811851928010341)	(1.6465960441159861, -3.0098002890069759)	(-7.0581526408762159, -4.1197588502548728)	(0.18274068834894308, 2.2217729076571509)	1.0	z	1.19684
23	M	A	B	B	M	N	N	A	N	8	0	shapes	M	2	False	125	(-0.60530239810436548, -1.9654403237564892)	(3.726478770648372, 6.2407419654789873)	(6.0788395558975648, -4.9168527406221898)	(-1.401997199861996, -7.3646184965524304)	1.0	slash	1.03238
24	N	A	B	M	N	A	B	M	N	8	1	shapes	A	2	False	125	(-0.49252635179188076, -2.7421698683580695)	(-0.455208724664935, 4.3813396359325019)	(5.4019283707113903, 4.2162747700533032)	(4.3930260393387321, -7.9570667698850714)	1.0	slash	1.22011
25	M	A	A	N	M	N	B	B	A	8	1	shapes	A	2	True	125	(4.7597810395940208, -8.0125990532820168)	(0.26210045125381853, -8.3034732497890822)	(8.4566228924921063, 1.7775510000269978)	(-4.2292548077631045, -7.7256800134382857)	1.0	slash	1.80383
26	M	B	B	A	N	M	A	N	M	8	0	shapes	M	2	True	125	(4.9044293004751864, -5.7902494694443458)	(-5.1060397892324456, -0.42995740533029192)	(7.8134725681726671, -2.957871745613005)	(-1.4309967083455888, -5.763535128667824)	1.0	slash	1.0277
27	M	B	M	B	A	N	A	N	N	8	0	shapes	M	2	False	125	(-4.0542867011056982, -4.605035364746155)	(-3.1995872263585934, 5.6932233769673051)	(3.9309524648976542, 0.77444503705353895)	(2.5540741547444803, 5.4398907471560936)	1.0	slash	0.91952
28	M	B	A	M					N	4	3	shapes	M	2	False	125	(-1.2638859146247743, 0.29157574075752457)	(-0.62185735050817392, -5.017772993706723)	(8.1891913512139567, -2.6846809781261243)	(0.049134605095254358, 8.1433567764915757)	1.0	z	1.03049
29	M	A	B	N					N	4	3	shapes	N	2	True	125	(7.4018979283351172, 0.48881573773766007)	(6.674399046846581, -7.4074500920137423)	(-0.92851495653125227, 0.14151169472560809)	(-8.4540342948510627, -8.6561851212570655)	1.0	z	0.570191
30	N	A	B	B					N	4	0	shapes	N	2	True	125	(-1.5002173846807985, -8.6889716499197824)	(5.761154661039475, -8.4070955121877073)	(3.3848066524507274, 3.5239897804975886)	(-3.7994482104061849, 6.0322801435130629)	1.0	z	0.69634
31	M	A	M	N					A	4	3	shapes	N	2	False	125	(-2.375111416611027, 0.67705248747118318)	(5.7681132374953439, -7.8670448534959219)	(-4.9076514230814556, -3.8663812047099082)	(5.6105862977349119, 2.7494121248383312)	1.0	slash	1.60549
32	M	A	M	B					A	4	1	shapes	A	2	True	125	(2.999864390450675, -4.860671259472845)	(-3.169374435509976, -6.6878778085967658)	(7.1575056423302161, 3.4267365714692524)	(-1.3372990773067155, 8.2768500167865149)	1.0	z	0.995294
1	M	B	B	A					M	4	0	shapes	M	3	True	125	(-4.1810137362816837, 7.663605959069816)	(1.520738858274612, 6.5773579050344928)	(0.44241795407345563, -7.7669398008112998)	(-6.0941820516544851, -1.9181476405721778)	1.0	z	0.492811
2	N	A	B	M					M	4	1	shapes	A	3	False	125	(1.0983029350839768, 3.3797556171010719)	(-0.89437174910749295, -1.7256159501672981)	(0.36753244406400221, -7.4358787336828724)	(-6.8247694644579919, 4.8880026697451182)	1.0	slash	0.72306
3	M	B	N	A	A	M	N	B	B	8	4	shapes	A	3	False	125	(3.4096931575453464, 6.4672845455335306)	(-3.9046643821550839, -3.5339844495517942)	(-0.9231935177550783, 1.5934787017621215)	(3.9049931025966149, -7.7275761982867897)	1.0	slash	0.796136
4	N	A	N	B					N	4	1	shapes	A	3	False	125	(8.7326816672467622, -1.8546226921915023)	(4.6045237379746773, 7.4348285877949181)	(-8.2018437489175042, -3.284008138725607)	(-3.2493779271219605, 3.4835682609084788)	1.0	slash	0.797543
5	M	A	M	N	N	A	B	B	B	8	6	shapes	B	3	True	125	(8.1183284728114309, -3.7210978371483874)	(0.9665117863063788, 0.7017450894654722)	(-2.1702852803166008, 8.3305089241532571)	(-2.2663419828471305, -3.7447621046035779)	1.0	slash	0.784158
6	M	A	M	N					N	4	3	shapes	N	3	True	125	(-3.5767792307138837, -4.8656596721230247)	(3.3168458927171844, 0.65845982351419075)	(-4.3439168994923323, 6.720327513656791)	(0.60855490543734803, -2.6310269920856042)	1.0	z	0.861143
7	N	B	A	M					B	4	1	shapes	B	3	True	125	(0.50646565988088632, 8.2762103074645594)	(1.1712390689683279, -7.3874454356717507)	(-6.5362816091335176, 3.3611700957218638)	(-7.7693045443054096, -8.5922585664419131)	1.0	z	0.872883
8	M	A	B	N	M	B	N	A	B	8	5	shapes	B	3	True	125	(2.7905739271897065, -1.7748271410178464)	(6.7793207353378868, 1.6914694947465065)	(-3.3410431835099637, -5.7065315242831787)	(-8.2896813701788314, -3.7995542654726639)	1.0	z	0.804542
9	N	B	A	N					N	4	2	shapes	A	3	False	125	(-2.124364149321444, 1.5551715599983851)	(-0.85097395188600711, -4.9970799341588279)	(4.1708151020838464, -7.42084725644684)	(8.6082226480494981, 1.3655219379589418)	1.0	slash	0.844876
10	N	B	M	M					A	4	0	shapes	N	3	False	125	(4.7584066275951091, 2.1889016508953407)	(6.585492933894038, -7.7472392021942547)	(-7.8820742923497846, 3.5321046033290777)	(-5.9948159113620392, -1.255376163175101)	1.0	slash	0.876372
11	N	B	N	M					M	4	3	shapes	M	3	True	125	(-1.0913916076869832, -6.628539634988373)	(0.83902932812518749, 1.8412228225350642)	(6.6961638038974396, -7.1170979020855096)	(-2.95959884595639, 7.3453125605436611)	1.0	z	0.741457
12	N	A	A	N	B	B	M	M	N	8	1	shapes	A	3	False	125	(2.1083547511972167, -0.84224811930656163)	(-7.4802654557614972, -8.5755576040981332)	(7.4725870281894693, -1.658634083283137)	(0.63947058939580259, 3.4554748696738802)	1.0	slash	0.835015
13	M	A	N	N					M	4	0	shapes	M	3	True	125	(7.573081143051251, 5.218929059973302)	(-6.2717167150941053, 8.4899861051079988)	(6.1548793501812362, -3.3107132773496044)	(-3.581720368873647, -3.3327408337700435)	1.0	z	0.956712
14	N	A	B	M					M	4	0	shapes	N	3	False	125	(6.9776721778039281, -5.3196015322012409)	(-6.3327910037391533, -7.2294080131932441)	(-5.2124632244566129, 5.9876173468824163)	(1.3988495592254448, 3.6822244379255515)	1.0	z	0.814366
15	M	B	B	N	M	N	A	A	M	8	0	shapes	M	3	True	125	(4.17312635797248, 0.94989614867694527)	(-0.54187900762956609, -8.562084633572379)	(-2.9986281866895546, 0.80385324296677574)	(-8.0157650298764, -1.5602365855327367)	1.0	z	1.08593
16	M	B	N	A					A	4	3	shapes	A	3	True	125	(-5.8043551957268846, -8.5823546762498548)	(-7.699961873199225, 4.5550417144051742)	(5.8373953565363959, -2.157393159837719)	(0.33027000417899188, 5.1110796601541804)	1.0	z	0.859731
17	N	B	A	A					N	4	1	shapes	B	3	False	125	(-6.7930788401982367, -4.5055599611962442)	(2.6042725537234634, 8.1999769055219005)	(-7.2836161398626702, 8.2556135158305324)	(7.5171066857979412, -2.2309301542094664)	1.0	slash	0.630917
18	N	B	N	B					N	4	2	shapes	N	3	True	125	(-1.5253874179088607, -1.2083978077240056)	(1.8111970486160356, -7.0769907290013334)	(-7.4671166040588552, 4.0690040576080193)	(2.359645848056239, 5.104649156236075)	1.0	z	0.76281
19	M	B	N	N					A	4	1	shapes	B	3	False	125	(0.16522937230826074, -3.6546083518054679)	(6.2816273872427786, 5.7747536765333649)	(-6.1098814230956808, 8.5808462951873423)	(-5.8382189422983011, -5.7444865443997877)	1.0	slash	0.891168
20	M	B	N	A					B	4	0	shapes	M	3	False	125	(-0.22942381373946752, 1.1610598877621729)	(3.6050560126572009, 3.1896185343411165)	(8.4175199404132606, -3.6408326679232292)	(-5.5928881449575165, -4.5710389787209902)	1.0	slash	0.736158
21	M	B	M	A	N	N	B	A	A	8	2	shapes	M	3	False	125	(6.170332072101445, 7.9627481102077198)	(1.5577221035520665, -1.8680787203997591)	(-5.7135542061985527, -5.661599647024274)	(5.9540323224383727, -8.5010113024819578)	1.0	slash	1.24782
22	M	B	B	N	M	N	A	A	N	8	3	shapes	N	3	True	125	(5.0843160875968909, -7.7520776124268647)	(-0.056043580113851021, 2.0695708137145044)	(-0.54689620234286629, -3.8899863508466668)	(-8.3194618357077363, 4.4800650122987893)	1.0	z	0.624132
23	M	A	A	M	N	N	B	B	N	8	4	shapes	N	3	True	125	(-7.997872264067639, 0.4996906822036582)	(-2.9457197139101696, 8.146950353861147)	(2.253473018791631, 7.3564788547839868)	(2.2624435042827038, -0.61952164940854715)	1.0	slash	0.93318
24	N	B	M	A	A	N	B	M	A	8	2	shapes	M	3	False	125	(-5.0911728766236308, -5.3466003140378326)	(3.4304165621079719, -0.65238242209133013)	(2.5090437172349382, 6.4151048909546091)	(-8.1136773962198525, 0.7126333418254589)	1.0	slash	0.700747
25	N	B	A	A					A	4	2	shapes	A	3	True	125	(-3.4623455066059776, 0.2976455883350102)	(5.4585443638262952, -0.16695903683471336)	(-0.9156648370822289, -6.6640694371133788)	(3.9648647225918126, 6.4296267552615554)	1.0	z	0.712386
26	M	B	M	B	A	N	N	A	B	8	0	shapes	M	3	False	125	(3.9278463230880156, -5.7079185551258167)	(-6.5941544942159638, -6.6553475358897884)	(-8.5651793215262693, -1.6546381849989729)	(-4.9708534435689478, 8.3649754361167119)	1.0	slash	0.890701
27	M	A	B	A	B	N	M	N	B	8	4	shapes	B	3	True	125	(-2.3533655657876134, -5.758051136217393)	(-0.51796416449924898, 1.1261579452114852)	(-8.2461933698588847, 2.1573795974432795)	(7.3553816555881291, -1.7537390696486881)	1.0	z	0.763702
28	N	A	M	M	N	B	A	B	A	8	7	shapes	B	3	False	125	(-0.12328507064023775, -0.20859989280541846)	(-1.5304048416815874, -4.2046962840559283)	(1.8747286106751595, -6.3214448162327326)	(7.1887275511910715, 1.2620549428961549)	1.0	z	0.739465
29	N	A	A	M	M	N	B	B	A	8	1	shapes	A	3	True	125	(-1.291530005443331, -6.3310713240243075)	(-4.2454151170987657, 8.3779467891144748)	(7.1072978949982666, -5.1052343019790056)	(-3.4903020897320092, 2.4970569049410809)	1.0	z	0.891189
30	N	A	M	M	B	B	A	N	M	8	4	shapes	B	3	False	125	(3.2497339307293096, -4.4911624938731283)	(8.2305549357097441, 5.4984614869397532)	(-7.1813441220339937, -6.1606347189822479)	(-8.172191742711945, 5.5182667582292044)	1.0	z	0.602757
31	M	B	M	A	N	B	A	N	B	8	0	shapes	M	3	False	125	(3.2250537921353928, 7.2577326085964593)	(-0.78885285976307618, 8.5061616509543789)	(-8.68596302795752, 3.6290406103504029)	(-5.8466188127224674, -4.6439522019724224)	1.0	z	0.760347
32	N	A	M	A	M	N	B	B	M	8	4	shapes	M	3	True	125	(5.2158447077782171, -5.7872730256754963)	(1.4697611940374529, 7.2636550413443928)	(-1.7962404302709274, 2.0304254332371077)	(-6.5508441238283464, -2.4021465118347187)	1.0	slash	0.562074
1	M	A	B	M	B	A	N	N	M	8	1	shapes	A	4	False	125	(-2.5721579048957359, 3.5803213001330967)	(-1.8593591123206421, -4.7699046215736187)	(-4.4671403136609413, 7.1119924612022647)	(5.7128952109946169, -6.2566444087931803)	1.0	slash	0.90976
2	N	A	M	B					N	4	2	shapes	M	4	False	125	(5.1283603675017684, 7.8706198375798451)	(2.4370556127535004, -0.28683927545104737)	(-4.5598635706448913, -1.1557728176681668)	(-8.1306601491659691, 7.4669042438972468)	1.0	slash	0.681901
3	N	A	N	B	B	A	M	M	B	8	4	shapes	B	4	True	125	(1.9779714193835396, 4.5329776319293558)	(4.6351284512026947, -2.5218746794945615)	(5.8916867670878528, -7.9430983345780071)	(-0.41501073789650178, 0.28301978333844602)	1.0	slash	1.00494
4	M	B	A	N	M	B	N	A	A	8	2	shapes	A	4	True	125	(-0.52461773174964144, 3.8281614877355299)	(7.3192181912019727, -1.1344056298553475)	(4.8297215119339043, 6.7315175046418325)	(4.1445399992688241, -8.1541908551963829)	1.0	slash	0.796642
5	N	A	A	N					B	4	0	shapes	N	4	False	125	(-1.7213751597843991, -5.8462887842878004)	(2.7453585464601513, 0.031085867955065183)	(-0.7145196336661126, 3.3958470649847055)	(7.459171550117393, -2.46886585663378)	1.0	slash	0.67688
6	M	A	A	N					M	4	0	shapes	M	4	True	125	(-5.1762134698809108, -5.0411608012638558)	(8.0262504003269264, 0.27689094942191161)	(-5.5761651069503513, 4.7439850001444359)	(0.01631990149512319, -5.7286264567204519)	1.0	z	0.454554
7	N	B	A	N					B	4	1	shapes	B	4	True	125	(-5.156252904882729, 3.9825052158535748)	(-5.830828795888424, -6.4955352213432551)	(6.0447353102516832, -8.3979881372522502)	(8.1728317074020644, 4.299615879422964)	1.0	z	0.700257
8	M	A	M	B					B	4	2	shapes	M	4	False	125	(-8.1569434212896432, 0.50602190073357889)	(3.6419426994562141, -0.9770619796771296)	(-7.0652855443365725, -4.1722626336086011)	(7.9170601518141979, 2.8247934032090107)	1.0	slash	0.697385
9	M	B	N	M					N	4	3	shapes	M	4	False	125	(0.60966496705036377, 0.5529290529909634)	(4.9362119638893756, -3.9838321326257811)	(-4.9176856420682009, -4.5066834049763287)	(-7.8562089429341384, 3.8699189096554427)	1.0	slash	0.725597
10	N	A	B	A					B	4	0	shapes	N	4	False	125	(-3.6785420143957781, 3.7570576136998817)	(7.582108043325043, 3.0301564585700671)	(3.8916299833054655, -4.6392450188417911)	(-7.8607387511443898, -7.0012745552356561)	1.0	slash	0.827291
11	M	A	B	A	N	M	B	N	N	8	5	shapes	M	4	False	125	(4.3654307749364758, -7.4416012924324235)	(-7.6985804386736945, -7.3325613418276028)	(2.59204361386365, 8.6676163154996999)	(-4.8641161632233647, 4.5564548592684808)	1.0	slash	0.622331
12	M	B	A	A	N	N	B	M	N	8	1	shapes	B	4	False	125	(-8.2262478238876007, -1.2956228319490934)	(0.56984822886456143, -8.2201609457419309)	(5.5575298626501688, -7.462028701023744)	(6.7836061587489205, 7.2917584002319664)	1.0	slash	0.764577
13	M	A	A	M					N	4	0	shapes	M	4	False	125	(-1.3125608720084685, -2.4287567390662845)	(-7.070101060713573, 4.1725448814861785)	(6.9838959066816848, -2.8740969499689362)	(4.0831497380513291, 6.0094706196123795)	1.0	z	0.63631
14	N	A	A	B	M	B	M	N	B	8	3	shapes	B	4	True	125	(-4.4142613855508621, -2.5433034947936468)	(5.67740936761356, -8.5791904048384833)	(-1.7438296522500112, 1.5198904972712786)	(-7.1642262208684526, 4.9276109854998875)	1.0	z	0.677264
15	N	A	A	N	M	M	B	B	N	8	2	shapes	A	4	False	125	(2.9499175961511241, -2.7952272458945879)	(-7.4967933024469406, 0.80391863110413375)	(5.983326236490413, 5.9552913174400643)	(-1.9338375322087975, -0.75028438473878811)	1.0	slash	0.52675
16	N	A	M	A	N	B	M	B	N	8	4	shapes	N	4	True	125	(1.1432780715207205, 5.7203055499246034)	(-0.4819358399040663, -7.2541136507898338)	(5.4922759039660214, 2.3267108988415188)	(-4.2845546674638246, -2.1079559596081632)	1.0	z	1.01455
17	N	A	A	M					N	4	0	shapes	N	4	True	125	(6.9091590247003793, 0.1165811148039424)	(5.079486475284412, -7.6076288571902424)	(-5.432243237745717, -1.9153297718404563)	(-7.0401956017540854, 4.2724417416801526)	1.0	z	0.772358
18	M	A	A	B					A	4	1	shapes	A	4	True	125	(3.2512007670580623, 7.4195607849265706)	(2.2721392262853577, -8.0595136603584177)	(-5.7005674001789668, 0.9202663776395017)	(-7.9300794638004266, -3.5861368281556221)	1.0	z	0.5366
19	N	A	M	A	M	B	B	N	B	8	4	shapes	M	4	False	125	(4.8909438458979526, 4.0953437844076319)	(-5.217344266126946, -5.4302154744340569)	(-8.6901732571716011, 8.3805799159144563)	(1.2160020501282887, -0.44809260014461039)	1.0	z	0.824205
20	N	A	B	N	B	M	M	A	N	8	1	shapes	A	4	False	125	(-4.262902474674374, -2.4522516799243208)	(1.6046950265940367, 8.4846950729456729)	(-0.7237195750305716, 0.31940325577024353)	(-7.5785623897484511, 1.8803898377846213)	1.0	slash	0.579129
21	N	A	N	B					B	4	3	shapes	B	4	True	125	(2.6248445414667803, -0.10320005914821451)	(3.3706384421389615, 4.8298490086217392)	(-6.5326920803061697, 5.7347972872642483)	(-5.8305761983631452, -4.4393696176240187)	1.0	z	0.541498
22	N	B	M	A					M	4	2	shapes	M	4	True	125	(-7.0202050570781891, -6.328320483427456)	(6.8915371561526637, 8.3625853502958734)	(-0.0080451619458230539, 0.58415278522013203)	(5.1668847599040824, -6.8496047552311161)	1.0	z	0.595209
23	N	A	B	M					N	4	0	shapes	N	4	True	125	(-1.481573167473921, -4.1171598506610012)	(2.6720036924919679, -1.1912509668308111)	(6.3258116122118668, 8.3375085440539571)	(-1.9994423272981772, 0.2049013261357473)	1.0	z	0.586305
24	M	A	N	N					M	4	0	shapes	M	4	True	125	(5.0662422959563376, -3.9893558825977538)	(-2.3535588156951306, -6.9330253176414258)	(-3.6860231898102755, 0.32911088925926002)	(8.7356535470724275, 2.6756146198432926)	1.0	z	0.582468
25	M	B	B	N	N	A	A	M	B	8	6	shapes	A	4	False	125	(-5.4132765207554456, 0.2712125393616347)	(4.5656365213184333, -5.8991838466643145)	(-3.9851304318414522, 7.4862848883326798)	(6.2271932354286417, 5.7978290523093907)	1.0	z	0.747687
26	N	A	A	N	B	M	M	B	M	8	7	shapes	B	4	False	125	(-4.5991573281334741, -7.3108970170493013)	(5.1096037060195094, -2.1420572192405167)	(-5.0235755881614175, 4.4473941881481149)	(0.021912736733195715, -4.9908093839498431)	1.0	z	0.60683
27	M	B	N	M	A	A	B	N	N	8	7	shapes	N	4	True	125	(7.7929137922314702, -1.0192815321343787)	(-6.5669006651635549, 4.804936204921928)	(7.2375441946293577, 3.6923375176783253)	(1.912970430945462, -4.8534790060405406)	1.0	z	0.615598
28	M	B	N	N	B	M	A	A	B	8	1	shapes	B	4	True	125	(-3.2102080838839857, 5.2668609807648874)	(1.7711698340965434, -6.6447095880108087)	(6.9569713924267305, -5.4226268930987827)	(8.5522912763846186, 6.0880806778639354)	1.0	z	0.852525
29	M	A	A	B	B	M	N	N	A	8	1	shapes	A	4	True	125	(-3.2361134671532659, 8.046673570648494)	(-1.1791402046368917, -4.9574055616230543)	(-8.5570699390665546, 8.7107287469360877)	(3.7051911410124951, -4.0493900119228305)	1.0	z	1.57958
30	N	A	B	M	A	B	M	N	N	8	7	shapes	N	4	True	125	(-7.1352519139891051, 2.2523941449373748)	(-8.0355524880635016, -4.9394657653823213)	(8.4129782694930242, -0.11422540994441377)	(8.3164995106551558, -4.4936462571441069)	1.0	z	2.06507
31	M	B	M	N					A	4	1	shapes	B	4	False	125	(-0.60096463442952697, 2.2709335704368385)	(4.4867526838307743, -2.56514262493691)	(-5.0283323524245329, -0.021676153745961102)	(4.0129532017614853, 4.4579318878431256)	1.0	slash	0.8746
32	M	A	N	M					B	4	1	shapes	A	4	False	125	(6.2514126714687261, -0.30342618940544064)	(-8.1553798474375796, -6.275319937568657)	(4.0934289536106565, 4.8398795391010587)	(-8.2240766688964406, 7.9412557866416726)	1.0	slash	0.822867
1	N	B	M	M	N	B	A	A	B	8	5	shapes	B	5	True	125	(4.2106335383080964, 5.0779309339110963)	(-0.32897226369823329, 3.5084049189152875)	(-4.3771977151107277, 3.3796505840565221)	(-5.9452056265055795, -4.4064435145462513)	1.0	slash	0.821968
2	N	A	M	B					A	4	3	shapes	B	5	False	125	(3.1505519266090207, -4.0217873176259982)	(-8.61256545400291, 3.0120268742936069)	(-4.8098601510292722, -3.5351960954965618)	(5.6251919401729555, 0.59158625796373343)	1.0	slash	0.78566
3	M	A	B	B	N	M	N	A	N	8	6	shapes	N	5	True	125	(-5.4480649216144652, -5.8949909104390255)	(7.4470363670593116, 5.7624925280897354)	(-1.6165329096755219, 5.0161599589836214)	(1.5473083747890986, -1.0919644922385041)	1.0	slash	0.877346
4	M	B	A	A					A	4	2	shapes	A	5	True	125	(0.24824115965454219, -6.6110287158433376)	(5.6849570838913834, 7.5104628236925457)	(-3.9463605712484728, -3.1476826902398987)	(-4.5800908915357166, 1.1440991008912267)	1.0	z	0.79701
5	M	A	B	N	B	N	M	A	M	8	6	shapes	M	5	True	125	(2.79189757918199, -7.9880623586378032)	(-8.6480125385464497, 7.7489685623485052)	(8.0043282174422785, -8.0005860185668869)	(-3.3991064559347626, -3.4599248058284333)	1.0	slash	0.806459
6	N	A	A	M					A	4	1	shapes	A	5	True	125	(5.9254547330096763, -0.9907223462979271)	(1.2832866711069038, 0.0069501490941057398)	(-5.5452625545818179, -7.5424445255283725)	(-2.1832952417554985, 2.4124351930095536)	1.0	slash	0.678322
7	N	B	B	M					M	4	3	shapes	M	5	True	125	(-2.2902620431107774, -1.8223223053195339)	(6.6115867282595726, -2.9800865196826312)	(8.7355445436780421, 4.6380037260083036)	(-2.6815075492452269, 7.1900914863670717)	1.0	z	0.6678
8	N	A	A	M					A	4	2	shapes	A	5	True	125	(3.9877656352990147, 5.5225426084865603)	(-1.2653415393392393, -0.85511837214629072)	(1.7441021832771089, -5.4132116242312698)	(-2.6761098178444138, 8.1239074231073047)	1.0	slash	0.928735
9	M	A	N	B					M	4	3	shapes	B	5	False	125	(-7.9161086309313351, 2.6973515357907889)	(7.3395091954012521, -6.552059920966439)	(-3.8574719335210892, -7.7728575569136886)	(4.2272039105226149, 6.1540096284610772)	1.0	slash	0.718969
10	M	B	A	N					N	4	0	shapes	M	5	False	125	(-0.75175278380298227, 2.5920371517222431)	(0.058249775689921179, 6.8667493217335895)	(1.4448661100941482, -1.9312506014644528)	(-3.2274022252163146, -5.7874656476554662)	1.0	z	1.0364
11	M	A	N	B	N	M	A	B	B	8	3	shapes	B	5	True	125	(-5.4083626799820088, 0.55376623241604861)	(6.6103318200285734, -3.0411497274358616)	(-0.89117153062184595, 8.100100753298868)	(6.114275701182768, 5.5990396908581417)	1.0	slash	0.882526
12	M	B	N	M					B	4	0	shapes	M	5	False	125	(7.0128731131941375, -8.5099698523265079)	(-4.3495802736921885, 5.0579050245221389)	(4.7846405216783516, 0.72568757050027344)	(-6.182519562533777, -6.5172721581702984)	1.0	slash	0.833968
13	M	A	B	N	N	A	B	M	A	8	4	shapes	N	5	False	125	(-6.3540013841414247, -2.832457915295441)	(-0.67984559195425298, 3.7309890368819616)	(6.0398708911144503, -3.2650640528953341)	(0.85714152790889564, -5.4716378377254067)	1.0	slash	1.15769
14	M	B	B	N	A	M	A	N	B	8	1	shapes	B	5	True	125	(0.91177504457451697, 3.1863433995419843)	(-1.4937139615614257, 8.3467680852425516)	(-6.5813503466141121, -0.28861368820683175)	(-0.59804563872501326, -1.3014895207082349)	1.0	z	1.06331
15	N	B	N	A					N	4	0	shapes	N	5	True	125	(-7.9637307687165091, -7.0683739057250499)	(7.7281795461036182, -8.3307407774180771)	(-5.3073741491622703, 3.638915528447777)	(4.1568040864974183, 4.1479216118192763)	1.0	z	0.602961
16	M	B	M	A					M	4	1	shapes	B	5	False	125	(5.779322639730287, 8.1783832929846376)	(0.69058063808899561, -5.08623363345776)	(-4.4373897648603355, -8.5109113403832843)	(-0.96387523097891936, 7.7826347426982352)	1.0	slash	0.90669
17	M	A	A	N	B	B	M	N	A	8	2	shapes	A	5	True	125	(3.3895507397577784, 6.0441300845427648)	(-3.0592124873873585, 5.6563176682558289)	(4.4379148893686331, -8.7486594073080255)	(-4.3008109943292103, -4.6421211085927183)	1.0	slash	0.868303
18	M	A	A	N					M	4	1	shapes	A	5	False	125	(-7.1806369866070394, 4.9812392712976443)	(7.5233713366481361, 1.7901277741358523)	(-3.6670274859499585, -3.4344704628162868)	(1.3216636117721823, -6.3010196394971771)	1.0	slash	1.66383
19	M	B	A	N	B	N	A	M	B	8	7	shapes	M	5	False	125	(-3.6240233941021467, -8.0899725564313911)	(6.9074351379908112, -0.84064504036404486)	(6.8318439340235244, -7.2416819979431635)	(5.4289458129684096, 7.7070524997213141)	1.0	slash	0.677429
20	N	B	A	N	B	M	M	A	M	8	6	shapes	M	5	True	125	(5.9334357314698263, 3.8814767209506016)	(7.6559859558870365, -4.3897433644304931)	(-0.34207672315667459, -3.7049679719078563)	(5.4593981235701161, -8.2101523982421778)	1.0	z	0.849697
21	M	B	B	N	N	M	A	A	B	8	2	shapes	B	5	True	125	(1.3765839209416058, 6.8505422414744199)	(-0.59722768186162156, 0.87719656396169121)	(-8.3195775855037297, 8.7146625418557342)	(5.1172518466190748, -6.8011546878542823)	1.0	z	1.00061
22	M	A	M	N	N	B	A	B	B	8	2	shapes	M	5	False	125	(-2.8169343947506107, -8.6637318938754646)	(2.539296867078713, 4.3607812425913881)	(-5.2167332202010535, 8.2066420732942333)	(8.4655544430260647, -5.5914018314661664)	1.0	slash	0.595083
23	N	A	N	B	A	B	M	M	N	8	5	shapes	B	5	False	125	(-6.6609581980002162, -7.2543356307608242)	(-2.9987272700051726, -0.39109113629995029)	(-7.0926372468237897, 1.6450362316063778)	(5.7014481288790382, 1.9271830692098657)	1.0	slash	0.710188
24	N	B	N	M	B	A	M	A	B	8	2	shapes	N	5	False	125	(-7.4522612016491649, 8.5865339951331201)	(1.9509585943377576, -5.7007616691428726)	(-3.6917496456601171, 2.5547433113077602)	(3.1572411062591907, 4.821894691407385)	1.0	z	0.873805
25	N	A	A	M	M	N	B	B	N	8	3	shapes	M	5	False	125	(-6.2402888042720317, -1.6235645328279933)	(-3.1758101913609886, 5.5213233487350859)	(7.5028600876353515, -6.0142187122094182)	(3.5987513025538114, 2.0190355096446204)	1.0	slash	1.12533
26	N	B	A	A					A	4	2	shapes	A	5	True	125	(-1.5680574457282459, -4.2765481595340873)	(6.0508505563235033, -4.0698754079302395)	(6.6018868259119987, 6.1839430005134712)	(-5.7111534116513765, 4.3201520095833335)	1.0	z	0.580996
27	M	A	A	M					M	4	0	shapes	M	5	True	125	(1.6735600377692244, 2.9090483990189835)	(5.3277428973799097, -0.65913382073433624)	(-4.9888501000616969, 7.002712255671165)	(-5.7380627696839994, -6.3254970443396932)	1.0	slash	0.763399
28	N	A	B	B	M	M	N	A	B	8	0	shapes	N	5	False	125	(2.6425549966792818, 8.4650085315466619)	(1.5819777416348852, 1.295700605190909)	(-1.2309598857051069, -3.0949744784547839)	(-0.28269614261834874, -7.8378178088415993)	1.0	slash	0.740149
29	M	B	A	B					A	4	2	shapes	A	5	True	125	(-5.0152603856892233, -1.2553502280124196)	(-0.0049626812684344657, 1.4767675891012626)	(4.3104105219525515, 2.257972745149571)	(1.9346132160011464, -8.2018797410844524)	1.0	slash	0.600693
30	N	B	M	M					N	4	2	shapes	M	5	False	125	(2.8345166419200858, -3.5980433182832998)	(-3.1663370281393011, -1.4177495780587108)	(1.9656179634819235, 1.7586358223602527)	(-2.9151788205038107, 8.3903655436426483)	1.0	slash	1.2999
31	M	A	M	N					N	4	2	shapes	M	5	False	125	(-4.4492808827641621, 1.4504961580065547)	(-3.874219158632731, -5.461781341293019)	(1.2200144121166545, -2.3189289285468639)	(3.7054674176242806, 4.8656211457224661)	1.0	slash	0.887663
32	N	A	A	B	M	N	B	M	M	8	2	shapes	A	5	False	125	(6.5789840348498263, -1.2822672843663758)	(-5.5027146070236927, 0.99203503730326226)	(5.1243218325810442, -5.4469605551010156)	(-7.6850069030869381, 6.5805789291656804)	1.0	slash	0.697862
1	N	B	A	A					M	4	0	shapes	N	6	False	125	(-3.501218732283375, 1.0119359110846773)	(7.967793771528342, 3.6108056133439899)	(-0.64210715189271994, -2.5571657368891669)	(3.802179860641143, -3.6970307683560355)	1.0	z	0.703279
2	M	B	M	A	A	N	B	N	M	8	2	shapes	M	6	True	125	(2.825499755549167, -3.9215784968419154)	(-1.9815479693556757, 7.0130033686045152)	(7.840344735829067, 2.9002871210968841)	(-6.6281391950723663, -0.31575999643784947)	1.0	slash	0.654598
3	N	B	A	A	B	M	M	N	A	8	4	shapes	B	6	False	125	(4.2851276031373295, -2.722829541782005)	(-3.5081529631866859, 6.3454537384712069)	(1.8533576979528448, 7.8029443098686428)	(-8.4624505242610883, -1.3092006434227574)	1.0	slash	0.964723
4	N	B	A	N	M	A	M	B	A	8	5	shapes	A	6	True	125	(6.4166882236581113, 6.3596487296141468)	(7.4521452489305098, -5.2333931794268267)	(0.19188307627820933, 5.3701594523333682)	(-4.647660359307495, -2.8559387584012068)	1.0	slash	1.01435
5	M	B	M	B					B	4	3	shapes	B	6	True	125	(-6.0605021199005904, 3.3723143679258794)	(5.7341646611052219, 1.7037583598305464)	(1.3988285490147927, -2.6799082175682605)	(-5.2600064809985048, -6.8905636882583021)	1.0	z	0.699342
6	M	A	M	N					A	4	3	shapes	N	6	False	125	(-1.3484544307894568, 5.0905923070031776)	(7.7538179745854201, -0.34653143882539084)	(-1.9270695795609614, -7.5556631550976379)	(6.4309366847589988, 4.6427503556301861)	1.0	slash	0.596614
7	N	A	M	M					M	4	1	shapes	A	6	False	125	(0.51306673070732955, 1.2319795255386694)	(-2.9013436711584344, 4.9271997265387917)	(8.2351357225550714, -4.3577653352717221)	(-7.7472489984593995, -6.7802339082015672)	1.0	slash	0.684655
8	N	A	A	B					A	4	2	shapes	A	6	True	125	(-3.4717355368410017, -1.4227488872908056)	(7.919282188312291, 6.1422638021569806)	(2.4517155850623329, -8.0012734103394418)	(-7.8987246479469269, 3.5433785281294021)	1.0	slash	1.26702
9	N	B	M	M	B	N	A	A	B	8	5	shapes	N	6	False	125	(6.2425737165362758, 2.0585609373102365)	(2.102151097764434, -5.1188941244348296)	(-6.2109075685512902, 1.1085738874682001)	(8.6557818541868485, -8.3912365502035797)	1.0	slash	0.67023
10	N	A	N	B					B	4	3	shapes	B	6	True	125	(-1.7103735184545421, 5.9658276307758484)	(7.0294542474881911, -2.6246619078868969)	(-8.1798358786213061, -8.0428461705907388)	(7.5276052653915677, 4.7556894598383757)	1.0	slash	0.553706
11	M	B	N	N					N	4	0	shapes	M	6	False	125	(4.9377352948069575, 3.0557404378760697)	(-5.3437745534539181, 1.275160406342005)	(3.9681721233388991, -3.1731568023204231)	(-0.1132548754227507, -4.3219086244222922)	1.0	z	0.773412
12	M	A	M	B	B	A	N	N	B	8	3	shapes	B	6	True	125	(2.8741964866998853, -1.0608816199079989)	(1.7860459106790394, -5.0919225761836735)	(7.1508067089889131, 7.3317579439674354)	(1.805744443344798, 5.1138576326668908)	1.0	z	1.06109
13	M	A	N	N					N	4	2	shapes	N	6	True	125	(5.5702893001707583, 4.3973651899457451)	(-4.8766454156210681, 8.5080312394544428)	(2.7100291472398226, -1.3647458844763829)	(-4.7090436375400246, -3.7838781560587149)	1.0	z	0.883215
14	N	B	N	M	M	A	A	B	A	8	5	shapes	A	6	True	125	(7.7484579127870497, -0.51197388562290236)	(-6.1859287411331678, 0.62506569672864742)	(-6.143401696489148, 6.645190863526711)	(7.1262745621125365, -8.4659036834702555)	1.0	z	0.946242
15	N	A	B	B					B	4	3	shapes	B	6	True	125	(7.2708240330012366, -1.9827998702762635)	(-0.79410994699111281, 3.8915131134307064)	(4.5568387166825453, 5.7716805414440362)	(-8.3479727506870329, -8.6922895799465056)	1.0	z	1.18188
16	N	A	B	A					A	4	2	shapes	B	6	False	125	(-6.7786878687762817, 6.0327306699890286)	(-2.1280917251581686, -0.037967617222026462)	(7.9914545873003213, -1.2841263740164406)	(0.93151623524476257, 8.4670557889298479)	1.0	slash	0.737679
17	N	B	M	A	A	B	M	N	B	8	7	shapes	N	6	False	125	(3.9400552450390354, -0.46866092169102558)	(-6.5176615456647902, 4.560470523212695)	(4.0278303363217418, -7.5313772926419125)	(-7.2925597200512193, -5.9221903418942983)	1.0	slash	0.967074
18	M	A	A	B	N	B	N	M	B	8	3	shapes	B	6	True	125	(-0.5597321052954225, 4.9329786115842964)	(-1.9330551019808926, -6.7092933249737285)	(4.9269816554881665, -3.9627186846867168)	(-0.39761779068787817, 0.74096768968779614)	1.0	z	1.295
19	M	B	B	N	N	M	A	A	M	8	7	shapes	A	6	False	125	(-4.8383493029878082, 4.3229253866109403)	(-0.1893295815616014, -4.9678442852867502)	(8.4625918205931399, -2.5960569116205541)	(0.2343096841897232, 4.8474450058247918)	1.0	z	0.766382
20	N	A	M	N					A	4	1	shapes	A	6	True	125	(-4.3396505336823745, 3.3159651326906197)	(-7.4299051518598587, -5.0299875919193129)	(2.5867755590683181, 0.38658491494656388)	(7.4260145577634731, -5.4356947858819797)	1.0	z	0.646207
21	M	B	A	A					B	4	0	shapes	M	6	False	125	(-5.4016314580411393, 4.9886090842277646)	(3.1787080814588968, -2.3503022540535596)	(-6.9025389448787333, -3.4067568526915215)	(2.6306503710416482, 1.6306286459934363)	1.0	slash	0.822288
22	N	B	N	A	M	A	M	B	M	8	6	shapes	M	6	True	125	(1.0929666191821319, -6.3683024653298155)	(-7.1730635739481006, 4.4485031811144786)	(2.5117164634620899, 5.5123949079255574)	(-5.1505416109757078, -0.76452677501528399)	1.0	z	0.643838
23	M	B	A	A	M	N	N	B	B	8	6	shapes	N	6	False	125	(7.1546735188450743, 2.8562375690330928)	(-0.80559655918772588, 2.3446602239240395)	(4.5829844169556395, -0.59316161868543738)	(-2.2960605133989667, -6.4524433436725506)	1.0	z	0.971688
24	M	A	A	M	B	N	N	B	M	8	6	shapes	N	6	False	125	(6.4541399378638484, -5.3101509395828863)	(-4.7405668652136255, 5.8435130476229684)	(0.92084793737498849, -4.400852159157381)	(1.7635698144487382, 7.1169567464859291)	1.0	z	2.01936
25	N	A	A	M					A	4	1	shapes	A	6	True	125	(1.2211387855177875, -5.261014941325052)	(-3.4153505233733963, 4.0220718269822022)	(-3.7429006006689791, -1.6403728053866642)	(1.2682576736077174, 1.5205300354413325)	1.0	z	0.446426
26	N	B	M	A					N	4	1	shapes	B	6	False	125	(4.9906783474361252, -7.1665237010508367)	(-5.1363063721181756, -0.047751957792080191)	(0.32061083991342088, 5.8948167994168852)	(-8.2181394854468728, 5.8918024157209494)	1.0	z	0.619963
27	N	A	B	B	A	M	M	N	N	8	0	shapes	N	6	True	125	(3.1781585291217187, 2.645441107143375)	(7.7944689836886454, 3.7984580676924082)	(-4.8610484795572617, -3.1174749330465898)	(0.86748603231292876, -2.3958770930246001)	1.0	slash	0.70549
28	N	A	A	N	B	M	B	M	B	8	4	shapes	B	6	True	125	(7.8002634118744467, -3.0718889651965355)	(-2.3926369218531516, 7.4286861265183539)	(4.014394483542862, -8.6974019638365583)	(0.1823941530872073, 2.4124820628059283)	1.0	z	0.533375
29	N	A	N	B	A	B	M	M	N	8	3	shapes	B	6	False	125	(-4.6272190555967212, -4.4333076194499261)	(-6.7308826288193986, 1.1117419387705052)	(-0.51918950101602412, -1.514731737565322)	(-0.38667583685824525, 3.1182012011143101)	1.0	z	0.613471
30	N	A	B	M	B	N	M	A	N	8	7	shapes	A	6	False	125	(-6.2594804496913001, -3.6676600848094232)	(-6.5891138115682111, 1.020970273673969)	(5.7577477680155873, 5.5173231078702134)	(2.769169888861807, -5.8693847399797541)	1.0	z	2.0679
31	M	B	A	M					N	4	2	shapes	A	6	False	125	(4.8864972150861785, -0.16968570931064697)	(-7.5857417765477848, 8.6358737111200448)	(8.5677313704789029, 8.4391304927392561)	(-2.9678558907651897, -4.4860537548108779)	1.0	slash	0.655555
32	M	B	B	N					B	4	1	shapes	B	6	True	125	(0.2891027582172363, 5.7131548007325126)	(-6.1046820959783865, 0.79465471614144256)	(-2.0189141343550512, -6.7504906886539571)	(4.6416024769257618, -4.1152497267595525)	1.0	z	0.989243
1	N	B	A	A					B	4	1	shapes	B	7	True	125	(-0.88201410485926779, -5.1422907397061497)	(8.3168070826718399, -0.65711562956446201)	(1.0503202518569115, 7.5192244418814695)	(-3.938592829900422, 2.8530715590371134)	1.0	z	0.770921
2	M	A	A	N	N	M	B	B	B	8	4	shapes	N	7	False	125	(-5.3672825218988507, 0.9322046033366238)	(0.50747700435843512, -2.4348218047372541)	(5.3732024665940354, -7.7456404606096534)	(-2.4074528817873766, 3.9127013566152176)	1.0	slash	0.874537
3	M	B	N	A					B	4	1	shapes	B	7	True	125	(-3.2980196107897788, 2.9644649626482167)	(-1.3966913809450414, -2.3987048286280084)	(3.3792361806402482, -5.0501449225591379)	(1.4805587553726571, 3.9424757408697193)	1.0	z	0.556144
4	N	A	A	N					B	4	0	shapes	N	7	False	125	(-6.4182594570959814, -4.242055952165364)	(0.9560727886794691, -7.6629099431273691)	(-3.6245024948398736, 7.3199230274731555)	(3.0634769423831649, 0.52150293705487982)	1.0	slash	0.725951
5	N	B	M	M					M	4	0	shapes	N	7	False	125	(-0.98869482959944932, 2.3918949538497358)	(1.9267343872845704, -8.3102797982843875)	(-2.4742503742012039, -3.2076305552051965)	(7.0838725018587834, 5.8163051888805484)	1.0	z	0.613544
6	N	B	B	N					N	4	1	shapes	B	7	False	125	(-3.6973546686502345, -7.2079328351976901)	(8.6685676687876452, 4.657298851094227)	(-1.1857237199124571, 7.8712882516250176)	(0.81395339681566981, -1.6680868509309636)	1.0	slash	0.595218
7	M	A	N	B					A	4	1	shapes	A	7	True	125	(-0.15986441548107955, 8.4553725395135118)	(4.6512449606015611, 2.0467354965380533)	(-4.593513476059746, -0.73149079181414578)	(6.3641803366053242, -8.0463831638096472)	1.0	slash	1.57874
8	N	B	B	M	M	A	N	A	A	8	7	shapes	A	7	True	125	(-3.8432147734269595, -8.269049224077003)	(4.2387543542735209, 3.6664522073873549)	(-0.83527963656141857, -4.121742875105789)	(6.8073070651914716, -4.6105975213435793)	1.0	slash	0.602472
9	M	A	B	M	N	N	B	A	M	8	0	shapes	M	7	True	125	(-4.9707250147828219, 0.87684955267872589)	(2.1339188710570482, 0.23369832110735445)	(0.43657137241429567, 4.830851380518931)	(-4.5177050526537261, 5.1375410177901824)	1.0	z	0.763999
10	M	B	A	M	B	A	N	N	M	8	3	shapes	M	7	True	125	(3.8708918957678939, -3.7313890842652855)	(6.4705916005846937, -7.7669577658018625)	(1.5536943212008971, 5.4392361222874506)	(-7.7772631825070668, -0.65488921700146108)	1.0	z	0.820422
11	M	A	N	M	N	B	A	B	M	8	4	shapes	N	7	False	125	(-7.9774107114665345, -6.4511214348241168)	(2.5283360990453367, 2.35469399355609)	(-1.7734996482064389, -0.10219364774899198)	(-5.4671275182900789, 5.3449089605443323)	1.0	z	0.625104
12	N	A	B	N					M	4	3	shapes	N	7	False	125	(1.573409546572206, 5.9734656436132898)	(-2.1214040273677632, -7.2345778254549149)	(-3.1788070570262708, 3.9803704698413416)	(6.720396420011717, -4.2986679682074529)	1.0	z	0.747158
13	M	B	M	N					M	4	0	shapes	M	7	True	125	(-3.0506298587614529, -3.2756793158704749)	(7.1350505065709893, -7.4618071620933097)	(5.1877253958438256, 7.644375139903353)	(-2.2134537753865926, 3.4637509498397616)	1.0	z	0.559659
14	M	B	A	M	A	B	N	N	B	8	6	shapes	N	7	False	125	(0.0021836767955250025, 6.0489336214077465)	(-5.4608303420652238, 1.3270518739481627)	(-1.4720917983222055, 0.19032496537349886)	(-7.3145887940000662, -8.1682526282299026)	1.0	z	1.12052
15	M	B	M	B					A	4	0	shapes	M	7	False	125	(5.4920042994901337, 6.145510364193628)	(-5.8018776541721877, -3.2933207269435032)	(-1.3070156635749504, 5.7153007290405924)	(5.8369201974291798, -7.5497682219527729)	1.0	slash	0.718068
16	N	B	M	B	N	M	A	A	N	8	1	shapes	B	7	False	125	(-0.68651586581516888, 7.2900515499423051)	(-7.5384689350319487, -1.0970261433322186)	(-5.3123252181779899, -7.043293263036241)	(4.5531871862280102, 6.6216966315169188)	1.0	z	0.521635
17	M	B	B	A	A	M	N	N	N	8	5	shapes	M	7	False	125	(-6.0411363388674726, -1.0748149833656937)	(5.223371439342742, 0.2447289400461905)	(-8.517782401851191, 4.7940178545533563)	(5.5788066674128434, -8.5626085072733034)	1.0	z	0.684183
18	N	B	A	N					N	4	3	shapes	N	7	True	125	(0.093879344239518048, 5.4367455820209134)	(5.6222153787076117, -7.0710624821903219)	(-8.6073966681493044, -1.4443132169263988)	(-3.1539433895138655, 1.1544494794226079)	1.0	slash	1.443
19	N	A	M	A	B	B	N	M	A	8	3	shapes	A	7	True	125	(-0.030706017028068189, 0.98412527266241412)	(7.2530408790016523, 3.437825572818852)	(-5.3284279970184913, 4.0980606185198631)	(7.1334598940196496, -8.447182136781807)	1.0	z	6.52252
20	N	B	N	M	M	A	B	A	B	8	0	shapes	N	7	False	125	(6.9907600572433957, 7.0473146570178251)	(-1.8268791608653636, -2.34180350980228)	(-4.6151488062266122, -7.1733378238150891)	(2.8508701096580804, -6.4923508771081888)	1.0	slash	1.0924
21	N	A	B	B	N	A	M	M	A	8	5	shapes	A	7	True	125	(5.2008348981837393, 7.1806133539459029)	(-6.4335741312704595, 5.2122715278825691)	(8.0384999708645353, 1.2336723814211688)	(-4.9235272457116341, -7.6065271827128544)	1.0	slash	0.859379
22	M	A	M	B	B	A	N	N	A	8	7	shapes	N	7	False	125	(-0.027508784097449279, 1.597011984151445)	(0.51544037908445794, -4.1660137132675228)	(1.6180119413532132, 6.2403529223111178)	(6.8019777558162655, -3.6125512795423713)	1.0	z	0.64167
23	N	A	N	A	B	B	M	M	N	8	2	shapes	N	7	True	125	(-5.1543775794154385, 4.1214126499574455)	(2.3247508103621488, 0.68786689844552384)	(-5.4495693863909596, -6.2010336685969563)	(4.7142470674437114, 7.9272476784128543)	1.0	z	0.682732
24	N	A	A	N					B	4	3	shapes	N	7	False	125	(-7.9003780305748394, -2.873496155822048)	(7.0118896449589343, -7.914813049813171)	(4.5700442870398525, 6.9389129555435929)	(-0.36373656996296155, 2.4352063281082543)	1.0	slash	0.810515
25	N	A	M	A					N	4	0	shapes	N	7	True	125	(4.8323207077274404, 1.8988808196790288)	(-0.46522344646185587, -2.7817358984270095)	(7.6301185614599696, -3.139930319088692)	(-6.6445698537790037, 0.17433980027064777)	1.0	slash	0.39264
26	M	B	B	M	N	N	A	A	A	8	7	shapes	A	7	True	125	(7.045039663196782, -7.3096779887516545)	(7.5515965751308656, 3.6465992906089895)	(7.2451306067029968, -2.5359416543205713)	(0.042421803946105285, 4.9456573893608891)	1.0	z	0.763706
27	N	A	B	N					B	4	2	shapes	B	7	True	125	(7.2905072777639575, -1.621808594112216)	(-0.085183676293054233, -2.7904439828015759)	(1.1327873516057068, 4.2712543932705671)	(-6.3862796258124774, 7.5492251154187358)	1.0	z	0.7893
28	M	B	B	N	A	M	N	A	A	8	1	shapes	B	7	False	125	(5.078634795831821, -4.2457046934975056)	(2.6035070091707517, 8.6290019488936487)	(0.18517597831262478, 5.0072179846515468)	(0.64638239587466373, -5.5499661572972112)	1.0	z	0.817041
29	N	B	M	A					B	4	3	shapes	A	7	False	125	(3.0836940029671442, -1.6615614597922796)	(6.8305030920569987, 3.6739067288587783)	(-1.0730197937060417, 2.047738632772754)	(-3.298009070038896, -6.584440837939681)	1.0	z	0.486717
30	M	A	A	M					A	4	1	shapes	A	7	True	125	(7.6830899244667172, 5.8533096284353991)	(-8.5512413743904911, 3.0070440321227565)	(8.730506745151434, -8.2010807234483316)	(-4.1620661782875885, -6.5188930465096435)	1.0	z	0.557036
31	N	B	N	M	A	M	A	B	M	8	3	shapes	M	7	True	125	(-6.2551594024954476, -5.8846043549642291)	(7.2263169070316167, -5.226681042675863)	(2.502769756731924, 7.0842059881311599)	(1.2165564952428571, -7.1756041285812682)	1.0	z	0.632721
32	M	A	N	A					B	4	3	shapes	A	7	False	125	(0.7081970174144292, 3.4164808059193774)	(-8.5368582321623752, 2.4290697428794612)	(-8.6788200572671208, -5.0415302321289044)	(5.4987996178109313, -8.3632014007715014)	1.0	z	0.593741
1	N	A	B	M					A	4	3	shapes	M	8	False	125	(6.6568772462616828, 2.3192724218506999)	(2.9014728211342824, -4.724898691574003)	(-7.2174744772162311, 2.5323921746045919)	(-4.0346511867187287, -7.4454448875321075)	1.0	slash	0.777403
2	M	A	M	A					N	4	2	shapes	M	8	False	125	(8.4253025694335122, 3.2770100056951552)	(8.2452552183276637, -1.6103351010227351)	(-8.009616079643294, -5.7169892241970519)	(-3.14594972111973, 7.4727996722866905)	1.0	z	1.38757
3	M	A	M	N	A	B	N	B	N	8	5	shapes	B	8	False	125	(7.0140322065390812, -1.6855218675533745)	(0.81786097442749117, -4.8274417777678682)	(-0.69405738089994884, 8.1971660999547957)	(6.393437103104711, 6.7700886034618772)	1.0	slash	1.21617
4	N	B	A	A					B	4	2	shapes	A	8	False	125	(2.6893026943823237, 3.1398188518472772)	(7.5968826503247904, -4.2916073910433283)	(-1.612876832241799, -7.3468838489536648)	(-7.7322594506325393, 7.8818148258425857)	1.0	z	0.491225
5	M	B	N	A	M	N	B	A	A	8	7	shapes	A	8	True	125	(-0.46237294863400358, 1.0869200904216854)	(-8.3818696742102805, 4.529453548352091)	(-4.7943945526859721, -1.9153627593934619)	(-4.500466415214003, -7.5184457658335555)	1.0	z	0.634997
6	N	B	N	A	B	A	M	M	N	8	2	shapes	N	8	True	125	(-3.2438322963351531, -0.90982586820176259)	(-2.5061046054729506, -8.4292823675052766)	(7.993146436406235, -6.2012628747421452)	(1.3764922026927806, 7.2077831133788131)	1.0	z	2.79647
7	M	A	B	B					A	4	1	shapes	A	8	True	125	(-5.7363757167186655, -2.4308301079253694)	(5.8933138046242899, -2.8747513630763963)	(-4.665455871338998, 2.8051040059610699)	(3.0463097719714067, 1.6906493709925243)	1.0	z	0.603901
8	M	B	M	A	N	B	A	N	A	8	2	shapes	M	8	False	125	(-5.6057401201065256, -4.7868091490133171)	(3.2520951075672162, 8.6663986405862623)	(8.6799644933182769, 5.0059043931827265)	(5.7849322061955242, -0.74982271926173638)	1.0	slash	1.5796
9	M	A	A	B	B	M	N	N	M	8	5	shapes	M	8	True	125	(-3.8886432802299016, -2.5933753447044383)	(4.0947684586035873, -7.3783437062571586)	(6.8629010770026078, 7.3052768648287554)	(0.60333043928988772, 6.5168880511815406)	1.0	slash	0.721252
10	N	A	A	B	N	B	M	M	N	8	1	shapes	A	8	False	125	(-7.385761536910791, 5.8374266074257406)	(5.7127286236066688, 4.5762313346933894)	(-5.5354084788061737, -0.098875724887740546)	(-3.2932452122575828, 4.5982727626849655)	1.0	slash	0.834321
11	M	A	N	A	B	B	N	M	A	8	0	shapes	M	8	False	125	(-5.0994509589400803, -1.7817152533426643)	(4.0306267890466483, -2.8546569530864945)	(-1.4039982548393581, 4.4626890389595477)	(8.4176018056089923, 1.5333143904769297)	1.0	slash	3.75654
12	M	B	M	A	A	N	N	B	B	8	0	shapes	M	8	False	125	(-1.2353085275956435, 4.5842683089294241)	(1.3311631510134188, -7.8592454925554094)	(-7.6162454342674959, 6.6807779005040455)	(-2.2523636325775733, -4.296404179541728)	1.0	slash	1.00008
13	N	A	A	N					A	4	1	shapes	A	8	True	125	(2.0454254418640581, 1.9617352005027868)	(-4.682030107807412, -5.2769486825836562)	(1.3881473241436506, -2.0181885799631765)	(-5.6108931655924046, 5.0529864931515043)	1.0	slash	1.11957
14	N	B	M	B					N	4	3	shapes	B	8	False	125	(-4.9269946480622737, -1.240714370440462)	(-3.8564662604322306, 5.9683195681765362)	(6.3288223338213765, -0.14049943210185845)	(5.0466335051336095, 7.6571896249948459)	1.0	slash	0.705204
15	N	B	M	N					M	4	0	shapes	N	8	False	125	(-4.5402113497657419, -0.74729371563703673)	(-0.64402843184854142, 4.16731425238968)	(3.7164962806443729, 7.5565508755029107)	(0.34875771206939277, -8.0709496787866808)	1.0	z	0.725451
16	M	B	B	A					M	4	0	shapes	M	8	True	125	(-0.31370349285110954, -1.4892946562307605)	(-2.4719060884763771, 6.3378416719045614)	(3.9974093893096452, 3.5264120054361285)	(6.9835097324146744, -4.9817520515523954)	1.0	z	0.412513
17	M	A	A	N					A	4	0	shapes	M	8	False	125	(-8.3078468109576242, 4.9079853116748673)	(7.0196616632061968, -1.6712206789909683)	(7.6877405845300864, 8.7036819916117274)	(-0.28403719188507282, -5.7921947488131105)	1.0	slash	0.684927
18	N	B	A	A	N	B	M	M	B	8	5	shapes	B	8	True	125	(-2.8004599211787253, 4.3064172425017819)	(5.5480490807492817, -1.0233024703117763)	(4.4832642680789938, -5.2780186802420666)	(2.4284260509289926, 7.0327134557818134)	1.0	slash	0.709823
19	M	B	A	B					B	4	3	shapes	B	8	True	125	(3.6056237735346457, 6.3676055081221143)	(-3.4606810533555299, -7.1453548838156458)	(-5.091317002312735, 5.887505459066471)	(3.3988534490459674, -4.8165907669255352)	1.0	slash	1.07163
20	M	A	N	B					A	4	1	shapes	A	8	True	125	(0.68241213261992506, -0.34652075515863245)	(-3.2076479583939541, 3.6163200055837113)	(2.5849859888776994, 8.1414420915989183)	(-4.1421683562701777, -7.5687898019275792)	1.0	slash	1.08329
21	N	B	M	N	A	A	M	B	M	8	4	shapes	A	8	False	125	(1.8661521604414162, 7.4016486733287863)	(-0.90305000699443116, -7.0571067321140868)	(7.3407841507303218, -5.7356793415392122)	(4.4440865192426546, -2.7060761298086202)	1.0	z	0.708762
22	N	A	N	M					M	4	3	shapes	M	8	True	125	(-2.4342077013509078, 7.5625678522273709)	(2.4651083883242926, 7.3155258720177123)	(-6.9237729961057486, -3.4250194013073028)	(4.2715495356508075, -7.9298831118251512)	1.0	z	0.654599
23	N	B	A	N	B	M	M	A	B	8	5	shapes	M	8	False	125	(6.8367930172119085, 6.9896913588054197)	(-0.88369460735605454, -4.593396328231842)	(2.4270942226878773, 6.7471035313977463)	(-4.6589381334731534, -1.9396544701165981)	1.0	z	0.784171
24	N	A	A	M					N	4	1	shapes	A	8	False	125	(4.3288117993077577, -6.6302264260433699)	(3.0543677667101488, 0.17133107581146412)	(-7.4288297101682641, 1.7611859698090946)	(-4.4500762062385508, -5.183836856824616)	1.0	slash	0.676747
25	N	B	M	A					B	4	1	shapes	B	8	True	125	(3.9898038462303393, -1.5891346674325337)	(-7.6682747093739492, -6.0925170175833028)	(4.5409738262544703, 8.2132652052511652)	(-5.8635517165498126, 2.9006810406190873)	1.0	slash	0.804248
26	N	A	B	A					B	4	1	shapes	A	8	False	125	(-5.5354122438811997, -7.9889025403138989)	(1.8622098184959732, 3.6418102700836261)	(-2.0937911485461447, 6.4818136357824869)	(4.3974145255995154, -6.1225900709144678)	1.0	slash	0.859353
27	M	B	N	M	B	A	N	A	M	8	3	shapes	M	8	True	125	(-2.8550359245493677, -4.8769055800808685)	(7.9558189063306273, 4.9083480888805013)	(3.4281548299045692, -4.9741916680585696)	(-8.3793563323071911, 4.0521567032734005)	1.0	z	0.681421
28	N	B	M	M	N	B	A	A	B	8	1	shapes	B	8	True	125	(2.2347886908298182, 6.7433667709125444)	(-2.2075309589593477, -3.3510200342501681)	(3.2445194376009283, -6.5176385605127081)	(8.5693121772622334, -4.3294766007946066)	1.0	slash	0.77843
29	M	A	A	N	M	B	B	N	A	8	2	shapes	A	8	True	125	(-5.0147048368935554, 4.471994180016889)	(-2.7907156783878202, -8.1777310173244064)	(-1.1728152226369808, -0.13294226914823959)	(8.575753992417912, -6.9660026134514696)	1.0	slash	7.70404
30	N	B	A	N					N	4	3	shapes	N	8	True	125	(-4.2609051164336575, 4.6759689742981809)	(3.9978324325266339, 3.4544683167337098)	(-5.0461078660416803, -2.6503395170296242)	(7.6363521479328718, -0.66400335785106712)	1.0	slash	0.557216
31	N	B	B	M	M	A	A	N	A	8	3	shapes	M	8	False	125	(-4.7190654994639134, -7.8873278451655002)	(-2.3653766698433749, 1.8317322469377313)	(8.5876222328901228, -3.4545734845374962)	(7.4130495112889498, 2.8336766907378887)	1.0	slash	0.99165
32	M	B	M	N	A	B	N	A	A	8	7	shapes	A	8	True	125	(-0.98754711697901687, -1.903632654586497)	(3.6099120539809491, -3.5995895002521276)	(2.3446810397856872, 6.0023521126895432)	(-6.8128952781195196, -5.9412761481646239)	1.0	z	1.44457
