TrialNumber	stim0	stim1	stim2	stim3	stim4	stim5	stim6	stim7	stim.probe	ttl.stims	corr.num	trial.type	stim.corr	block	match	Subject	stim.pos0	stim.pos1	stim.pos2	stim.pos3	ran	resp	RT
1	M	A	A	M	N	N	B	B	A	8	1	shapes	A	Practice	True	13	(7.1498950242159953, -1.2974008423617178)	(2.6038788894481453, -4.2294793682827914)	(-2.9630677095689499, 0.38941745856143584)	(8.6429314694621482, 2.8240118255723026)	1.0	slash	7.78545
2	M	B	B	M					A	4	3	shapes	M	Practice	False	13	(-1.5289876784167795, -6.3210386175693944)	(-3.0479946581305937, 3.8663293124911604)	(4.0711063567182642, 5.7911348539567946)	(3.3964254880820928, -4.8378412203379284)	1.0	slash	1.84651
3	M	A	M	A					A	4	1	shapes	A	Practice	True	13	(1.9492329374334147, 3.8576447337547126)	(3.9510712877519882, -1.2792014008742809)	(-3.2388598660963606, 3.4182185668511487)	(-7.2902144160503628, -0.5737103090468576)	1.0	z	1.71209
4	N	A	N	A	M	M	B	B	N	8	2	shapes	N	Practice	True	13	(0.23394907766816786, -1.0834494626745803)	(-5.0119408022924086, 1.5026333913281782)	(6.7097659182396434, 3.4101528909123822)	(1.9891179241063579, 8.2773560776347317)	1.0	z	2.16567
5	N	B	A	A					N	4	3	shapes	A	Practice	False	13	(-6.3073321823104491, 5.4001470816215686)	(-1.8728327625254675, -1.9583296420118348)	(7.515272431365041, 8.5840622468137795)	(2.1370435802241055, -2.2004649905257976)	1.0	slash	2.08731
6	M	B	M	N	N	B	A	A	B	8	3	shapes	N	Practice	False	13	(7.4776690154018866, 5.4368172591423214)	(-1.1302076426768384, -6.4533606410060802)	(-0.50652564136994194, 1.6520053427033652)	(-8.3090117057096027, 7.3964851522288484)	1.0	slash	1.76279
7	N	B	A	B	A	M	N	M	M	8	4	shapes	A	Practice	False	13	(0.66601199960962632, 6.8327277027761824)	(8.6421621104176651, 5.5676529131233785)	(-6.7936525533243701, 8.3933683514045327)	(8.7427974935313593, -3.7803651952225392)	1.0	slash	2.59042
8	N	A	M	A					A	4	1	shapes	A	Practice	True	13	(-7.7542384934579882, -8.6541564456351168)	(1.3523510928639961, 3.6070283359020738)	(-4.3928870602702288, 1.8788342365466839)	(3.4536362028565026, -0.43035025943837368)	1.0	z	1.55405
1	M	A	B	B					A	4	1	shapes	A	0	True	13	(-1.0628195373807126, -1.1046742131743628)	(7.7443417479654464, 2.2340343593410115)	(3.199233749576381, -8.5583567411899697)	(-1.2220612692239801, 6.3833105436751705)	1.0	z	1.61521
2	N	B	M	M	B	A	A	N	A	8	0	shapes	N	0	False	13	(-1.908766264495271, -6.2420408219423944)	(-4.2920769809456161, -2.1309203440970101)	(1.1747071359224499, 7.9664907155728244)	(3.6992336294155237, -5.1191409833361989)	1.0	slash	2.33743
3	M	A	A	N	N	M	B	B	B	8	2	shapes	A	0	False	13	(3.970033030649887, 4.0462508088601439)	(-3.7524823235975058, 5.34917493316315)	(6.7527556353401739, -0.020807101387507743)	(-5.9793849194865523, 0.86498795319676347)	1.0	slash	1.88222
4	M	A	M	A					B	4	1	shapes	A	0	False	13	(-5.7726592041200302, 6.8216327523579334)	(3.6834068506045341, -8.0123688493905281)	(2.303914432067236, 6.5043209918209239)	(-5.384661066293468, -6.338809301759845)	1.0	z	0.867778
5	M	B	B	A					B	4	0	shapes	M	0	False	13	(-7.7994137654806606, 8.1857811784097194)	(-4.58685708362664, -5.3610531123103016)	(7.9989775275329436, -1.1926044457726421)	(4.7343482895441653, 6.5121781874306439)	1.0	slash	0.583518
6	N	A	M	N					N	4	3	shapes	N	0	True	13	(-1.1820921268256139, 4.4137977169523381)	(0.99175913338010346, -6.7257972965045667)	(-7.2481178419208785, -1.9107406339080306)	(8.7402596000834478, 3.5342293548865431)	1.0	z	1.22907
7	M	A	M	B	B	A	N	N	B	8	2	shapes	M	0	False	13	(-5.7288882277108666, 5.2959657921973875)	(2.6787784214619794, -8.4775134970502481)	(3.7040853743636273, 4.3894012111640954)	(6.779874530826028, -7.2039444656201717)	1.0	slash	0.788742
8	M	A	N	B					A	4	3	shapes	B	0	False	13	(7.0895835622827903, -8.7090800185130952)	(-0.25900137124457778, -4.2402625878074351)	(-5.6355116854900462, 7.3929089759826674)	(5.7546189872505753, 7.8426427791187265)	1.0	slash	1.68836
9	M	A	A	B	M	N	B	N	N	8	5	shapes	N	0	True	13	(3.912958090926276, -1.9886615965516921)	(0.97952814846725644, 8.025973662442464)	(-8.5487967930556348, 0.56608391618744847)	(-7.2885243678587273, -5.360831478743453)	1.0	z	1.36408
10	M	B	B	A					B	4	1	shapes	B	0	True	13	(2.5906479393220305, -0.76826451953544783)	(-7.5070448073731733, -6.3345168129386682)	(0.15068714665178362, 4.6079886736899791)	(-8.6583498468907489, 7.8083842898957379)	1.0	z	1.20362
11	N	B	A	B					N	4	0	shapes	N	0	True	13	(-4.4834178601389558, 1.5113513293188987)	(5.6117081165571072, -2.8435854563689276)	(1.1432623380528426, 5.1587347768422429)	(-0.44333368359627912, -3.1593616483596554)	1.0	z	1.07725
12	M	A	B	A	M	N	N	B	A	8	6	shapes	N	0	False	13	(-2.3495009750171638, -5.4433490737325574)	(-8.3961845830600801, -3.0729349871249871)	(-7.2550493030109413, 3.1221153033517464)	(-2.4985359561670988, 1.4918052019269084)	1.0	slash	1.89076
13	M	B	N	M	A	N	A	B	N	8	2	shapes	N	0	True	13	(-3.0561142848753482, 5.879740131121693)	(3.534535653445257, -1.2192365807120069)	(3.1187395332174859, 5.1130233538205285)	(8.5997314109975918, 4.7064541410419363)	1.0	z	2.38844
14	N	B	M	A					B	4	1	shapes	B	0	True	13	(7.7212160843696722, -3.3258182877332372)	(-4.9543036431758569, -0.55335642864900159)	(5.6413951240541653, 1.1053760889607798)	(-5.6058693681709268, 4.1239344652163563)	1.0	z	1.17596
15	M	B	N	B					M	4	3	shapes	B	0	False	13	(6.5770261314874201, 5.2954994029736007)	(-7.8632196622050525, -2.1845833470752858)	(7.4746081893455454, -0.24355401259494336)	(-1.2945451661181746, 1.0058786659949934)	1.0	slash	1.08767
16	M	B	M	A					N	4	3	shapes	A	0	False	13	(-1.6337210195336738, -2.566188611279574)	(-6.2590676793642377, 1.2817833525037372)	(6.6559747953394535, -1.8761499043202345)	(1.1171369856674538, 2.5507231635202654)	1.0	slash	1.03302
17	N	B	M	M	A	B	N	A	N	8	6	shapes	N	0	True	13	(0.82439433382694283, -4.1365347560177206)	(-3.010752984278537, 4.2862717667657186)	(2.4881293712858117, 5.9387274978695022)	(-6.8235477148684627, 8.0598820513470422)	1.0	z	1.35055
18	M	A	M	B	A	N	B	N	N	8	1	shapes	A	0	False	13	(0.97198470374774359, 0.41398883999991121)	(8.0855816294438512, 4.5935685303935223)	(5.8559357994841914, -4.4202887442670393)	(1.1613493229072791, -8.2240650340423436)	1.0	slash	1.08452
19	N	B	N	M					A	4	3	shapes	M	0	False	13	(4.4650079613240958, -7.949732866576098)	(-4.9583285722339863, -1.3974123897593218)	(-0.45325822490429424, 0.85419542150044769)	(8.2353394638760058, 6.5974109438794262)	1.0	slash	1.03012
20	N	A	B	A					A	4	3	shapes	A	0	True	13	(-7.034789056294394, -4.0363161525845124)	(-4.5354058908758317, 1.7234115035265614)	(8.5164773650637358, 0.44790267958361873)	(3.2900927016223829, -0.88501675154249693)	1.0	z	1.2578
21	M	B	B	M	A	A	N	N	B	8	6	shapes	N	0	False	13	(3.2127594380476978, 0.93855749603617333)	(7.4074172666458615, -3.8820520583271021)	(-3.819398873204376, 5.2699869038855649)	(-1.9142026967763757, -7.0853855337739482)	1.0	slash	1.29932
22	M	B	B	M					M	4	3	shapes	M	0	True	13	(5.1472386701859225, 5.2395202141898096)	(6.2250443580998951, -1.6678187511022475)	(-0.98754983052728118, 5.0551341639678267)	(-4.7025556300148894, -3.4995844972015391)	1.0	z	1.52111
23	M	B	N	N	A	A	B	M	A	8	4	shapes	A	0	True	13	(-4.8806708711144857, 5.6727542352359386)	(5.0864131815368587, 7.1931460469182831)	(3.4219223590257215, -2.2369811465368112)	(-6.7010795916848078, -3.3781407995017005)	1.0	z	1.32476
24	N	B	B	N	M	A	M	A	N	8	6	shapes	M	0	False	13	(-6.4500344464511601, 5.2358048416214569)	(0.18036386775682089, 3.7343871148027734)	(8.0847220942074074, -5.954731486209992)	(-4.342347409053037, -5.6543160271742403)	1.0	z	1.13616
25	M	B	A	B	M	N	N	A	M	8	3	shapes	B	0	False	13	(-7.4972642018994691, 0.76644751559980939)	(4.295983000567773, 8.0445250267301951)	(1.8089387777224193, -1.2590267236259063)	(-7.0670365481399351, -4.4438398894704383)	1.0	slash	0.809942
26	M	B	B	M					B	4	1	shapes	B	0	True	13	(-0.43509715675674698, -4.2684785790608268)	(7.2919107929128302, -5.3062716016037381)	(6.8622103981818121, 5.4162134099519808)	(-6.4908160448255083, 2.3024120406625581)	1.0	z	1.39361
27	M	B	B	A	N	M	A	N	B	8	1	shapes	B	0	True	13	(1.0343371734800151, 4.3827054291732619)	(0.17688249918013454, -2.2621985497890176)	(-8.6652306670760471, -7.1464157339997776)	(7.8979668178135469, 7.7803802507286619)	1.0	slash	1.47113
28	M	A	A	M	N	B	N	B	N	8	6	shapes	N	0	True	13	(-8.276890783189069, -6.3009892022712517)	(7.4732009372786337, 2.168550269650714)	(8.1447175962769336, 8.0851340899762185)	(7.5908377322108649, -4.6952984297545406)	1.0	slash	1.58287
29	M	A	N	M					A	4	3	shapes	M	0	False	13	(-5.704799993358602, 6.0165217127704231)	(1.9869410431217585, 5.4858221961542739)	(-0.19338649302088839, -2.5158885159249351)	(6.679799991021774, -2.5042473269616412)	1.0	slash	0.916277
30	M	B	A	B	A	N	N	M	M	8	0	shapes	M	0	True	13	(8.7252432859061706, 1.6432795690477349)	(0.9639342752232416, -7.9839101642819834)	(5.9724336816611867, 4.8270611944624555)	(-3.0514711824845939, -1.8767517821405661)	1.0	z	0.986011
31	N	B	A	A					B	4	3	shapes	A	0	False	13	(2.0448507151844471, 7.1535696191405833)	(5.2935278225467979, -2.7694428277712264)	(-1.3713938461756969, -2.073810274765516)	(-7.3852711709118388, 6.1970806957293849)	1.0	z	1.16766
32	M	A	A	N	B	N	M	B	N	8	3	shapes	N	0	True	13	(-5.4326489263254665, -4.6966338416063778)	(3.6172477468837609, 4.0470739706670678)	(-3.9165791848801783, 3.4416181724321699)	(0.79794657820770887, -2.355887233678823)	1.0	slash	1.25724
1	M	B	A	N	M	B	N	A	M	8	5	shapes	B	1	False	13	(7.6210255269058429, -7.2425964092772341)	(0.13408905091501389, 7.8327878809450695)	(-3.0642682530634895, 1.8847638494338348)	(-4.1529454965273551, 7.9804174517416371)	1.0	slash	1.1269
2	N	A	B	N	A	B	M	M	B	8	0	shapes	N	1	False	13	(5.1101914514594888, 3.7655438136284705)	(6.0365703788490794, -1.9767191007297216)	(-4.0167950865996458, -7.0870052990297872)	(-1.5443969538924112, 5.4443032666845781)	1.0	slash	0.810332
3	N	A	A	B	M	N	M	B	A	8	1	shapes	A	1	True	13	(6.2410492416142187, -1.8094033582648272)	(-5.077355510726, -4.8208196337731399)	(-8.1096803440598801, 8.4420363920762256)	(-8.7265332217897456, 2.4168280169981191)	1.0	slash	0.932243
4	M	A	A	N					N	4	1	shapes	A	1	False	13	(2.9966312665085315, 5.9473762635537124)	(-4.9541076587708881, 7.8941778091205705)	(5.6345379975910053, -7.6848594970222681)	(-1.4524123124919832, -2.5395408479956236)	1.0	slash	0.931759
5	M	A	B	N					M	4	0	shapes	M	1	True	13	(0.38790370921177697, 2.3328824747833856)	(-6.2128029625005228, -5.4538975763572584)	(6.0495685357616384, -3.1035439257132493)	(-6.4152367964879087, 3.1495522038658628)	1.0	slash	1.1635
6	M	B	A	N					B	4	3	shapes	N	1	False	13	(-4.9318861415296409, -1.5855774100028039)	(0.85123608034437481, 5.1348239558489635)	(4.6900444970232726, -3.0862198050925551)	(-7.9280733710796962, 4.6247375843001972)	1.0	slash	0.765082
7	N	A	N	M	A	B	M	B	B	8	2	shapes	N	1	False	13	(-7.4686985156091321, -7.1077499476923984)	(0.24091152193407517, -7.6464976921845471)	(3.3735801793729081, 3.6202615835406657)	(8.3868286176059001, 1.842552125409668)	1.0	slash	0.816514
8	M	B	B	N					B	4	1	shapes	B	1	True	13	(6.4556074345979084, -1.7436891453107055)	(3.1944174675757271, 2.2179484850665858)	(-3.9944237180472406, -4.980914857818199)	(-4.4283750623941636, 3.2364467829727008)	1.0	z	0.864461
9	M	A	M	B	N	A	B	N	M	8	0	shapes	M	1	True	13	(8.4280940094575243, 5.231032102559352)	(0.22901828704400451, -8.310761120782777)	(8.5717114697118468, -3.887805545261739)	(-7.2462170687987744, 4.3705114937361085)	1.0	z	0.920055
10	N	A	A	M					A	4	3	shapes	M	1	False	13	(4.6699392986891795, 7.1741221090399385)	(-4.760141310138815, -7.8516520460812949)	(-6.1763653002654264, 0.65459461970000099)	(1.9355287962935037, -3.9213253971357753)	1.0	slash	0.673669
11	M	B	B	N	M	N	A	A	N	8	4	shapes	M	1	False	13	(3.4822835995970713, -2.3124294081964285)	(1.5892697367563287, 2.5936457652271017)	(-8.3513524898573728, -2.0294715563939683)	(-8.7474725376053311, -8.0675208636639049)	1.0	slash	2.13526
12	N	A	B	N	M	M	A	B	M	8	5	shapes	M	1	True	13	(-0.82713492374400754, -5.5198998612837968)	(1.8223664564353026, 6.8401958478893601)	(-6.3763972218489338, -5.917182637248585)	(-5.1563624162230761, 0.26541322716981242)	1.0	z	0.744011
13	N	B	M	B	A	A	N	M	B	8	5	shapes	A	1	False	13	(4.0183329181263687, 2.5186563075409296)	(8.6569642895003334, -1.6622371926628086)	(-6.2191655855754213, 0.13649927231408832)	(-0.98416348990978886, -3.0730445674682425)	1.0	z	1.40858
14	N	A	B	M	A	M	N	B	N	8	2	shapes	B	1	False	13	(-4.0069709579866801, -2.022058827389098)	(-8.4110642951347252, 8.276101768359549)	(-4.6329108616660797, -8.6281872851005232)	(-2.2228068980347953, 3.4861377284820456)	1.0	slash	1.20422
15	M	B	M	N	N	A	A	B	A	8	7	shapes	B	1	False	13	(-4.7382702308901257, 4.7641069003685743)	(8.326888495652593, 6.0009875016544996)	(-5.548856816140872, -4.3281320352358312)	(-2.2897654347803531, -1.9283955552282785)	1.0	z	0.869837
16	N	B	N	A					A	4	3	shapes	A	1	True	13	(5.0827882423186832, -3.3067786683841405)	(-3.5299528051802005, -8.209770680642384)	(-8.7498936872686741, 3.6655002310140876)	(3.8097201707108184, 4.5505549401698939)	1.0	z	0.529365
17	M	A	M	B					M	4	2	shapes	M	1	True	13	(8.5591702419126889, 1.624820680221589)	(-6.06786390676608, 8.2401335431464204)	(2.8289245379015835, -1.5293104829887554)	(-7.6077241181829747, -8.5233199216870279)	1.0	z	0.793274
18	M	A	A	M					B	4	3	shapes	M	1	False	13	(-3.92796120407196, 2.8095316566515081)	(8.5677362325708515, 2.368703509483062)	(3.468163709162134, -0.52840060860530791)	(-6.0009172341440618, -1.9590382790774408)	1.0	slash	1.57259
19	N	A	N	A	M	M	B	B	M	8	1	shapes	A	1	False	13	(-7.183365091524367, 7.7467915455379917)	(-0.86132969245219559, -4.5778762187561348)	(3.2983373015175239, 6.8230379526795542)	(-7.6826055579654362, 2.9969678604262882)	1.0	slash	0.990275
20	N	A	M	N					B	4	2	shapes	M	1	False	13	(2.7099267614591867, 6.781010316138115)	(7.0798986121066694, -4.4861000323361866)	(-2.0197216470174411, -8.1527620760008439)	(-8.5914104467661101, 8.0820379944662868)	1.0	slash	1.45798
21	N	A	N	M	A	B	M	B	A	8	1	shapes	A	1	True	13	(-5.9304435062902474, -1.7285609009442329)	(1.7327808641550657, -1.0980550697990381)	(-1.4199074131082696, 2.9841957520736191)	(7.3117614512891436, -2.0107118486230977)	1.0	z	1.05151
22	M	B	N	M					M	4	2	shapes	N	1	False	13	(-6.185021879759276, -6.1317969923314886)	(0.49205813257341546, 2.3631234471355569)	(-1.7260751243332448, 6.5068757973676323)	(6.1309348021083689, -3.1343062410116751)	1.0	slash	0.899227
23	N	B	M	A					M	4	2	shapes	M	1	True	13	(2.5951952470286077, -1.0020625166942549)	(-0.91166899709240923, -5.510128145287462)	(-0.2823380049405948, 2.109395449863289)	(4.8101295689470351, 6.5377305005127884)	1.0	z	1.15298
24	M	B	B	M	N	N	A	A	A	8	6	shapes	A	1	True	13	(-1.9912192127528909, -7.499877264482441)	(-7.6206490054732887, 2.9551410955992505)	(2.9320364119423736, -6.7937310038507919)	(6.579345166700989, 0.75521760721087894)	1.0	slash	1.26257
25	N	B	N	M					N	4	2	shapes	N	1	True	13	(-6.6364582397941794, -2.9345126912572637)	(0.43257877754041552, 6.0474474320690543)	(3.4276272372501779, -8.0305708749878111)	(-2.7590637955801682, 0.57769631257002096)	1.0	z	1.53176
26	M	A	N	N					B	4	1	shapes	A	1	False	13	(-4.2095756798801078, 1.6889874837944721)	(7.2980291104886703, -5.5595647940710933)	(1.607871598790128, 6.354790391312946)	(-2.7277731187032543, -7.4485000183331698)	1.0	z	0.723756
27	M	A	B	A					A	4	3	shapes	A	1	True	13	(2.3963779479453446, -1.0043570340382271)	(-5.9022910719309953, 6.278615377575484)	(6.9703222291125932, 7.9109259065991928)	(-7.7807299777678205, -5.6478065146507044)	1.0	z	0.603518
28	N	B	M	M	B	N	A	A	M	8	3	shapes	M	1	True	13	(-7.3715628473849195, 6.2530499808946924)	(5.0029008566536355, -6.4648821380135466)	(8.5397844540813246, 5.1092973745894081)	(-4.746923024155782, -2.303851930482355)	1.0	z	1.09509
29	M	A	N	M	A	B	B	N	A	8	4	shapes	A	1	True	13	(7.8442853129436827, 4.9855493804647715)	(-2.4866301601059897, 2.6975070673294059)	(-5.6754395897132124, -5.253308390571874)	(2.8315808353379097, 4.4720739794236)	1.0	z	0.768732
30	N	B	M	A	M	N	B	A	M	8	4	shapes	M	1	True	13	(3.2749074522509609, 2.8169740403908481)	(-3.4108990806502879, 5.2854356408264795)	(-0.17740681032977079, -5.2822436068652321)	(0.47474501583726791, -0.11371952619129289)	1.0	z	0.706403
31	N	A	M	M					N	4	0	shapes	N	1	True	13	(-4.3316382197534651, 1.2327240230070728)	(5.083451990787621, -2.4030252554892817)	(7.339493620725591, 3.2567815530545392)	(-0.27172342357230939, -0.22782272292788974)	1.0	z	0.584052
32	M	B	B	N					B	4	0	shapes	M	1	False	13	(3.1692225148658828, 5.9919669479044568)	(-1.8506864608684923, -5.7376979390738292)	(-8.7084837796240055, 4.995956234099765)	(3.5443305834493462, -6.6134459906873495)	1.0	slash	0.72555
1	M	A	B	A					N	4	1	shapes	A	2	False	13	(-2.6266521735037358, 3.3704423334934841)	(0.39331974441043371, -4.1744183348575179)	(7.3507059276574083, 5.9107044511331956)	(-3.6064248791616462, -6.1549151997446465)	1.0	slash	0.801348
2	M	A	B	B	A	M	N	N	B	8	1	shapes	A	2	False	13	(2.9355178968899036, 0.71391479026484816)	(0.51724341239567551, -3.5871991785313657)	(-8.4032907865955213, 2.5039069896421022)	(2.7199167454444133, -7.9989649626057417)	1.0	slash	0.836899
3	N	B	A	N					A	4	2	shapes	A	2	True	13	(-8.4744451405290295, -7.8949176223321631)	(2.8945336673763542, 2.0763590560334979)	(7.3100560082106583, -1.5915360260335447)	(-6.0995716551448531, 7.0078053338823754)	1.0	z	0.848584
4	N	A	A	N					M	4	3	shapes	N	2	False	13	(6.4310395440449231, -8.3996327134412656)	(-5.6654677497142716, 7.945863765319281)	(-2.8869286777858942, -3.1653680300679801)	(2.4534455002220774, 3.2705035893731953)	1.0	slash	0.856438
5	M	A	B	A	M	N	B	N	N	8	1	shapes	A	2	False	13	(-1.8003369116113452, 6.7620612912549696)	(0.54150996107316018, -1.4859983642326986)	(-3.2146937473471837, 0.18944785390316632)	(6.5470854545213619, -8.3875859040684038)	1.0	slash	0.705916
6	N	A	B	B	N	A	M	M	M	8	6	shapes	M	2	True	13	(7.7970442937481543, 4.907685447054714)	(-3.0010395889357619, -0.3448018976496634)	(5.2742746845027959, -5.5125752111556814)	(-1.1930084364902163, 5.1225384819151003)	1.0	z	0.609377
7	M	A	B	B	M	N	A	N	B	8	1	shapes	A	2	False	13	(5.5053821920849213, -0.036972531419131371)	(0.066015218951609, 6.2275803858881655)	(7.7994418155148537, 4.3847664379368556)	(7.2099840348694588, -7.042620953284092)	1.0	z	0.837209
8	M	A	N	A					A	4	1	shapes	A	2	True	13	(-4.0348355605384469, -0.32661008382853751)	(2.2921716379177735, 0.11319881572495838)	(5.8488732489000892, -6.702760654671521)	(-0.18603304744877924, 6.7295108823840302)	1.0	z	0.902757
9	M	B	B	N					N	4	3	shapes	N	2	True	13	(2.0022633319904894, -5.8030262658333225)	(1.4657878805105966, 0.66723661922019062)	(-5.6506495230641978, -1.8560631702756787)	(-5.3732878882389699, 7.443078829124282)	1.0	z	0.659347
10	N	B	M	B					A	4	1	shapes	B	2	False	13	(-4.7475680303199868, -0.028928480045248506)	(3.2312234100937847, 7.3907029781791387)	(-7.6734623076984505, 5.7291515397369626)	(1.3500711224573418, -2.3197740609936197)	1.0	z	0.59419
11	M	B	M	A					M	4	2	shapes	M	2	True	13	(5.1919795109693663, 1.3031580937406684)	(1.7120133442345953, -0.72349644146070347)	(-4.8732351644500707, -1.6962159377059915)	(-7.7124403471887728, 6.2708060910489696)	1.0	z	0.669851
12	M	A	M	A	N	N	B	B	M	8	0	shapes	M	2	True	13	(-1.2892844028410027, 5.1559786372074523)	(4.2279815399911183, -5.0762879131404421)	(7.427755322338605, 4.0286818603278842)	(-0.44171491389087869, 0.55444627545660197)	1.0	slash	0.933606
13	N	A	N	M					N	4	2	shapes	N	2	True	13	(6.2524951656362813, -2.9509551926140274)	(-7.4505554350659828, -8.538437886937821)	(-6.6330481841043119, 5.5744541546968769)	(6.0680893762660908, 2.3885563441628879)	1.0	z	0.533205
14	M	A	A	M					B	4	0	shapes	M	2	False	13	(0.87005228515867294, 5.1318078923387223)	(3.3505364214583757, -0.18879284143113217)	(-2.4929402668674063, -0.56368919588238242)	(-2.2025599081087126, 7.7626462669349969)	1.0	slash	1.13288
15	N	B	M	N					B	4	3	shapes	N	2	False	13	(2.6865046414413261, 4.113067296661038)	(-7.6369642982944619, 2.1699241022477924)	(-5.3709607318051766, -2.0588113366712255)	(0.41718821039508747, -3.6916371919247073)	1.0	slash	0.868511
16	M	A	A	N					N	4	3	shapes	N	2	True	13	(6.9098927994148198, 4.4499378828055356)	(-8.0139668763252701, -1.4528294377294362)	(-4.7987389769987949, 1.0120458902324234)	(0.16428961351389759, -4.4504154021156017)	1.0	z	0.704105
17	N	A	N	A	M	B	M	B	N	8	2	shapes	N	2	True	13	(-6.0570512528762261, 1.202318539046777)	(8.0753549001884046, 1.898045300202174)	(-0.6258096908564692, 6.7278030987165796)	(4.2372965203175017, -6.1062333954860808)	1.0	z	0.639859
18	M	B	B	A					A	4	3	shapes	A	2	True	13	(2.6306442301344468, 7.2675443750540083)	(2.4465597971931388, -7.9676061495621218)	(-4.3892038524680492, -7.1274580975919042)	(-4.5161957567151125, 0.26101946931997588)	1.0	z	0.897463
19	M	B	B	M	A	A	N	N	M	8	5	shapes	A	2	False	13	(-5.7321043782547108, 7.7205893363021865)	(3.817746757175188, -0.53268006953353897)	(-7.880155533934821, -7.2605465170158867)	(-1.8317433623701636, -4.140955902647339)	1.0	slash	0.723143
20	M	A	A	B	B	M	N	N	B	8	4	shapes	B	2	True	13	(-3.4938980337477901, -0.76678443433312449)	(2.2615505760952725, 7.6582820851702493)	(-3.0687079499879282, -4.9208384607154763)	(-8.2102423686208041, 4.7736574386486055)	1.0	z	0.638766
21	M	A	N	A	N	B	M	B	A	8	3	shapes	A	2	True	13	(5.1111404189195238, -3.6574799648072416)	(-4.6460274010578955, 7.202236577041786)	(-0.69847172575151184, -8.6666144219848142)	(3.9697855180165913, 8.6916295825547962)	1.0	z	0.650616
22	N	B	B	M	N	A	M	A	A	8	5	shapes	A	2	True	13	(-3.4194759925032834, 2.23569164699515)	(-2.3891204787706428, -4.3543525722159551)	(8.3386706150437675, -2.8089811349709688)	(2.2557332730678361, -5.481118967731998)	1.0	z	0.492009
23	N	A	B	M	B	A	M	N	B	8	6	shapes	M	2	False	13	(2.7450164296714057, -6.8791471247412996)	(-8.7420725124991687, 7.3416224975688849)	(5.3675776193606914, -2.5288201754396749)	(-2.344761939307122, 6.3866955648965806)	1.0	slash	0.677868
24	N	A	M	B					A	4	3	shapes	B	2	False	13	(-5.1157560653257512, -4.3671814644610043)	(4.6077691705042607, -5.9836183636178273)	(-5.3771520377846045, 3.6879326997208803)	(1.8081778221479698, 8.1749811656082869)	1.0	slash	0.589503
25	M	A	N	N					N	4	3	shapes	N	2	True	13	(1.983552559943746, -6.2264823131049418)	(-8.6993839205032408, 8.6997239476377004)	(-7.9527885372522533, -3.074383914756794)	(5.6547241177237666, 1.506493032187274)	1.0	z	0.64098
26	M	A	M	A	N	B	B	N	A	8	2	shapes	M	2	False	13	(-3.5047191638062856, 4.9490728629161964)	(3.6282983936861548, -8.7330107459769657)	(4.6939026858328567, -3.4654016090292323)	(-4.5389995069172802, -5.4652575339788978)	1.0	slash	0.56678
27	N	A	B	B	N	M	M	A	N	8	7	shapes	A	2	False	13	(4.7251783184313823, -7.0850847681117006)	(3.3183356098190711, 3.230538732303831)	(-3.8016297922406652, -6.2959160331816717)	(-6.045730136388781, 1.9953188486190623)	1.0	z	0.622488
28	N	B	B	A	N	A	M	M	A	8	5	shapes	A	2	True	13	(5.0083464487386848, -4.1224675274646376)	(0.43105603415627414, 2.0775709747966502)	(-7.9907626515101349, 1.4017096516033245)	(-4.0643659637422029, -4.6830230219405227)	1.0	slash	1.11807
29	M	B	B	A					M	4	2	shapes	B	2	False	13	(2.8766397938248609, 7.5755764241225592)	(-4.3641336523328285, -6.0725403791988759)	(6.8724359417816157, -6.5270392901252752)	(-5.2947692108804887, 5.6973598246628328)	1.0	slash	0.68756
30	M	B	A	N	N	A	M	B	B	8	3	shapes	N	2	False	13	(0.83267783118401795, 6.9818014675036224)	(-1.304499950962092, 2.1527716011407758)	(1.0605770429817483, -4.9057492559839249)	(6.0766225810561245, -6.3363492349337651)	1.0	slash	0.539403
31	M	A	N	M	A	N	B	B	A	8	1	shapes	A	2	True	13	(8.2738706471724264, 5.7080676574407683)	(6.0862499242463546, 1.352007116816754)	(-7.4956158496583036, 8.3104237878588272)	(2.8561637756988372, -1.9003972354768814)	1.0	z	1.16513
32	M	B	N	B					N	4	0	shapes	M	2	False	13	(-4.6580243738110685, 1.730873378558643)	(-2.7456256261733127, -3.9597959880674978)	(8.7058619426546642, -3.809097691523414)	(0.45552642251886688, 5.9117228656205594)	1.0	z	0.758847
1	N	A	A	M					M	4	3	shapes	M	3	True	13	(-4.6864120683592141, -8.6905438243186346)	(7.0976130378553997, 2.0735249350367546)	(-6.9031625242510675, 7.6781106177414777)	(5.1900145196561258, -2.3524755192077897)	1.0	slash	0.490408
2	M	A	M	B					A	4	1	shapes	A	3	True	13	(5.7705351454053115, 5.7990527161942556)	(2.1173677163896656, -3.4329171435657422)	(-7.1148623273479572, 5.959373706612773)	(-0.8306769067335118, -0.71736509375329938)	1.0	slash	0.649956
3	M	A	A	B					A	4	1	shapes	A	3	True	13	(6.0531462647827414, -6.4898050505943594)	(1.7134268617888555, 0.82347639070290413)	(-4.9598380244744495, 7.905131428081706)	(-7.5460382317057917, -6.7870611875505791)	1.0	z	0.921644
4	M	A	A	N					N	4	1	shapes	A	3	False	13	(5.1076581993483217, -5.9304937266467093)	(0.81230479686724699, 5.0948422564761042)	(-7.0947647823301061, 2.2992145836590758)	(-5.9199658959194474, -5.005020015940735)	1.0	slash	0.747246
5	M	A	A	M	B	B	N	N	N	8	3	shapes	M	3	False	13	(-2.32587646643894, -0.87399015778680678)	(-0.57194522599607112, 4.1409156468508641)	(-5.7992204462672081, 1.3458254340015188)	(2.8909860141013759, -4.9971237125614607)	1.0	z	1.02689
6	M	B	N	B					N	4	2	shapes	N	3	True	13	(-8.4728707469594511, 5.7525572942752792)	(8.1869883291874821, 1.6930003869844583)	(-2.1686901154162452, -7.3253591090197823)	(3.1097314606776898, -4.292395334164536)	1.0	slash	1.21653
7	M	B	B	A	A	M	N	N	B	8	2	shapes	B	3	True	13	(-7.6458250353301622, 0.30294912000202068)	(-0.11479416697554612, -0.69956985101829794)	(3.2907977525129173, 4.4954346900440196)	(-2.4359045113396869, 6.1442500955999844)	1.0	z	0.72038
8	M	B	A	A					B	4	1	shapes	B	3	True	13	(0.017919392060310457, -2.129944794458579)	(-6.6473159745964336, 6.2503408093604964)	(-6.7532424262396447, -2.9682029282198963)	(7.9298844411467542, 2.760988366970297)	1.0	z	0.521952
9	M	A	B	N	M	A	N	B	A	8	1	shapes	A	3	True	13	(-7.3493917564740823, -5.2411910858270696)	(-1.3614302474125788, 4.1148152538886027)	(4.4815556492814643, -6.3139701089518105)	(-2.1416178081706567, -5.7403965831077812)	1.0	slash	0.909588
10	N	B	A	N	A	M	B	M	B	8	7	shapes	M	3	False	13	(-4.8972150505722718, -4.4819871063258541)	(-2.3232054642355644, -0.92996375371899731)	(6.7636931821025144, -6.8532466516602186)	(7.3084352127069607, 7.6632902454606224)	1.0	slash	0.637137
11	N	B	M	N					N	4	3	shapes	N	3	True	13	(-5.1782032905137552, 2.2030947256659932)	(8.5720484914380926, 8.2212399115059824)	(-0.24099827419528808, -5.436459170421279)	(8.0204777501804188, -1.8864796292515766)	1.0	z	0.832633
12	N	B	A	B	A	M	M	N	A	8	4	shapes	A	3	True	13	(-4.7702113279411851, 7.0224880662040174)	(-0.010794107704018785, 2.5314582881541678)	(-4.3375102775393808, -2.9058087335239025)	(6.0193197708195765, -5.3363701994317463)	1.0	slash	0.662476
13	M	B	A	B					M	4	2	shapes	A	3	False	13	(-3.3602626468685903, -8.518664261740021)	(4.691649035293862, -2.4826865868810861)	(-0.69332768071529216, 6.2329832556832372)	(4.6134913408607829, 1.7479745105371176)	1.0	slash	0.756306
14	N	B	B	A					M	4	3	shapes	A	3	False	13	(-6.8616904081102827, -8.3345311350750109)	(3.2601814898807611, -3.3219038236106817)	(-0.79734923559226445, 4.104772198333194)	(7.5998148177551563, 3.1341937845521546)	1.0	slash	0.655783
15	M	A	N	N					M	4	1	shapes	A	3	False	13	(-3.0056230190853519, -5.4674448860879199)	(-2.6083836299069931, 3.6859521256542394)	(4.0403900580607051, 3.7054489111882063)	(5.2213866519229004, -4.587181795176468)	1.0	slash	0.551541
16	M	A	M	N					M	4	1	shapes	A	3	False	13	(-2.3681568717009176, 6.3277905357819666)	(-4.6452097565300612, -3.8591387171406293)	(2.145077094270313, -2.1799653072886152)	(7.5404402207914991, 8.5959418846221496)	1.0	slash	0.667334
17	M	A	A	M	B	N	B	N	B	8	4	shapes	B	3	True	13	(4.1945926770393847, -4.0369295768123967)	(3.0694860213203299, 1.9512230958415415)	(-1.0629797113617894, 3.7447026490584552)	(1.9521473408313703, 8.7039774408466997)	1.0	z	0.674908
18	N	A	M	B	B	N	A	M	M	8	4	shapes	B	3	False	13	(-6.3685730633385251, -0.37433488020013783)	(7.3348269909236699, 5.6277835710110775)	(-1.2637856170177182, 1.6665452487588404)	(-5.2407071161920094, 8.3793317069620414)	1.0	slash	0.504584
19	M	B	A	N					B	4	1	shapes	B	3	True	13	(5.0443585040174792, 7.4260271715667763)	(-5.1565557435991201, 1.2181801552735241)	(4.9788382268685289, -0.16008388311171728)	(-6.918225710770745, -5.2739694535958117)	1.0	z	0.694173
20	N	B	N	M					B	4	0	shapes	N	3	False	13	(-7.0926312322430825, 0.23784793369188506)	(4.9935063532471098, 1.8204316758096297)	(4.5454874075286824, -7.1729840887989349)	(-8.1621616951150955, -6.0604189407414841)	1.0	slash	0.501916
21	M	B	M	B					N	4	3	shapes	B	3	False	13	(4.5678248364132408, -7.1771756903715422)	(-6.0569052613477705, 8.0338261383947476)	(-7.7141099363748662, -7.3355690001103291)	(4.9998318078036199, 1.1416616551860148)	1.0	slash	0.443544
22	N	B	B	A	M	M	A	N	M	8	7	shapes	N	3	False	13	(3.1631838571664392, -1.7399149970948988)	(-6.4048869529796777, -6.3986333860368161)	(5.6745555973273092, 6.3450013450977725)	(-8.1272767164473887, -1.8948731821934288)	1.0	z	0.692256
23	M	B	B	N	M	N	A	A	A	8	2	shapes	B	3	False	13	(-0.32834037485989676, 4.8163123408864195)	(-7.5163182189281939, -6.6070620116327206)	(7.3791455486445798, -3.0299817693334816)	(0.41754190751941955, -4.5284414956760557)	1.0	z	0.982977
24	N	A	M	B	A	B	N	M	B	8	6	shapes	N	3	False	13	(-0.36607605895071416, 5.5241895642485161)	(-5.0045415408291198, 4.559542930792837)	(4.2450337726197862, -6.1529953232641077)	(-4.1925569229096729, -3.1983446011444441)	1.0	z	0.158781
25	N	A	N	M					M	4	1	shapes	A	3	False	13	(-3.0713680666378025, 7.91359708816249)	(-2.7990528620272208, -7.0032699705006625)	(3.4856318486988265, 0.96608431187049959)	(8.3018546151310879, -4.8727424118525864)	1.0	slash	0.536208
26	M	B	A	N	A	B	N	M	B	8	4	shapes	A	3	False	13	(-8.178380649258763, 2.1913147991911117)	(-2.1540463457150434, 1.4141175410211684)	(-1.1713865493129694, -8.6485704939225236)	(-3.0547178118459684, -2.9147962492058328)	1.0	z	0.721867
27	N	A	A	N					N	4	3	shapes	N	3	True	13	(6.2648928367525674, 5.1749845169745043)	(-8.6731855678312808, 2.655210108228065)	(-6.0432158318327112, -1.4924419563501212)	(6.2531426291269874, -6.7712358522902374)	1.0	z	1.78714
28	N	A	A	B	B	M	N	M	A	8	2	shapes	A	3	True	13	(1.1934297356462142, 5.2123328515031488)	(-5.7215173707991864, 5.3312316515089666)	(-4.3650975412748521, -7.6606493430892595)	(7.5625158205511376, -7.3581329460242442)	1.0	slash	0.795141
29	M	A	M	B	B	N	N	A	B	8	3	shapes	B	3	True	13	(-6.8240217200457085, 7.0362378835795027)	(8.0636256992657209, 0.3162269736292771)	(-1.4514481839182398, 3.9295928431499263)	(1.5036759959856312, -7.52601556308956)	1.0	slash	1.56653
30	N	B	B	A	M	M	N	A	B	8	2	shapes	B	3	True	13	(-1.2670257062689458, -7.024014864090554)	(-5.6764187267408106, -3.4840812944951391)	(5.5354152135338079, -0.41151414910173933)	(1.6345645005327096, 0.62095441211835123)	1.0	z	1.19842
31	M	A	M	B	N	N	A	B	N	8	0	shapes	M	3	False	13	(7.3733706608100569, -6.7821071220419089)	(-0.28816459479436318, 5.8278613225748934)	(-0.72535339850256797, -1.4290544759355575)	(4.4333698447878707, -1.3731011449060446)	1.0	z	1.28991
32	M	B	M	N	N	A	A	B	B	8	1	shapes	B	3	True	13	(-1.6826613060665698, -0.23502697566089559)	(8.6924977561451584, -6.1436086603925002)	(5.0029116090376728, 1.1564609573570444)	(-5.1903261662841054, -3.929621201778553)	1.0	slash	0.91774
1	N	B	N	M					B	4	1	shapes	B	4	True	13	(-1.9873754905354133, -8.2327390368541664)	(2.0442985940926981, -1.4718317243939252)	(0.15661045608084301, 6.4565781334317478)	(-4.6942327855458883, 5.4756083155175972)	1.0	z	1.29942
2	N	B	B	M					B	4	2	shapes	B	4	True	13	(-2.9006715533716703, 5.4030462530553525)	(-2.5695819197121992, -7.2690337481047571)	(4.4931607788794388, -8.4051725739843111)	(2.5854924863059239, 7.7992919716442977)	1.0	z	1.08088
3	N	A	N	A	M	B	M	B	M	8	4	shapes	M	4	True	13	(-3.647427733011539, -3.1280111343805057)	(-1.8208443745858043, 4.4030291346812813)	(0.025792650224783387, -8.3440409010397083)	(7.0135914294206252, -2.0041579264102731)	1.0	z	1.18048
4	N	A	N	A					N	4	0	shapes	N	4	True	13	(5.6657313275808008, 5.791833506774454)	(-2.3325196214205093, -8.6178848013642462)	(-5.210345224164759, 7.8027591452486753)	(1.655916220073733, -6.9801781008551593)	1.0	z	0.826106
5	N	B	M	B					N	4	0	shapes	N	4	True	13	(-4.8074174282738706, 2.9982544024097564)	(7.790480135441662, -8.3447533207616118)	(2.4668376620877943, 4.3614490112416977)	(-0.33441979283301215, -5.3650872150225695)	1.0	z	0.839719
6	M	A	M	A	N	B	B	N	B	8	6	shapes	B	4	True	13	(-5.1538263049160022, -4.1093695113790982)	(3.497869107909521, 1.8495836281227476)	(4.1428472719671046, -5.6123225812975983)	(5.5790367540341492, 6.9380241455626681)	1.0	z	0.949527
7	M	B	M	B					B	4	2	shapes	M	4	False	13	(6.8920931196001796, -1.7091756439026309)	(-1.7079998692382965, -4.4264793446593824)	(1.9335182268437823, 3.302642549596646)	(-8.2811061959366974, 7.6221330186492295)	1.0	slash	1.4891
8	M	B	B	M	N	N	A	A	A	8	6	shapes	A	4	True	13	(-3.1088991381849702, 6.9314788614687206)	(-8.6619083790822042, -0.47158172176393798)	(-2.9469478058515035, -4.0118315558840845)	(4.3020548331679862, -6.2834392353383652)	1.0	z	1.58061
9	M	B	N	A	B	N	M	A	N	8	5	shapes	N	4	True	13	(-1.7035899386481583, -7.0990623233449766)	(-8.5118536065991002, -8.5703167938764775)	(3.0945534992871107, 2.3104944619997525)	(5.4774809806457707, -6.532438944605703)	1.0	z	0.88627
10	M	A	N	A					N	4	3	shapes	A	4	False	13	(-0.12631153682682772, -6.4232275872283058)	(6.1848163967659833, 4.1480395344355596)	(-4.0391203509453781, 0.50801841172838103)	(3.761902029853573, -8.3322225634862281)	1.0	slash	1.67188
11	N	A	M	N	A	B	B	M	B	8	0	shapes	N	4	False	13	(0.76773081253082154, 1.9080082347104721)	(1.1148776602961075, -8.2071699778402518)	(-7.2408466155532949, 2.8211961850085956)	(-2.1005996685530999, -1.3092355434095744)	1.0	slash	1.17347
12	M	B	N	B					N	4	3	shapes	B	4	False	13	(8.2290394767923729, 3.2609317359564454)	(-8.7135681264301184, 4.5799725065352579)	(0.39046766462121063, -6.8964296324024028)	(-7.941575916765343, -5.6539260334599017)	1.0	slash	1.39686
13	M	A	A	B	N	B	M	N	B	8	6	shapes	M	4	False	13	(-7.1937528975071068, -0.40545728175314544)	(-0.93862965435840096, 4.7590359217054168)	(4.9274830244002334, -5.2014501553354453)	(-1.7319989564940634, -5.5476493841607368)	1.0	slash	0.930833
14	M	A	N	M					N	4	2	shapes	N	4	True	13	(-3.5352175244315163, 0.3488520402793629)	(1.6644742684469698, -4.3880899241249711)	(-8.4200186483639499, -7.910479452787528)	(0.79292384700301355, 7.2475641405344877)	1.0	z	1.38641
15	N	B	A	N	B	A	M	M	M	8	1	shapes	B	4	False	13	(-4.9420081387279602, 3.9789571474344836)	(-4.3532441591589031, -0.73955586515265814)	(-0.0037428048644070344, -2.6682231605640787)	(6.9273071759086058, 2.3798882096437914)	1.0	slash	4.32994
16	N	A	M	M	B	A	N	B	M	8	4	shapes	B	4	False	13	(4.3045781320535799, 2.3307109185798822)	(6.0463157313046541, 8.4306226347169293)	(-4.6554386516051931, 1.0859844394149469)	(-5.0075545497409548, -6.3015380329269757)	1.0	z	3.49335
17	M	B	A	B					M	4	0	shapes	M	4	True	13	(2.8351960856155198, -5.2176535463150362)	(-5.0909898937581435, 7.6130722915538485)	(7.3913457091555053, 3.8658963985160302)	(-5.2448825776354813, -1.9070161775146621)	1.0	z	10.5407
18	M	B	N	N	M	A	A	B	N	8	2	shapes	N	4	True	13	(8.2166186804041139, -0.35817510695530963)	(-3.6750759351146955, -5.6409515257356393)	(-0.99810732270976832, 8.5792187936523518)	(-2.607335150114209, -0.67382120614103513)	1.0	z	0.995752
19	N	A	M	A					N	4	3	shapes	A	4	False	13	(1.5067546238173861, -5.8780290072452122)	(-7.6801739193931393, 7.0790894999850185)	(0.4656760771968198, 4.5699407969602834)	(-0.82363984696838699, -0.59303721389037278)	1.0	z	0.711231
20	M	B	N	B	A	M	A	N	N	8	6	shapes	A	4	False	13	(2.85240128779553, -4.0047620752827449)	(-5.7056751709744091, -1.4821209242717961)	(6.1214106152501664, 0.40260200482999942)	(-2.1339306053669853, -6.6099631381602322)	1.0	slash	0.773111
21	M	B	M	B					B	4	3	shapes	B	4	True	13	(0.57223074789770756, -4.4934443288550234)	(1.3449196743678264, 7.6823498205482785)	(-3.0367665267289654, -8.3591337550896814)	(-6.0452953989721561, 6.1019635409078123)	1.0	z	0.380769
22	M	A	B	M					A	4	0	shapes	M	4	False	13	(5.3779971408571505, -5.8066200169921913)	(-3.6751788919276276, -6.9634156239079692)	(-7.7684598241435783, 8.4477129007749276)	(2.9974127134003421, 1.2160090528209224)	1.0	slash	0.634416
23	N	B	A	B	A	M	M	N	B	8	2	shapes	A	4	False	13	(8.1199738834830271, 0.40392665748102097)	(-8.4221912894067881, 3.6541884635602084)	(7.3823458985477082, 4.7437831684762468)	(-7.0099679991875297, -5.9800191144629373)	1.0	slash	1.10403
24	N	B	M	M	N	A	A	B	A	8	3	shapes	M	4	False	13	(-1.5596970119093534, -2.0254492941598308)	(7.894206401060778, -0.33154315888888064)	(2.8362029424800816, -2.3489512465655675)	(6.4245296219473254, 6.6945993576536313)	1.0	slash	0.599594
25	N	B	N	M	A	M	B	A	M	8	5	shapes	M	4	True	13	(5.4777017024248629, -8.5752069060308944)	(2.7509332810271463, -2.3879358071434114)	(6.6504619039752253, 8.0486355698292869)	(-2.5756682676290676, -3.0178729044187707)	1.0	z	0.829232
26	M	A	N	N	A	B	M	B	N	8	2	shapes	N	4	True	13	(-3.5129567518643929, 7.1210104240612466)	(5.2535565321974609, 3.0589458724059551)	(8.6282605277075177, -2.8124406867567782)	(3.9552255261408664, -5.3510470530344474)	1.0	slash	0.748952
27	N	A	B	M	N	M	B	A	M	8	6	shapes	B	4	False	13	(5.8103700650560679, -3.6266893362893411)	(-1.8658224621636261, 0.56473464447828725)	(-2.6002940071757124, -8.2742049273658385)	(-8.585301284202119, 8.7131806646827599)	1.0	slash	0.820921
28	M	A	N	N					A	4	3	shapes	N	4	False	13	(-2.1094245047969142, -7.5354070961575594)	(7.3680230605845409, -1.709215382505147)	(-2.5310747450859408, 0.70189873222629551)	(1.1236691955147098, 5.9379372727069324)	1.0	slash	0.514322
29	M	B	M	B					M	4	3	shapes	B	4	False	13	(-3.7242610844035848, -1.6593014081568427)	(8.7185364046072777, -8.2072800463407791)	(3.9969187228072691, 2.9315731910681322)	(-2.396993218936327, 4.6885992818770426)	1.0	slash	0.853793
30	M	A	N	A	M	B	N	B	N	8	2	shapes	N	4	True	13	(4.4575288261692254, -2.5485659177780899)	(-6.3503862773730457, -7.1532119925540281)	(1.3030227780793577, -8.0560080828256204)	(-0.32367188607874375, 4.2913225046581385)	1.0	slash	1.24769
31	N	A	M	N					A	4	1	shapes	A	4	True	13	(6.0540054817229905, 4.1382576671006959)	(-1.9348463952611965, -8.6283168957062433)	(-2.7521197013404892, 7.9334895058378336)	(5.8773030683212895, -4.6626763747922348)	1.0	slash	0.655374
32	N	A	A	N					B	4	2	shapes	A	4	False	13	(2.2841750459178733, 4.7325398261601368)	(0.14502581508892476, -4.3197045951499868)	(-3.8651685038706773, -2.1018015447617326)	(-3.7294419993865899, 2.0073720112103199)	1.0	slash	1.287
1	M	B	M	N	N	A	B	A	B	8	4	shapes	N	5	False	13	(-7.5532109898888891, -0.40386054128782334)	(4.1464115343714525, -0.54096546423671832)	(-6.391987374840074, 5.1309234713408323)	(8.0567603582681642, 7.8941731729508504)	1.0	slash	0.950565
2	N	A	M	A					B	4	0	shapes	N	5	False	13	(4.6992438292834073, 2.2766513536252582)	(1.3440523122729608, -4.2303358797788029)	(-0.014855637148862399, 5.2008875039122238)	(-7.5817263873764382, -7.4629667743171932)	1.0	slash	0.970186
3	N	B	B	N					N	4	0	shapes	N	5	True	13	(-3.0997531326287016, 4.5302656743113765)	(-6.4562560703259386, -8.7379628861066525)	(1.9567078709813277, 3.1901373262109995)	(1.7652624421974767, -4.3998118918414875)	1.0	z	1.01792
4	M	B	M	B					B	4	1	shapes	B	5	True	13	(-3.1951743912271899, 7.5737688944206809)	(-5.7867033699498265, -6.1510109513654943)	(4.6399156620618598, 4.720016612494728)	(1.7639893384333369, -5.4362594891618761)	1.0	z	0.711389
5	M	B	B	A	A	N	N	M	N	8	6	shapes	N	5	True	13	(-3.2539831520256453, -8.4543865606437336)	(8.4104206510107318, -0.04500801949373745)	(2.5333777729892528, -5.8266811138025618)	(6.5599339288302083, 7.37712804024072)	1.0	z	0.541172
6	M	B	A	M					B	4	1	shapes	B	5	True	13	(-7.076390390490527, -5.4246882861236418)	(4.0270391558385796, -3.0494073710164882)	(-5.7723701192023693, 4.3217538959414483)	(1.2611840040466422, 7.9080780803374537)	1.0	z	0.544871
7	N	A	N	B	A	B	M	M	A	8	4	shapes	A	5	True	13	(2.770959788673542, -5.7103206068097361)	(-4.3875799543909473, 3.6495486315886367)	(-2.0631846488761969, 7.7376097504540731)	(7.6055932750250079, 2.0009854945452332)	1.0	z	0.734488
8	M	A	A	M					M	4	0	shapes	M	5	True	13	(5.1220480725941098, 6.2413712806746453)	(1.7466965640996666, -1.2274192581809444)	(-0.53298857372630692, -4.8351942508262535)	(-7.7015465028271315, 6.7862817639419131)	1.0	z	0.542118
9	N	B	A	B	N	M	M	A	N	8	4	shapes	N	5	True	13	(-1.718021239236375, 4.0415046346552348)	(-0.1078044037102508, -8.095468088533881)	(6.5257834696934545, -2.1597636760297974)	(7.3074033618496976, -8.7148661803718213)	1.0	z	0.445744
10	M	A	A	M	N	N	B	B	B	8	4	shapes	N	5	False	13	(7.7110139328136817, 7.014083727658166)	(-4.35235611517703, 3.8459127821291705)	(-0.043841284332085451, 8.0933801176540214)	(-2.7473191873728533, -2.4056090262311587)	1.0	slash	0.545611
11	N	B	B	M	N	A	A	M	B	8	5	shapes	A	5	False	13	(-8.0469363716333699, -6.2188811992686439)	(-7.2956882319864711, 5.9435305982366273)	(5.6004441264037528, 4.3274143765477024)	(1.7922001467959365, 1.421634902842186)	1.0	slash	0.633218
12	N	A	N	M	A	M	B	B	N	8	2	shapes	N	5	True	13	(2.2016236733398724, 5.2276306511217676)	(-7.5525298444514473, -6.1098265019008711)	(-2.9134387768697998, -3.300979560075481)	(8.0993199287732729, 7.7646520390720362)	1.0	z	0.998876
13	N	B	A	B					A	4	0	shapes	N	5	False	13	(0.56397061805252235, -7.8799439873560706)	(-4.1593197132308726, 4.2060838819635986)	(-3.95927600939405, -1.3423940154433041)	(5.1086848552458921, 0.70740438848060094)	1.0	slash	0.648416
14	M	B	A	N	A	M	B	N	M	8	1	shapes	B	5	False	13	(1.5054141424201504, -0.28586249139486952)	(-3.7509718006780934, 1.8490060100500205)	(-4.7434218337290366, -5.2074979358699487)	(3.648223208963504, 5.2761489162001389)	1.0	z	0.420101
15	N	A	A	N					N	4	1	shapes	A	5	False	13	(6.4455216455840745, 6.3121817319810116)	(-7.9352427615335914, 6.1544177260820838)	(-6.3732939465475837, -2.2533200558510753)	(3.2244477470379618, -5.5116946394816653)	1.0	slash	0.585803
16	M	A	B	N					B	4	1	shapes	A	5	False	13	(8.1904313695659816, 1.3344224454453588)	(-2.6093137041919334, 1.6717039856369631)	(1.5502761007911605, -3.267406120057287)	(-2.4481198789552172, -6.9461534119274351)	1.0	slash	0.551381
17	M	A	M	N	B	A	B	N	N	8	4	shapes	B	5	False	13	(-6.543988505668926, 1.6054329632812809)	(7.1589803639021685, 5.7212874407402499)	(3.7346714727860366, 8.1436646371679444)	(-3.9295772953851369, 6.8706890695102185)	1.0	slash	0.573131
18	N	A	M	A					N	4	2	shapes	M	5	False	13	(-6.2989504336367492, -6.2339842107120722)	(0.74456719102646751, -0.37034877527286625)	(8.5991653938362802, 6.2389802600862279)	(-8.0342340316650649, 4.0073894455677426)	1.0	slash	0.554997
19	M	A	M	N					M	4	2	shapes	M	5	True	13	(4.8806670594953836, -8.6987634762828101)	(-3.2055499987748295, 6.4756984711368677)	(1.1821179731948952, 6.2023943430223571)	(-1.9399226391323614, -3.0217191930796981)	1.0	z	0.84389
20	N	A	M	A					A	4	3	shapes	A	5	True	13	(7.5237354384335262, -0.86072038016397023)	(-6.4141470121703534, -3.3213805253150488)	(7.9552774245929179, 6.3296496283217127)	(-4.0483824161278141, 5.1995561512343826)	1.0	z	0.870193
21	M	A	B	A					A	4	1	shapes	A	5	True	13	(7.2910263975512599, 0.067128903283823149)	(-0.11136593325474031, 0.80349531828639975)	(3.9126232148384599, -6.5120320282061206)	(-6.806203237476101, -3.3317313440695173)	1.0	z	0.425716
22	M	B	A	N					M	4	0	shapes	M	5	True	13	(7.3656734375560973, -3.2855991990418225)	(-5.3706810700652934, -1.3772576808937602)	(-3.0204933121599549, 4.7995295847403945)	(5.5596759832074074, 5.8419764372071175)	1.0	slash	0.615621
23	N	A	B	B					N	4	2	shapes	B	5	False	13	(5.7449706469709945, -4.3377654752035681)	(-7.2800094504211792, 5.9597772975972898)	(7.3068865983434748, 8.5444707223805132)	(-5.3231029534370933, -3.5214223938970166)	1.0	z	0.655146
24	N	A	B	A	B	M	N	M	B	8	0	shapes	N	5	False	13	(5.2109987261792305, 7.7664620717999817)	(-0.013189749191456102, -4.0025829762390206)	(8.7400178255902432, 1.2087521499437504)	(2.9399585053664765, -8.086535335546035)	1.0	slash	0.672831
25	M	B	M	A	B	N	A	N	M	8	2	shapes	M	5	True	13	(-2.2831041400782395, -5.8200943390188016)	(-2.6287105525770942, 7.8444554403596172)	(5.1055463751382923, 3.0156276077223438)	(-0.45214761949865334, 1.1454300107753781)	1.0	z	1.35028
26	N	A	N	B					M	4	1	shapes	A	5	False	13	(-4.2127922962249569, -4.4804060120836473)	(-2.2228391567453851, 1.5414075575882649)	(8.1964787825842471, 6.065527911418803)	(8.1612972674255779, -2.1214965993258081)	1.0	slash	0.602046
27	N	A	A	N	B	M	M	B	M	8	5	shapes	M	5	True	13	(-2.6425281036090054, -2.4660644203495297)	(8.0246984682825193, 4.6925354870578104)	(-0.71213155668785078, -7.7414764276784949)	(-6.5114458044585861, 7.1040581338659656)	1.0	z	1.37356
28	N	A	B	N					B	4	1	shapes	A	5	False	13	(1.936449680382248, -2.2035977769374648)	(4.7565457074617665, 2.9660613312629245)	(-8.2506608564136616, 0.85809261276421012)	(-1.5315154035709515, -8.493138755109122)	1.0	slash	0.74929
29	N	B	M	N	M	B	A	A	A	8	3	shapes	N	5	False	13	(2.4791250854623819, -2.0505851679848712)	(-2.8291071871398126, -3.4954448398220599)	(5.1727085148560743, 6.3186644520317312)	(-6.0893139646686851, 3.2492410482543939)	1.0	slash	0.677085
30	N	A	M	B	N	M	A	B	M	8	5	shapes	M	5	True	13	(-6.231143394304155, 6.3588625107791614)	(-3.6012719732836862, -5.6979964837756185)	(0.12077286810912291, 6.4745065526511034)	(-8.019198255038793, -0.60055191622884685)	1.0	z	1.65056
31	M	A	B	B	A	N	M	N	M	8	1	shapes	A	5	False	13	(0.19359080743348756, 6.8803628532475649)	(-3.5747025730663093, 4.0278501340221258)	(-4.7292305977669837, -1.726617758709585)	(-7.6441086073987483, 4.0079912772606558)	1.0	slash	0.68635
32	N	A	M	A	B	B	N	M	A	8	1	shapes	A	5	True	13	(-8.6718868336893102, -5.2915510782177613)	(7.0324210293303757, 3.224651261011493)	(4.8368082472419651, -7.9217364564098807)	(2.7644467703605091, -3.6881031116622163)	1.0	z	1.28995
1	M	B	A	N					N	4	3	shapes	N	6	True	13	(3.2183743573562786, 1.9923327464486249)	(0.60690676131832966, -4.0659278002405452)	(-4.0002396604745991, -4.6710049826389213)	(-4.1358836433374808, 5.1910858070119481)	1.0	z	1.10962
2	M	B	M	B	N	N	A	A	B	8	2	shapes	M	6	False	13	(4.2601951108901552, -5.353095394892236)	(-4.4692049161343057, -5.4956541716805578)	(4.529533855760608, -0.4742302335259776)	(-3.2378024482146364, -1.193757610515112)	1.0	slash	0.86131
3	N	A	N	A	M	B	B	M	M	8	1	shapes	A	6	False	13	(1.5046378574639423, 6.4608162880053683)	(-1.735589324302099, -4.9089104780442172)	(-6.347817994419005, -0.64890684480229943)	(6.3097463847585615, 2.7888183445278933)	1.0	slash	1.51678
4	M	A	B	A	M	N	N	B	M	8	2	shapes	B	6	False	13	(0.074973725919663892, -0.37708025050482341)	(-6.7662007161586857, 1.5689998595474748)	(-4.7903425187254225, -4.9791892921300267)	(-5.8473788514987053, 7.3131021831117948)	1.0	slash	0.778301
5	N	B	N	B	M	M	A	A	M	8	1	shapes	B	6	False	13	(-7.1663730798008523, -5.6846664754487097)	(0.91731292989893909, -3.7903111754557974)	(-1.5412546045526208, 3.8357877754591936)	(6.4253167623370349, 7.6165401172474674)	1.0	slash	0.740216
6	N	A	N	A	M	M	B	B	B	8	7	shapes	B	6	True	13	(-2.5438833047358376, -5.2187879664095416)	(1.9622314349839485, -1.6428663319468377)	(-3.8285516543103419, 7.5362282346525191)	(3.8157609261475685, -8.2804651075334732)	1.0	z	1.84402
7	N	A	A	M	B	N	B	M	N	8	3	shapes	M	6	False	13	(-6.0933657790835944, -2.8549680545528151)	(4.2775067100154605, -1.8220857656087857)	(-1.4742668649286248, -4.5130488281881922)	(-2.055035777410736, 4.2516113527376689)	1.0	slash	1.03904
8	M	B	N	M					M	4	0	shapes	M	6	True	13	(-4.1463782884691032, 2.5573150641707194)	(6.4756900257482251, -7.8584009483904893)	(-8.4196837881185989, -2.4206845045825069)	(0.14710032260311401, 1.032201565979511)	1.0	z	1.03302
9	N	B	N	A					N	4	2	shapes	N	6	True	13	(-7.3787899549217544, 5.4859144477684776)	(-4.4908923731918797, -1.7291032712176913)	(2.6034163181193257, 7.6795671111189101)	(7.1011110426522599, -1.5707285721851179)	1.0	z	1.01265
10	M	B	A	N					A	4	2	shapes	A	6	True	13	(-7.3334261258023048, 4.065437516276674)	(4.0602678551154803, -6.1000146626332512)	(-5.2999097010884464, -7.2726796278135462)	(7.6854905852402311, 4.3718010109163306)	1.0	slash	2.48422
11	M	A	M	B	B	A	N	N	N	8	7	shapes	N	6	True	13	(-1.7182293633142773, 0.75297420513324198)	(-1.3254824676385013, -6.672962451428365)	(1.6513451801977705, 5.3557856891575604)	(-6.6379062356703162, -8.0744836083563722)	1.0	slash	0.895771
12	M	B	M	N	A	B	N	A	M	8	0	shapes	M	6	True	13	(-6.7073887910116001, -1.8855255949535756)	(0.62366208935023337, 1.7729674798172717)	(-3.3128111422811859, -8.547126234535769)	(4.6691535534788926, 4.0128429860084882)	1.0	z	1.1373
13	M	B	B	N					M	4	1	shapes	B	6	False	13	(0.340057161514288, -7.1305476294810601)	(-6.2624700740748569, 4.7727659476703295)	(-6.6880067893620989, -4.9976912257199082)	(0.10789563547387893, 1.3830114031548781)	1.0	slash	1.32708
14	N	B	A	M	N	A	B	M	B	8	6	shapes	B	6	True	13	(-6.9039024342379083, 7.9972590769024876)	(6.107556135335507, 2.9140027714148342)	(-8.2605316744490693, -5.1672439597003681)	(0.038208238836219266, 1.3091045209421992)	1.0	slash	0.666724
15	N	A	B	A	N	M	M	B	A	8	3	shapes	A	6	True	13	(6.0057304508610034, 3.2632660817591272)	(0.2589310147450341, -6.0687687816489841)	(3.4992043454324335, -2.7402666861088338)	(-5.4299045450878207, 4.5014170070661113)	1.0	z	1.14636
16	M	A	A	N					A	4	1	shapes	A	6	True	13	(-7.0994937128734534, -5.9648273522019473)	(5.5400698092452334, -4.11586869284909)	(-1.0036862971588327, 1.3775177498065982)	(4.4144561600002028, 7.1092953862938835)	1.0	slash	1.87984
17	M	A	B	M					B	4	3	shapes	M	6	False	13	(-2.4258909642847293, 6.6585200140505272)	(4.6011506667920976, -2.1881881051296723)	(-6.6991545194172932, -6.8833586771191619)	(6.3990531261215722, 6.6953813758391192)	1.0	slash	0.649467
18	M	A	N	N					A	4	1	shapes	A	6	True	13	(-0.31467427507515033, -6.5346421196711448)	(4.3531518448596174, 1.3877705026227733)	(4.2686260958721931, -5.5171603513980569)	(-5.3295221553607064, 2.0235586124943126)	1.0	z	1.17723
19	M	A	M	A					A	4	3	shapes	A	6	True	13	(-2.8588580387754039, 2.5374552599698941)	(5.8225991674649666, 0.46170657062306297)	(1.8026361127156409, -6.9606536219087864)	(-7.3205667156502034, -6.8991070478312961)	1.0	z	1.18284
20	N	A	M	B	M	N	A	B	N	8	5	shapes	N	6	True	13	(-0.2315117483569118, -0.025204554453338801)	(2.5582382356832465, 6.393365054756643)	(-2.4405055191139944, -4.7639491379505738)	(7.8621369860702082, -5.5848839484711759)	1.0	z	1.01452
21	N	B	B	N	M	A	A	M	B	8	0	shapes	N	6	False	13	(1.611732474512408, 3.6755472723908085)	(6.7192031388308227, -7.0882526420502856)	(7.8182796376716652, 1.3526173147738056)	(-6.3714940294747029, -5.7275675462910431)	1.0	slash	1.24806
22	N	B	M	A					M	4	1	shapes	B	6	False	13	(-4.324169036613851, 4.4554182403289193)	(-7.8102152642448672, -0.84028321920246984)	(8.2954808007885141, -7.4708321841896179)	(7.1863844470123865, 2.9365461521457696)	1.0	slash	0.991588
23	N	B	B	N					B	4	3	shapes	N	6	False	13	(-3.9587225669258448, 1.646325675946084)	(4.8513617145798253, -4.9235935773869803)	(2.7076982214744341, 3.1706618779001996)	(-0.63542151380655021, -2.9502789487158774)	1.0	slash	0.547329
24	M	A	A	B					N	4	1	shapes	A	6	False	13	(-5.5203320318149114, -4.2474865863334319)	(-0.28591259101111, 3.9004963627189913)	(1.2444898218569254, -0.019218004593641425)	(8.6463880276018088, 5.62305318013955)	1.0	slash	0.90305
25	M	B	M	A					A	4	0	shapes	M	6	False	13	(-7.3766401297896724, 5.6778756923148865)	(-5.4906261204445439, -4.2658986191546253)	(3.6044163457240757, 2.154166173223409)	(3.6435776889500584, -7.5681289192499577)	1.0	slash	0.95438
26	M	B	B	M					B	4	1	shapes	B	6	True	13	(2.264432100402038, 7.9213001456335093)	(8.410719763140321, -2.5963637203031453)	(-2.5270430536502113, -2.3672011526191339)	(-6.0233032526172341, 4.35788983959368)	1.0	z	1.2383
27	M	B	M	N					N	4	0	shapes	M	6	False	13	(1.0832282648443456, -1.3146399333349414)	(-6.7279094118966807, 1.4355840088637866)	(-1.2032651587029672, -7.0658397609779637)	(7.846144415877955, 7.2191822947231277)	1.0	slash	1.11991
28	N	B	A	M	A	N	M	B	N	8	5	shapes	N	6	True	13	(-4.943903090568412, 4.4406524949145627)	(8.3089703717560077, -7.1245510255645534)	(-3.5167987111981232, -3.9310226256292786)	(4.3812844718576009, 0.64560051865865731)	1.0	z	2.77348
29	M	A	N	M	A	B	B	N	N	8	6	shapes	B	6	False	13	(-7.5887319627086445, -3.8751756336000271)	(-2.6998067845886577, -1.5272325326832998)	(-3.8699363971651168, 8.6064483813185966)	(-4.6743745222473807, 2.8068264953173809)	1.0	slash	0.742979
30	N	B	M	B	A	M	A	N	N	8	7	shapes	N	6	True	13	(-1.8948331546443304, -6.4887158327794978)	(-8.3154628856424964, -5.3077123199539775)	(7.7402897074482979, -3.1122467431364766)	(4.2567609049077433, 3.5675014961154865)	1.0	z	1.65469
31	M	A	A	N	B	M	B	N	N	8	0	shapes	M	6	False	13	(-5.4234355980249145, -5.1499650784070985)	(2.1861556404224327, -4.9211399768417916)	(2.2858039239530559, 6.5084421521189313)	(-3.842671584297932, 3.9282032294931835)	1.0	slash	1.04819
32	N	B	M	A					N	4	1	shapes	B	6	False	13	(-2.6894680152838921, -4.2148774565444596)	(-4.7273469642811499, 6.835283436435752)	(2.6670148112061085, -7.4105671696725395)	(3.30636691486316, 8.7197494344461433)	1.0	slash	1.66348
1	M	A	N	M					A	4	2	shapes	N	7	False	13	(-7.5080959568401475, 8.2380905701301295)	(6.7648693420367003, 1.2989745804051598)	(-0.49612258272415843, -8.7403770993814938)	(1.6024019324764041, -2.9209534245728941)	1.0	slash	1.37758
2	N	A	N	M	M	B	A	B	M	8	3	shapes	M	7	True	13	(7.5121100210138465, 1.8745826009426025)	(3.1349758428231294, 4.3091079915252237)	(3.0199424480535448, -1.909792411721515)	(-6.4885129479448267, 0.47318451096898428)	1.0	z	1.63512
3	M	A	A	N					M	4	1	shapes	A	7	False	13	(-0.60392171935935757, -0.20055687011173795)	(1.7747133169373761, -4.3847760838009995)	(-8.5579469982033203, 8.0798050123498442)	(5.9487780749655261, 1.0664227729219178)	1.0	slash	1.28681
4	M	B	B	M					B	4	2	shapes	B	7	True	13	(4.8437912206036806, 6.2749089139198446)	(-4.7694742788385041, 2.617776639486296)	(-6.41062304860609, -8.2790232273160633)	(5.0352762210402329, -2.8850517480482631)	1.0	z	1.44019
5	N	B	N	A	B	M	A	M	B	8	1	shapes	B	7	True	13	(7.2805293561575404, 6.4168786877034893)	(2.3929902167274051, -2.4437269816812019)	(7.0291484080585569, -1.2176205723081051)	(-4.1890126046478322, -3.6376843102168106)	1.0	z	1.46715
6	M	B	B	A					B	4	2	shapes	B	7	True	13	(-6.6970521453394802, -6.9304743718826849)	(7.4042938208021702, -1.6298296187897492)	(-6.5318916516993859, 8.6644283988099993)	(3.8503129389428956, 6.3768495215936447)	1.0	z	1.35142
7	N	B	N	A	B	A	M	M	A	8	3	shapes	A	7	True	13	(8.30299413699273, -5.3296740124719975)	(2.1278940840842484, 6.0112559348571324)	(4.1977698837300181, -6.2962436455702129)	(6.688178452849181, 0.49326639550812956)	1.0	z	1.72517
8	M	B	A	B	N	N	M	A	B	8	1	shapes	B	7	True	13	(-4.4313914302526145, -7.2352675593221409)	(7.8951587158892202, -0.45837522711406287)	(-4.0154700669114236, 8.0460597733060979)	(5.7262524975297833, -8.0646923864953717)	1.0	slash	1.47866
9	M	B	B	A					N	4	1	shapes	B	7	False	13	(7.7218313748717975, 7.9563163991546872)	(0.59111614183326289, -8.006893664117273)	(-8.4209135717809733, 7.0251492522251588)	(-8.0760181037494707, -8.3081837783268018)	1.0	slash	1.60837
10	M	B	A	B	N	N	A	M	A	8	2	shapes	A	7	True	13	(-8.2318472330047587, 4.4376575879376521)	(-8.6578473081420064, -1.2231038447244824)	(-6.1023954635056015, -7.9322950456218511)	(6.4115151083794117, 4.280268786226916)	1.0	z	1.88382
11	M	A	B	N					B	4	2	shapes	B	7	True	13	(-4.5193682451571799, 5.4328178652661112)	(4.6739324877093384, -1.0365172088725956)	(1.462017070165972, 4.1719140328998368)	(-4.7564397600456143, -8.4238909689007535)	1.0	z	1.32543
12	M	B	N	M					M	4	3	shapes	M	7	True	13	(-8.0437425360953796, 0.13916340747478451)	(-4.897986185325153, -5.8732863288753876)	(1.7962303778723072, 1.4089887419524043)	(6.2868975630980231, -1.4639628383050498)	1.0	z	1.079
13	N	B	A	B					M	4	0	shapes	N	7	False	13	(-1.5513213516846234, 0.93605854701958613)	(1.7430583208457548, -1.8193557823742594)	(-5.3840024724886177, -8.0350301242620841)	(2.1608336329654154, 7.7839533469606152)	1.0	slash	1.33675
14	N	B	A	M	N	M	B	A	N	8	7	shapes	A	7	False	13	(-2.437724902000185, -5.5489111186120574)	(-6.090658224853625, 7.4640750036512422)	(7.8816429478291283, -7.4951434171958438)	(0.24232865987825924, 1.5473024499619932)	1.0	slash	1.02623
15	N	B	M	N					B	4	1	shapes	B	7	True	13	(-8.4499030683797098, 5.5807361069925197)	(-1.6953267677225377, -5.4832295032611036)	(8.3729210751581782, 0.81092039861887777)	(2.9052900396685466, -7.8386372293276114)	1.0	z	1.08806
16	M	B	B	A					M	4	1	shapes	B	7	False	13	(-6.0353722478419822, -4.3415807228129761)	(2.6425906812996978, -7.2874646601765587)	(-8.0640296957201656, 6.7112516420749486)	(5.5138157327894834, 1.502896235620371)	1.0	slash	1.5196
17	M	A	B	M	N	A	N	B	A	8	6	shapes	N	7	False	13	(-3.0685735832468168, 2.4289636409785533)	(6.2614579496307599, -2.3657987253925628)	(-7.371879819797428, -0.28275667220448852)	(-6.666405150087293, -7.8296936438591933)	1.0	slash	1.02735
18	M	B	B	A					B	4	2	shapes	B	7	True	13	(-8.0184443538299064, 4.1900279319919704)	(0.80442466586353412, -7.0056447768022609)	(1.5369320967022979, 3.9224446387783036)	(-6.632626413680871, -0.086392916918420326)	1.0	z	1.10282
19	M	B	N	M	N	A	A	B	M	8	5	shapes	A	7	False	13	(-6.1356242244688843, 0.86225728597465867)	(2.5774602246631027, -1.072440532784146)	(-8.5027555122641196, 6.6682542386830335)	(-2.6331437895391892, -3.0422019181544924)	1.0	slash	1.0705
20	N	B	B	M					A	4	3	shapes	M	7	False	13	(-7.5242172768249507, 7.3122806245470819)	(-6.5753865766373014, -6.1702064617789212)	(6.5622952936310295, -3.5513246705646599)	(5.4377330230463361, 0.48971581697564304)	1.0	z	1.11198
21	N	B	M	B					B	4	1	shapes	B	7	True	13	(3.0160493954400138, 2.0972102211900854)	(-2.7738238739495671, 5.0426201341693933)	(-2.6146511517465303, -0.64653864901122837)	(3.6839283463745041, -4.5276136611293127)	1.0	z	1.00549
22	N	A	M	M	N	B	A	B	B	8	2	shapes	M	7	False	13	(-3.093541408692837, -8.2077621156833231)	(5.1397848019258081, 5.377296731281394)	(-5.1261482285962883, 2.0882138234355008)	(8.5562307946300855, 0.52515769438368665)	1.0	slash	1.1189
23	M	A	B	B					B	4	2	shapes	B	7	True	13	(-7.9029466317245838, 0.26484620739936382)	(-7.6350036933974756, -5.9774384340655997)	(8.0051803198010525, -0.71859499801566962)	(0.9943139322589758, 0.1566695223633694)	1.0	z	1.03307
24	M	B	M	B	N	N	A	A	M	8	6	shapes	A	7	False	13	(-8.7020167548915914, 4.7295822964752485)	(-4.311668746075183, -8.6538776683631689)	(4.8065962017429111, -1.4090036768749608)	(-2.6136714544981903, 7.8212759093138864)	1.0	slash	3.79045
25	N	A	M	N	B	A	M	B	A	8	7	shapes	B	7	False	13	(-2.5443099609605149, -6.692162259005193)	(8.1923953107077807, 6.3768331034145849)	(-5.6627868568602926, 2.3784491889311461)	(4.0643186722337017, -5.358034305692323)	1.0	slash	1.54799
26	N	B	A	B					M	4	2	shapes	A	7	False	13	(-6.5666730440903986, 7.3331357073376005)	(7.0791281529490568, -0.72500401339483034)	(-2.1205464956676767, -1.1811413712878727)	(3.0811850043322728, 7.4403634411188975)	1.0	z	0.894309
27	M	A	N	M	B	N	B	A	A	8	6	shapes	B	7	False	13	(-2.5761593473208064, 4.8374789193245249)	(2.1339961438149171, -6.6992826780419357)	(6.8632453738537169, -3.2720770910444452)	(-1.6598738456051532, -8.0083934035847228)	1.0	slash	0.992966
28	N	A	M	N	A	M	B	B	M	8	5	shapes	M	7	True	13	(-4.8267262613984698, -6.8297293314821435)	(-1.5482698899891769, 6.0318447984815986)	(5.6196042905540544, -0.91502255702642898)	(-4.1058863445466907, 0.4876055759340332)	1.0	z	1.39988
29	M	A	A	N					B	4	3	shapes	N	7	False	13	(-1.9891704780858976, -6.5009313481225348)	(8.1061386432888298, 5.4206602301644597)	(6.7329676689904261, -1.5767327489420886)	(-6.1473710685517915, 2.898628443911031)	1.0	slash	1.77427
30	N	A	M	N	A	M	B	B	A	8	4	shapes	A	7	True	13	(0.69201799820243615, 3.0314065773693422)	(-0.42108967469025238, 7.9217155419492542)	(5.5389778650903843, -2.7931263031763409)	(-2.5313847074585478, -7.6067651481343574)	1.0	slash	1.15821
31	M	B	A	B	N	N	A	M	A	8	3	shapes	B	7	False	13	(-6.6040922877359094, -5.036810663993208)	(4.0508634906863925, 2.4262882546842128)	(2.6912658838955732, 6.7489054991348798)	(-1.9694617123725733, 4.9783929961979876)	1.0	slash	3.97109
32	M	B	M	N	N	B	A	A	N	8	3	shapes	N	7	True	13	(0.3390802480946693, 3.1741797563577308)	(-7.8968240767762383, 3.8631744733257047)	(-2.7792921135997473, -4.5516814666644585)	(5.2688389206789008, 1.2207217813690878)	1.0	z	1.14319
1	M	A	M	A	N	N	B	B	M	8	3	shapes	A	8	False	13	(-1.1980557316305998, -6.7608309490334406)	(6.5235567241211623, 2.6867010831561942)	(0.73983553014375758, -1.9725579617554789)	(-6.3584024681137272, 2.0754477797135955)	1.0	slash	1.29856
2	N	B	A	N	A	M	M	B	A	8	4	shapes	A	8	True	13	(-6.1103935933765658, 5.8788862790597509)	(5.3899499523641108, 1.9138358157672926)	(3.449508264019542, 7.3448423172028363)	(-2.1364927806669858, 6.8053621612988362)	1.0	z	1.53237
3	M	A	N	M					A	4	1	shapes	A	8	True	13	(2.1284199770367973, -0.2852394161003442)	(-7.9296010821186664, -1.9560868164251577)	(-0.6535807224985497, 6.8121597445370003)	(5.7428498114068347, 8.309040732659593)	1.0	z	1.25975
4	N	A	B	M	B	A	N	M	B	8	2	shapes	B	8	True	13	(-8.032103174425437, 0.67597998989382369)	(-2.9210952373692329, -0.80661583298381245)	(3.3381652087554272, -0.65075683566070275)	(-0.0072332209527559144, 6.0344469931065223)	1.0	z	0.947478
5	N	B	A	N	A	B	M	M	N	8	2	shapes	A	8	False	13	(0.85235464585090348, 5.3533313667975779)	(6.9994193237228846, 5.9572622612952966)	(-5.9730453261615217, 1.7629945488587087)	(3.7699686914244133, -2.2858495997018977)	1.0	slash	1.38138
6	M	A	A	M					A	4	1	shapes	A	8	True	13	(-1.8863927123651179, -0.39266367154317372)	(2.519669073457754, -6.5402879982020075)	(1.8884374781135147, 5.9372977344830051)	(-7.5658425470216573, 7.8770253047991936)	1.0	slash	0.80275
7	N	B	B	M	M	N	A	A	A	8	6	shapes	A	8	True	13	(-1.0455233983812482, 6.5690713959865814)	(-8.1892364843911096, -3.5400374601672224)	(4.796445174616256, 5.1441326531044425)	(6.9435155947950236, 1.2240361867077052)	1.0	z	1.43838
8	N	A	N	A					B	4	2	shapes	N	8	False	13	(-2.0339600229682784, 0.3490992775417201)	(5.6712117617542059, -1.9561786820546887)	(-4.6749614703868474, -8.4620119204215491)	(4.2229026346648144, 8.0742331700713734)	1.0	slash	0.896092
9	N	B	N	A	A	B	M	M	A	8	4	shapes	A	8	True	13	(-8.5167238963607392, 7.6383525506854184)	(2.7804195104355198, 7.8407799302065442)	(-1.1499496573669301, 0.50096235294342861)	(-7.3751083086162099, -5.9775571803101011)	1.0	z	1.11366
10	M	B	N	N	B	M	A	A	M	8	4	shapes	B	8	False	13	(2.3261564387628262, 4.2604112671670258)	(2.8309241366673508, -6.5797027949226514)	(-3.9205413804595795, -5.3880827815621402)	(-8.747209671968033, 4.8097715272129502)	1.0	slash	1.00682
11	M	B	A	M					A	4	3	shapes	M	8	False	13	(-1.7478366890235053, 2.1530934546630149)	(-5.2507574815565192, -3.9762070921267156)	(4.3282623436395564, -7.0060152472058839)	(1.6002320963992691, 5.9779212622540197)	1.0	slash	0.848925
12	M	B	M	A	N	B	N	A	A	8	1	shapes	B	8	False	13	(-7.6215441224081566, 7.3329745792708785)	(0.75032014917269052, 8.1946513066472058)	(3.3165193990522788, 2.4199354637598756)	(-0.20758581347918081, -4.7002500101500324)	1.0	z	1.05056
13	N	A	A	B	B	M	M	N	A	8	5	shapes	M	8	False	13	(4.2652182274346924, 2.222614238675412)	(-0.38713003703411175, 0.25375637894729053)	(-2.7446606090773633, 7.9242901747303804)	(3.9321152771268508, -4.4866500789863366)	1.0	slash	0.764167
14	N	B	N	A					N	4	0	shapes	N	8	True	13	(-1.6854051161504042, 1.9092099814850769)	(3.6491208907508099, 1.998575470744326)	(5.1979795164487204, -4.3027724517446693)	(-0.36101653259755118, -6.5308500192900922)	1.0	z	1.00591
15	M	A	B	A	M	N	N	B	M	8	3	shapes	A	8	False	13	(1.0974214165732334, 8.2469055141150136)	(4.2980777900191232, -4.7758276329062763)	(6.8317163786574167, 3.6797227311646363)	(-1.7373292503453888, -8.7499137083600154)	1.0	slash	0.937468
16	M	B	B	A					B	4	3	shapes	A	8	False	13	(-8.0803181518051481, 4.9090850885283572)	(-4.9927314651125974, -4.4077443575982089)	(3.2584834685253785, -1.9428405697389799)	(8.0079128914811122, 0.25852729805359331)	1.0	z	0.967189
17	M	A	A	M					A	4	2	shapes	A	8	True	13	(-3.6885044703301846, 3.0613250777675791)	(-3.9054925914303951, -2.4593263436118828)	(3.6655362117267369, 0.61570868180834637)	(5.7439176034265618, -4.2563371081201051)	1.0	z	1.00884
18	M	B	A	B					B	4	3	shapes	B	8	True	13	(5.2344995050294241, 4.8533608299679258)	(-1.1540861795911912, -1.2529480947607903)	(-4.4264567359222458, 2.4562559950173721)	(7.7169313762708249, -4.1844314396316529)	1.0	slash	1.5664
19	N	A	A	N					A	4	1	shapes	A	8	True	13	(-2.1191086488354163, 2.1526661342658659)	(7.7096202910675267, 1.2138942107955177)	(-6.4405786036967729, -0.61827066207225911)	(1.7836984851042565, -7.2146949445331989)	1.0	z	1.08798
20	M	B	M	B	N	N	A	A	A	8	6	shapes	A	8	True	13	(-1.0947813493997067, 1.159939528219649)	(-7.2409788005227824, 8.4504159622646782)	(8.2564296661353573, -6.7585409481832013)	(-7.5436881223937391, -1.3628795784656145)	1.0	z	1.41946
21	M	A	N	N					M	4	0	shapes	M	8	True	13	(8.6209051916753232, 4.1088146345445669)	(2.1525755390509307, -4.7022235849515965)	(-4.53839278287714, 5.4034229097912494)	(-5.9111774085317084, -8.4575041336227539)	1.0	z	1.44915
22	M	B	B	N					B	4	2	shapes	B	8	True	13	(3.9486306952661181, -7.0398115348081074)	(-5.4853937040277456, -5.7935476952011307)	(-1.1198588832048433, 0.030548133907863928)	(4.5509361327782383, 0.93770454787842361)	1.0	z	0.968872
23	N	A	N	B					M	4	2	shapes	N	8	False	13	(-2.6963284891430268, 6.3074150929315547)	(6.8876143287726794, 4.2053996096022015)	(-4.1078739987533179, -7.2587541090264995)	(4.9347607464877505, -7.0879894129222265)	1.0	slash	1.44851
24	M	B	A	M					N	4	3	shapes	M	8	False	13	(-5.7236596755290545, -0.5674439253730732)	(5.2859005028804482, 0.90010745132157943)	(6.2830757121596452, -6.8612148786684291)	(-3.7934271012176684, 5.6767526594250786)	1.0	slash	0.591865
25	N	A	M	M					M	4	1	shapes	A	8	False	13	(-5.9034184132075431, -5.0753524910136578)	(-8.6114847439701805, 7.6017832501513354)	(0.035488079448244392, 5.8593872021519111)	(8.0339326823504855, -1.5409478707331941)	1.0	slash	0.595755
26	M	A	N	N	M	B	A	B	A	8	7	shapes	B	8	False	13	(-6.6581243330360191, -7.257897400791637)	(-7.3908265984337618, -0.75418127546997216)	(2.0858989996822412, -5.9521254275591158)	(1.2862266728865279, 0.98543226779566773)	1.0	slash	1.29748
27	M	B	M	A	N	N	B	A	A	8	3	shapes	A	8	True	13	(-3.3511835393473888, 5.2091724025216166)	(5.9311334892766343, -7.6974089240735211)	(5.6345306243564952, 5.4681810342395547)	(-8.5702074883204329, 3.9247689069308613)	1.0	slash	1.81113
28	N	B	A	B	N	A	M	M	N	8	5	shapes	A	8	False	13	(6.1210199385843076, 3.9501749677622549)	(-7.8510938300871658, -8.3117920767253448)	(-6.6860811239674867, -3.9372325763238107)	(5.3840575452870745, 7.9251483197934505)	1.0	z	1.41455
29	M	A	B	A					M	4	3	shapes	A	8	False	13	(2.7172143551199373, -7.1047551166057463)	(4.2619789082885209, 4.9138427552709683)	(-4.7401369511914897, 6.3300332117517719)	(-5.4694833465506338, -3.9586868034675078)	1.0	slash	1.5803
30	N	A	A	B	N	M	M	B	N	8	0	shapes	N	8	True	13	(-1.3314309565883873, -0.69054208366568659)	(-8.6813452124483987, -6.8152101422624574)	(3.9520010219079929, -3.5286176701074474)	(8.6748840748819944, -2.1812005906605485)	1.0	slash	1.08595
31	N	B	B	A					M	4	0	shapes	N	8	False	13	(-4.5733252542199576, -7.3972044537697847)	(-7.8674103024926092, 6.0998281112375228)	(1.8491971111922823, 7.6611498890344514)	(6.7236228743282567, -7.5950608908806112)	1.0	z	1.08564
32	N	B	N	B	M	M	A	A	A	8	6	shapes	A	8	True	13	(-7.6244467716290547, 7.4557781224530437)	(0.9070301863825101, 3.3843788260623526)	(8.6865163761347723, 0.07209500456211515)	(-8.4799039573536117, -7.2047264288137702)	1.0	z	1.28103
