TrialNumber	stim0	stim1	stim2	stim3	stim4	stim5	stim6	stim7	stim.probe	ttl.stims	corr.num	trial.type	stim.corr	block	match	Subject	stim.pos0	stim.pos1	stim.pos2	stim.pos3	ran	resp	RT
1	N	B	M	M					M	4	3	shapes	M	Practice	True	130	(4.7196078293167023, -2.4605252191174474)	(-1.2772556256111596, 8.618958731906794)	(3.9239953116289925, 6.9301433484252239)	(-6.9613417438018912, -0.6184245102411019)	1.0	z	2.03283
2	N	B	N	A					B	4	2	shapes	N	Practice	False	130	(-1.3752356618165607, -0.63339635650321213)	(3.7064738283140599, -8.0683595573734959)	(-1.3188266204696228, 8.4082830511059825)	(7.9028434193392663, 5.4851179768383034)	1.0	slash	1.54504
3	M	A	M	B	A	B	N	N	A	8	7	shapes	N	Practice	False	130	(-6.6287890144568591, -5.8087698312406131)	(5.0720773380009287, -2.8925315815082859)	(-0.13265975238251571, -2.4844916023748507)	(7.9375840424860016, 4.0290405504515299)	1.0	slash	1.17802
4	N	A	M	M					A	4	2	shapes	M	Practice	False	130	(2.0991749628631897, 2.9444582380687638)	(-2.7125000720601751, -6.8586293359715302)	(7.2537674033959156, -8.5007403801818757)	(-3.4804755324655101, 0.12585541145708667)	1.0	slash	1.85162
5	N	A	A	B					A	4	2	shapes	A	Practice	True	130	(-0.1309019502683757, 7.9961220764535668)	(2.3957924426026871, -8.1564289879210357)	(7.7552250940487077, 0.3300151695152902)	(-0.86875232416258985, -1.4475613202865407)	1.0	z	0.8153
6	N	A	A	B	M	B	M	N	N	8	7	shapes	N	Practice	True	130	(2.7450225157575385, -2.5939778395180477)	(-5.9493629061686093, 0.39022850288831101)	(5.6516168071894057, 0.63347509763920407)	(-8.1893969948275771, -7.0646810986835717)	1.0	slash	1.83899
7	M	B	A	A	N	N	M	B	N	8	1	shapes	B	Practice	False	130	(2.4039510299561773, -6.8975875929420667)	(3.3904214772650274, 1.2420917519720618)	(-0.58390357039253793, -2.7567052222964774)	(-4.7653619778103229, -5.0749516492182574)	1.0	slash	1.14722
8	M	A	A	B	B	N	N	M	A	8	2	shapes	A	Practice	True	130	(-3.6101062160054065, -5.1078051197600196)	(1.1817332600907573, -6.8299759765979662)	(-1.0809719177767345, 6.0149065641989417)	(3.3373795397083974, 3.2204386138764374)	1.0	z	1.06224
1	N	B	B	N	A	A	M	M	B	8	2	shapes	B	0	True	130	(-6.3827544362222763, -0.54292946838573997)	(0.66090992656859626, -2.6572333618295687)	(-8.4506043922710425, 5.4346188217067848)	(7.4094027428934908, 2.7086087926361806)	1.0	slash	1.0698
2	M	A	N	N					B	4	2	shapes	N	0	False	130	(-2.5380014634261752, 7.7997922748463004)	(1.7854375005621588, 6.4650346783305306)	(-8.2309253921076575, -5.8140641320061928)	(8.6227424792921035, -4.2962185978879406)	1.0	slash	0.977319
3	M	B	N	M	A	N	B	A	B	8	5	shapes	N	0	False	130	(3.1156860111189122, 0.49545675457047267)	(-8.2198306090235214, -2.1011905180486341)	(-7.9802810440930703, 8.4701589492062119)	(-4.1207212126153259, -1.3933763719260375)	1.0	slash	0.98331
4	M	B	N	N					N	4	1	shapes	B	0	False	130	(1.697125770810473, 4.5470271733541665)	(0.045668108719967293, -2.076210272688515)	(-5.3281656087051665, 8.5820168110477262)	(-5.5801427835141855, -1.8516584720797145)	1.0	slash	0.928808
5	N	B	B	N					B	4	2	shapes	B	0	True	130	(5.6353281102781363, -1.3469854488998907)	(-2.0818667751355706, -6.8368028619486889)	(-6.3010424608289117, 6.1495956330974462)	(8.5178353005617886, 6.5770422243571538)	1.0	z	0.752374
6	M	B	M	N	B	N	A	A	A	8	4	shapes	B	0	False	130	(2.3684019609398277, 7.0772840592015527)	(3.1011655496130626, -8.5216715386478654)	(8.492218129607906, 5.193079728795146)	(-5.3059942060986529, 3.3574192716000795)	1.0	slash	1.12476
7	N	B	N	B					A	4	0	shapes	N	0	False	130	(8.6740495515527734, 8.7010369351899435)	(-4.8400599624363201, -1.7829558291849334)	(7.4564864145860454, -4.1797994429904453)	(-5.5608095762895537, 7.8492067651844941)	1.0	slash	0.795756
8	M	B	A	B					B	4	2	shapes	A	0	False	130	(6.3476001046937007, -0.11062931355617422)	(1.6691435805758879, 7.3020830101992367)	(-1.4410640712049592, 2.8838005667584259)	(-3.8897474734609672, -1.6064134375355748)	1.0	z	0.827505
9	N	B	A	A					N	4	0	shapes	N	0	True	130	(4.4746979663382351, 2.8086645462655291)	(-7.5661918535467674, -5.7762746172163784)	(3.804755166896868, -4.9891966049095977)	(-2.6917135478885053, 7.0020242383471842)	1.0	slash	1.13507
10	M	B	M	B					M	4	2	shapes	M	0	True	130	(3.0263503894525581, 3.7472290039292346)	(-3.0548311065293898, 7.4160060870512616)	(-1.1923540634229584, -1.0388364617496615)	(3.8330404011040571, -7.6092908623086561)	1.0	slash	0.766812
11	M	B	A	A	B	M	N	N	N	8	7	shapes	N	0	True	130	(4.0359799421316875, -1.0431962100603025)	(0.88716987365539346, -4.8417720429818569)	(-0.79568862690083186, 8.4822656179343632)	(-4.9650665608734723, -5.3870690317211825)	1.0	z	0.870459
12	M	B	A	N	B	N	M	A	A	8	7	shapes	A	0	True	130	(1.6524008870691791, -7.6058904170464245)	(-1.74397612392218, -2.6243175816911561)	(3.7656286955007641, -3.8480259813582682)	(-1.488559144158125, 4.0276914764683927)	1.0	z	0.442628
13	M	A	B	N	A	M	N	B	M	8	6	shapes	N	0	False	130	(2.2879889157773299, 8.6728443856031241)	(-4.3238136705944719, -3.8163933964981993)	(3.7612510829753933, -8.2565355355238026)	(-8.4887548717687178, 5.5859344719447055)	1.0	slash	0.683712
14	M	A	N	N	B	A	M	B	A	8	1	shapes	A	0	True	130	(-4.7841670237129001, -7.6198052481274567)	(-0.66047814087183632, 3.855277035647374)	(8.6704908975028765, 5.0967997401141538)	(1.6161154298930782, 0.22624504410675783)	1.0	z	0.709247
15	M	B	N	A					A	4	3	shapes	A	0	True	130	(-1.726616114014524, 6.9224701235071606)	(4.288155027090772, -0.047619521453762914)	(7.3707836045702066, 5.68317791770097)	(-2.8045855944099394, -4.5620573699827345)	1.0	z	0.68277
16	M	B	M	B					M	4	2	shapes	M	0	True	130	(-6.840499699891752, 0.42447736892942523)	(0.82370890143316622, -5.6202372940546352)	(0.53593706945015285, 4.892975752859515)	(-7.1961456467685858, -8.1806970221008513)	1.0	z	0.824558
17	N	A	A	N	B	B	M	M	A	8	2	shapes	A	0	True	130	(8.2147597994275898, -2.8056295319894931)	(-0.12146775484140626, 5.5689998787893309)	(4.9345571160453225, 6.462379880795428)	(-6.2566057592944642, -8.5408923966948542)	1.0	z	1.3804
18	M	B	N	N					N	4	2	shapes	N	0	True	130	(6.8253684174427587, -6.6976634056422863)	(-1.9567808815678855, -5.9409092296833661)	(-7.3166428836625297, 4.1110999242577098)	(4.2636573456278644, 5.6829215072620105)	1.0	slash	1.30649
19	N	A	B	B	N	M	A	M	A	8	7	shapes	M	0	False	130	(-1.548296967735153, -2.8939151543808785)	(-3.4275841483371421, 2.8303598174927469)	(3.0140648771865255, -6.1065489732240312)	(4.350051674504396, 4.5408548862234746)	1.0	slash	0.79762
20	M	A	N	N	M	A	B	B	M	8	4	shapes	M	0	True	130	(-6.9848486210742049, -0.16017812552889588)	(-7.5719251586592229, 5.0997392877562611)	(4.8223797820908434, -2.653511216255751)	(1.1092057572381329, -8.6464631051942256)	1.0	slash	0.953067
21	N	A	N	B					M	4	2	shapes	N	0	False	130	(4.5268699783746076, -0.094145572698462132)	(4.0715359528839148, 5.0408874869300266)	(-4.4018143730334964, -4.9000489197127415)	(-0.95886752542205222, 6.039061366576119)	1.0	slash	1.29876
22	N	B	N	B					B	4	3	shapes	B	0	True	130	(4.7061035482881692, 4.7798237465188667)	(8.1092210082749112, -7.6898631820967163)	(-1.0786243377330296, -5.3249664878633549)	(-6.03514832590891, 0.78153059829946869)	1.0	z	0.576587
23	N	B	A	M	A	N	B	M	M	8	6	shapes	B	0	False	130	(3.6845629789311563, 7.4222392154684123)	(1.8672507632761146, -2.3980466604800359)	(-4.0634839582524265, -6.3597740627342478)	(-6.8427195598658752, 5.3907678281856004)	1.0	slash	1.0147
24	N	A	B	N					N	4	3	shapes	N	0	True	130	(2.783553724248172, 1.7085151040046096)	(-7.68991061101854, 5.9313238451576655)	(-6.1461983498422388, -4.4116500671591075)	(2.0583710529741914, -5.6603744704536094)	1.0	z	0.739703
25	N	A	A	N	M	B	B	M	B	8	6	shapes	B	0	True	130	(-0.28556421580099034, -0.53874120956721328)	(7.8690725173602232, -4.5442256146360593)	(3.6881461173899996, 2.825219267978186)	(7.7032476799096088, 1.6534217165613097)	1.0	z	1.18589
26	N	A	B	A	N	B	M	M	M	8	5	shapes	B	0	False	130	(0.91135009390105459, 5.1622330862624288)	(1.4683521011821856, -6.8368523006949911)	(-3.4444359359445613, 5.4430163837055723)	(-6.8052155772575809, 2.6176494904215897)	1.0	slash	0.743472
27	N	A	M	A					B	4	2	shapes	M	0	False	130	(2.7713415929328882, -6.5591557431677412)	(5.8926305539961792, 3.4466008211559114)	(-2.1203214032826541, -8.027455365772985)	(-7.669501234001169, 2.9720390498193758)	1.0	slash	0.850682
28	M	B	B	A	N	N	M	A	M	8	6	shapes	M	0	True	130	(6.2970901564260124, -6.5982346183083056)	(1.5804177635343919, 4.9834216149075985)	(0.77988557667338121, -5.8916034134025104)	(-8.18536177104742, 5.6700128584733545)	1.0	slash	1.60233
29	N	A	M	B					B	4	2	shapes	M	0	False	130	(-6.0580111530286072, -0.20638479246642305)	(-7.0526691171024813, 4.3773292680822689)	(2.6354373963043347, 3.2578286555786651)	(4.4209102345979812, -1.5815074068081785)	1.0	slash	0.752285
30	N	A	M	M	B	B	A	N	B	8	1	shapes	A	0	False	130	(-5.9537069438975827, 3.2260568662680456)	(4.733049762839098, -2.541800971259411)	(-6.5349271730537257, -6.3177281638694076)	(-3.1229828667448931, 6.8562939345808633)	1.0	z	0.841553
31	N	B	A	B	N	M	M	A	M	8	7	shapes	A	0	False	130	(-0.5071887069499077, -0.13046285549030401)	(7.371942809817142, -0.11858360221506103)	(7.5898245640525914, 6.1845185253962711)	(-2.4441351494738557, 5.6563011124905831)	1.0	slash	0.717088
32	N	A	N	B					N	4	1	shapes	A	0	False	130	(1.4783312477174331, -3.9332325049157726)	(-6.3573382537057785, -5.9540697606107074)	(0.58968119716243805, 0.049436519560709158)	(-3.4870305477070342, 8.385112170827675)	1.0	slash	0.926995
1	N	A	M	N					B	4	3	shapes	N	1	False	130	(7.5758404110108906, 8.6468828825930366)	(-7.2352444066627521, -5.1878907638615619)	(-1.4573204000032032, 2.7699759991194508)	(4.6154825137421618, -2.3449906155812901)	1.0	slash	0.755066
2	M	B	B	N	M	N	A	A	M	8	1	shapes	B	1	False	130	(0.80257293951160946, -1.6877357150401435)	(4.3275647037637537, 5.3063548359999011)	(5.6070819022945546, -2.0132264267891546)	(-6.0469086582225362, -4.0743010652233487)	1.0	slash	1.60833
3	N	B	A	A					B	4	1	shapes	B	1	True	130	(4.1938535859520716, 0.17713124113126)	(-6.8275539577910678, -4.9649249362585044)	(-8.3145406262438613, 6.6257962729134245)	(0.22738010208407111, -5.6106358387299906)	1.0	z	0.759628
4	N	A	B	B	M	M	A	N	M	8	5	shapes	M	1	True	130	(5.8540586958830101, -0.10565509645608628)	(5.2710915056935317, 4.2745568158728862)	(-5.4094083033190401, -6.971065729365689)	(-4.7224584073005298, 1.4493854171739109)	1.0	z	0.673291
5	N	B	M	M					M	4	2	shapes	M	1	True	130	(7.0617325928695927, 6.059999628209928)	(4.0644025464549838, -4.3898094270190331)	(-4.2460995451620223, 3.8595654754068498)	(-6.4675608040889188, -3.3008216480645229)	1.0	z	0.78764
6	M	B	A	A					N	4	1	shapes	B	1	False	130	(2.0668278570203338, -4.065186352020083)	(6.1611138110357739, 8.49574174396475)	(-0.3620050741479659, 5.4205825997587205)	(-3.8864919900515424, -4.5397859900950994)	1.0	slash	0.724822
7	M	A	A	B	N	M	B	N	M	8	7	shapes	N	1	False	130	(-3.9885654688743077, -3.7289778895964218)	(1.3839045369867655, -2.3975900731920419)	(2.0334696263476904, 5.7349887017397929)	(7.0101806873496173, 6.3316350617100259)	1.0	z	0.793083
8	M	B	A	B	M	N	N	A	M	8	5	shapes	N	1	False	130	(-8.3828690555928809, -3.4439959857681108)	(6.4805126232965922, -3.9644059471532573)	(-5.0642221153516864, 1.9911638707202854)	(1.9056611946070703, -8.1684184587260447)	1.0	slash	0.938083
9	N	A	B	B					A	4	2	shapes	B	1	False	130	(-2.2730620860365622, -0.84400736867349657)	(0.36243096893945292, -7.5043458193109149)	(7.4246996036030097, 4.8999769803794706)	(-2.85658075391341, 6.7817205286459981)	1.0	z	0.863526
10	M	B	N	A					M	4	0	shapes	M	1	True	130	(-1.3019796863027526, -7.3621755784812777)	(-4.5995886195413336, 4.6275716730932963)	(5.2443466163248882, 2.6673864787964341)	(2.9028373984794911, -0.93766124830595388)	1.0	slash	1.0574
11	M	B	A	B	M	A	N	N	B	8	1	shapes	B	1	True	130	(3.647712328814098, -6.2611749409673987)	(-4.1027996404922487, 1.3227400447271833)	(-3.4137977569806379, -5.2252904435845)	(-6.3008016954676034, 4.8948236221650454)	1.0	z	1.36691
12	N	A	B	B					N	4	3	shapes	B	1	False	130	(-1.7937617564831063, -0.54903551098695402)	(7.979492783732514, -2.0239197966957461)	(-0.7582683433715145, 7.3107414105095003)	(4.1724835867069352, 6.1115872657311439)	1.0	slash	0.662742
13	N	B	M	N	M	B	A	A	M	8	4	shapes	M	1	True	130	(-8.6644591306408181, 6.5457840230621631)	(1.1245416792033236, -4.8980795685711591)	(7.5219638132405251, 5.7188019799150052)	(7.2594869347632098, -8.6736217359529864)	1.0	slash	1.06643
14	M	A	N	M	B	N	A	B	B	8	0	shapes	M	1	False	130	(-5.1145165780930606, -4.1723815530981527)	(0.43000468202291842, -2.2632694014417494)	(5.2928078354110912, 1.0896764178712317)	(6.6963088856928312, 6.9126911136547609)	1.0	slash	1.23043
15	M	B	M	N					A	4	3	shapes	N	1	False	130	(-0.92722941278173465, -5.3983738438701092)	(-2.3636137720085957, 1.1591841700564363)	(7.0470907627810409, -0.88743827836782607)	(4.3954880100615519, 2.6454512644097008)	1.0	slash	0.985549
16	N	A	A	B	N	B	M	M	B	8	5	shapes	B	1	True	130	(6.6138759576059023, 4.8840667277865215)	(-3.4485669492103268, -1.7108914722002337)	(-0.40006335616111954, 2.3495901405367601)	(-5.3166934335821505, 5.4463879609987274)	1.0	z	0.900891
17	M	A	N	B	B	M	N	A	N	8	6	shapes	N	1	True	130	(8.1665051311564127, -8.3875549704217462)	(-1.8245791737579644, -8.5568667199040185)	(-8.704539610894086, -7.1550678952628513)	(7.9597941981181961, 7.5564086088723634)	1.0	z	1.22682
18	N	B	B	A					M	4	2	shapes	B	1	False	130	(-5.2443433118307503, -3.7353206843855835)	(5.5684517627394854, 2.308622571943161)	(7.5809925172461945, -8.7309942052420642)	(-2.8958642356615112, 4.7147876141117155)	1.0	slash	0.646409
19	N	A	M	A	B	M	N	B	B	8	5	shapes	M	1	False	130	(5.9908722615800993, -0.32853648423133919)	(-8.609433867579618, -7.9104910883150836)	(-6.0444316841503456, -3.9800057321272329)	(-8.1461032229618731, 0.26113502260509058)	1.0	slash	0.906583
20	M	A	M	N					A	4	1	shapes	A	1	True	130	(-4.0005918692255138, 8.3549496073170566)	(-0.57485462398511977, -4.5842796282103189)	(6.8718258190534183, 1.3261331120891011)	(5.3909041809719653, -6.2077770196982778)	1.0	z	0.742297
21	M	B	B	A					M	4	0	shapes	M	1	True	130	(5.5198092174430595, -0.26919822795116843)	(-3.6714961530944779, -8.4394660337596275)	(-0.46373940405933389, 1.0973249052278948)	(7.0623429507231048, 6.7579401741441529)	1.0	slash	1.51608
22	M	A	B	B					B	4	2	shapes	B	1	True	130	(6.5339992275452534, 5.6306165006253366)	(-1.1025941243905963, -7.4791368543649934)	(-4.4168390592640785, 2.9532093965853647)	(7.8957470387216873, -2.5355583977296492)	1.0	z	0.787765
23	M	A	N	A					A	4	1	shapes	A	1	True	130	(2.5027320786439446, 6.0065769724666556)	(-7.9050653422695625, -5.4798897411939311)	(-6.8376449424007308, 7.6510800247436563)	(7.7833641626678656, -3.4896983305431437)	1.0	z	0.781002
24	M	B	A	A	N	N	M	B	B	8	3	shapes	A	1	False	130	(2.3468732122295499, -3.4555491380491805)	(-2.2870298669559102, 1.8033117288215923)	(-8.23382974180522, -4.6925313271292808)	(8.5892666926922132, -4.6698996853017913)	1.0	z	1.54635
25	M	B	M	A					M	4	1	shapes	B	1	False	130	(-3.0414113190412158, -7.0546271756568437)	(4.1617350904059958, -3.7516262720542288)	(8.0015656537348647, 2.0446151723058641)	(-6.5571837277790204, 0.010612453524331045)	1.0	slash	0.830133
26	N	B	B	N					M	4	2	shapes	B	1	False	130	(0.99416659856929179, -2.9991695533156015)	(-7.2506887962065907, -0.12352947817275428)	(-8.5346700594021794, 4.4371833519877004)	(2.5781700341018752, 2.4503859228822122)	1.0	slash	0.777686
27	N	A	N	A	M	M	B	B	N	8	0	shapes	N	1	True	130	(0.38479348173990324, -1.2133946956021058)	(-1.766799751820268, 7.8535435596020875)	(4.8498077588183381, 1.0007297780262689)	(7.9280783469924181, 8.1525617262866348)	1.0	z	0.815214
28	M	B	M	B	N	A	A	N	A	8	0	shapes	M	1	False	130	(-4.1691585639380566, 0.61992350112645767)	(5.6153773009847221, -2.6163631916269123)	(6.3136276215800411, 5.3589298367913916)	(1.494337106316955, -3.4065616209362037)	1.0	slash	0.798963
29	M	A	N	A	M	B	N	B	N	8	3	shapes	A	1	False	130	(2.9256063734074136, 6.8186980466847427)	(6.5786266246141345, 2.3524014933316248)	(-5.5284583852890137, 4.6192857992562164)	(7.7290603883066105, -2.423017910743023)	1.0	slash	0.697236
30	N	B	A	A	M	B	N	M	M	8	4	shapes	M	1	True	130	(-5.3697619916044177, 4.8514855281905298)	(5.2419831241300354, -8.6330612426745059)	(-1.4962327214509346, 3.0348374809593999)	(-4.3522634986033548, -0.3929848133417071)	1.0	z	1.12217
31	M	A	B	N	M	B	N	A	M	8	4	shapes	M	1	True	130	(3.4706785438519656, 5.2637747388621161)	(-6.8526463834244229, 3.6986570097851192)	(8.1160083478437457, 6.1466174143957399)	(-3.7063714282207121, -6.0714993151848082)	1.0	z	1.03384
32	M	A	A	N					M	4	0	shapes	M	1	True	130	(-5.9797016479103187, -6.8077256482292849)	(-5.9151320786724195, 6.6257477632281088)	(4.6422602256699719, -8.0069136795724845)	(8.7455542518232008, 4.0015481105883595)	1.0	z	0.651945
1	M	A	M	B	A	B	N	N	M	8	5	shapes	B	2	False	130	(-3.8825771220644771, 0.70185273790692904)	(-4.6878135511632344, 7.7980489501871446)	(3.4697560676265287, -1.4344368994115051)	(-2.5395440999994214, -6.8317709078422935)	1.0	slash	1.00569
2	N	A	A	B					N	4	2	shapes	A	2	False	130	(4.2617483994077539, 7.1651343855177476)	(-7.1193892068694389, -2.2384527939301933)	(0.076098694929541466, -3.1068225595588608)	(-3.0241130408668964, 6.9205319765242752)	1.0	slash	0.940672
3	N	B	N	A					A	4	3	shapes	A	2	True	130	(-8.6127073229956341, 4.5893843446949809)	(-6.8473402557596783, -5.261403376906066)	(7.6626974287187686, 1.0915633135639027)	(6.1288551711671335, -4.6987076879093568)	1.0	z	0.856357
4	M	A	M	N	B	B	N	A	M	8	0	shapes	M	2	True	130	(8.2673372502085165, 6.0990294280779267)	(7.2973853888498397, -5.907115470341509)	(2.6299032049992892, -8.6725900889685708)	(-7.2396870904115573, 6.8875715243779858)	1.0	z	0.744617
5	N	A	B	A	B	M	M	N	M	8	1	shapes	A	2	False	130	(-6.0993651304609209, -7.9504881224832662)	(2.7297615900368513, 3.8856999779211154)	(-3.6554029563657648, 6.2134700402588994)	(7.1458498024925312, 6.6369405244259703)	1.0	slash	0.794006
6	M	A	A	N					M	4	0	shapes	M	2	True	130	(8.0937974284455336, 6.1808801602731727)	(6.4327188870202505, -7.2472451572215526)	(-3.7343366291618771, -6.0202760759588347)	(-4.9557897034230773, 7.5610451039119368)	1.0	z	0.659163
7	N	A	M	M					M	4	3	shapes	M	2	True	130	(-0.27926312452142454, -1.5206569971804971)	(0.54697470369540824, 3.4705080377326265)	(-6.8116729955011799, 4.4821016797954876)	(7.3727050736102555, -7.860523541707102)	1.0	z	0.814988
8	N	B	B	M					N	4	1	shapes	B	2	False	130	(-4.5046457777525211, 8.4161634559336349)	(-3.9425159862489876, -4.9224528659967843)	(4.4334943842225911, 0.7571781877663355)	(6.9957110584654867, -5.750552912866068)	1.0	slash	0.643171
9	M	B	A	M					B	4	1	shapes	B	2	True	130	(8.5449515321126235, -3.6346585109758509)	(-0.21779480461025003, 7.5746599899388478)	(5.573654000034816, 5.2135531020034058)	(-1.0221621356753348, -4.2625193679073332)	1.0	z	0.540273
10	M	A	B	A	N	N	B	M	M	8	1	shapes	A	2	False	130	(-1.5097182896262451, 1.1356908350050769)	(-1.8065564777983516, -8.5831333811830994)	(7.3037837360892794, -4.6847747326222935)	(4.471347169969734, 7.5543996859377849)	1.0	slash	0.668553
11	N	B	M	A	A	B	N	M	A	8	3	shapes	A	2	True	130	(7.3675322045478495, 1.6108438538406418)	(5.6857550532603032, -8.1590865600739839)	(-0.72691393117514025, 5.4729304647870034)	(-5.0049650845354359, 2.7456274942103693)	1.0	z	0.784342
12	N	B	M	B					M	4	3	shapes	B	2	False	130	(-2.4945997807277003, -3.7808458271612126)	(-0.33512641270538701, 0.89801660216167001)	(2.8639169912547633, -6.4616364542277491)	(6.8000286032934962, 5.862535378924715)	1.0	slash	0.813321
13	N	A	A	N					A	4	1	shapes	A	2	True	130	(0.99497666026704401, -5.2968558756126205)	(-2.7146735479561848, 8.0761610607129519)	(1.1856064946083116, 5.7334887109109758)	(-6.3246973440609597, -8.5221570526707602)	1.0	z	0.517005
14	N	A	B	A					M	4	3	shapes	A	2	False	130	(-2.1184503307518314, -2.0143954394055053)	(4.88640146526234, 5.1575598933251516)	(-3.1827759308204957, 2.4302980261208873)	(6.4025547700556444, -8.0464776943521894)	1.0	slash	0.604666
15	N	B	A	M	N	A	B	M	A	8	7	shapes	M	2	False	130	(2.9887385694282962, -2.2463515259512636)	(6.4827322957840394, -8.0033490322121477)	(-3.4071622716956975, -3.003882573818391)	(-8.6649210631252611, 4.9725646267607448)	1.0	z	0.664581
16	N	A	B	N	A	M	B	M	A	8	1	shapes	A	2	True	130	(-4.6487804745518426, -4.8120252559425101)	(-7.2197866542091456, 7.1712394853607417)	(-2.7037152235478503, 0.31070880789434163)	(-0.90565283862161827, -8.6212554141484272)	1.0	z	0.676048
17	N	B	M	B	N	A	M	A	A	8	7	shapes	A	2	True	130	(7.6049204011131728, -2.5570654708567728)	(-5.1423635984819942, 8.6672548724550538)	(4.3982044842431964, 5.207344559155473)	(7.2711492042538133, -7.8815051601208381)	1.0	z	0.669952
18	M	B	M	A	B	N	N	A	B	8	1	shapes	B	2	True	130	(0.43583494017054925, -1.612756896081013)	(-6.6618505480055248, -4.7953737341974243)	(5.2338650097518613, -5.0484982318904867)	(2.9021972558591909, 3.0670752298227661)	1.0	slash	1.10724
19	M	B	A	B	A	N	M	N	B	8	1	shapes	B	2	True	130	(-2.3962918526982229, 0.92289288846483863)	(-7.099877821998799, 8.1603346261976881)	(0.42453123613447552, -6.921182553925231)	(8.272929212356928, 1.109792023151158)	1.0	z	0.717267
20	N	A	N	A					A	4	1	shapes	A	2	True	130	(1.8551667838317361, 0.24207518030859276)	(8.7262751570101535, -2.1241686444477077)	(-6.1229844879631159, 7.7862899428100967)	(-4.0494148307191908, -7.2089633770922319)	1.0	z	0.717475
21	N	B	A	B					M	4	0	shapes	N	2	False	130	(-3.4808279781658618, -5.6257437270092456)	(1.8152233380493907, -1.097509710888823)	(-7.9921826258737658, 0.13852661566778046)	(8.0876556299240363, 7.8417810300974899)	1.0	slash	1.0462
22	N	A	B	M					M	4	3	shapes	M	2	True	130	(-0.036337453711277945, -4.3070360382534361)	(7.6075735157833044, 0.96336598561974895)	(-2.7707596357330821, 1.709360142140012)	(8.0297176470319478, -6.5845864532887468)	1.0	z	0.701922
23	M	B	B	A					M	4	1	shapes	B	2	False	130	(6.1514122542288003, 6.3555789371315505)	(-7.131847200416388, 3.7563840564672066)	(-7.6418382983467588, -1.5862238962826254)	(0.78632689969204606, -4.4749235286462001)	1.0	slash	0.39558
24	M	A	N	A					N	4	1	shapes	A	2	False	130	(-3.2627726200457019, 2.3479876368537376)	(3.5720124778250053, -4.9543599508091232)	(-2.2099281920387872, -5.6972749276006169)	(8.416318004990643, 7.6078208941320078)	1.0	slash	0.757283
25	M	B	N	A	B	N	M	A	B	8	3	shapes	A	2	False	130	(2.7467599826355897, 8.6080263709183242)	(1.0322152108411409, 4.7156607861335829)	(-6.8042572749559334, 4.840728394455688)	(-1.5926176066161339, -4.7474066593635111)	1.0	z	0.576341
26	M	B	M	A	A	B	N	N	B	8	4	shapes	A	2	False	130	(-6.2083306944045056, -3.1570549038352231)	(3.2996888217858018, 5.1244959877453056)	(-0.83934902743351891, 0.40389179692689581)	(-2.2673943902510576, -7.3031062836090905)	1.0	slash	1.05249
27	N	B	N	A					B	4	2	shapes	N	2	False	130	(-0.5471956995623124, 7.4580297748075317)	(-6.8026799078335145, -4.1430397471146954)	(4.8879875295326478, -0.44661738709623044)	(5.4385539832914613, 6.0532988753639785)	1.0	slash	0.54663
28	M	B	A	M					M	4	0	shapes	M	2	True	130	(5.8927389427818628, -6.5602786947404983)	(-0.11678030639956916, 3.219222428916952)	(3.1409159373937694, 8.0037427224838105)	(-3.4779071530654724, -0.907747626687474)	1.0	z	0.750585
29	M	A	N	M	N	A	B	B	B	8	6	shapes	B	2	True	130	(-1.0743273766445345, -3.2376944175839242)	(-2.7297421655955363, 7.2416394318728656)	(2.7896901875175413, 4.1146180320718226)	(8.2266923400945871, -0.39569446852284429)	1.0	slash	1.20946
30	N	A	N	B	A	M	M	B	M	8	6	shapes	M	2	True	130	(-1.1117066643055891, -6.7824377925276984)	(-3.5377552569114359, -1.9598723199579604)	(2.077673872704267, 3.8619032595975948)	(1.7388900869141963, -1.8257779273276737)	1.0	z	0.883071
31	N	A	M	A	B	B	N	M	M	8	3	shapes	A	2	False	130	(-5.7533038965808281, 7.8543253257104695)	(8.0478009349269861, -7.5436337050045266)	(3.0172241481134972, 6.3589505763149603)	(0.70911559469712948, -4.573935963641409)	1.0	slash	0.685034
32	N	B	M	M	B	N	A	A	M	8	7	shapes	A	2	False	130	(6.1664770976938392, -2.8808317073146537)	(-3.7021012716655921, 6.3368444774305015)	(2.5351391265116483, 5.8437600107991994)	(-6.5603747596369448, 2.9719780504304811)	1.0	slash	0.714217
1	M	B	M	B					A	4	3	shapes	B	3	False	130	(5.6849047327697733, -8.5531618316998319)	(-3.0147106935679089, 0.53782938948988601)	(-0.00032962659495971991, -3.2723491614379068)	(7.5989922850911462, 6.8512208726659516)	1.0	z	0.650209
2	M	B	B	M	A	N	N	A	N	8	2	shapes	B	3	False	130	(7.2517297901683762, -5.7422493539805064)	(-1.5950046211834055, -4.026200143938869)	(7.7083123273694056, 6.0098105554468262)	(-1.6480241345105044, 3.3859513651240647)	1.0	slash	0.702362
3	N	A	B	B					M	4	2	shapes	B	3	False	130	(-6.3753637000542049, -5.5796369013646316)	(4.9141205168671398, 6.3270226900623179)	(-6.358538229754803, 5.0248298688564201)	(7.5253486394664328, -2.7982151243798361)	1.0	slash	0.969747
4	N	A	M	B					B	4	2	shapes	M	3	False	130	(6.8877435360896353, -6.0210990395158142)	(4.7492657794099244, 8.5232920497838407)	(-3.947962151277232, -7.8529936924213217)	(-0.64761892333943472, 2.8846105345194673)	1.0	slash	0.697701
5	N	A	B	N	B	A	M	M	B	8	6	shapes	M	3	False	130	(8.098276836194696, -1.6662589807433328)	(-7.8077028212964779, 2.0386027058209493)	(-1.8363281060265901, -5.442568975984619)	(4.0824603250806426, -4.4662714368280012)	1.0	slash	0.871359
6	M	A	M	N	N	B	A	B	A	8	1	shapes	A	3	True	130	(-1.0543028700350083, -7.2441819386060633)	(-2.4591879880465521, 2.1088070506598076)	(8.4582536811649796, -2.425634457240391)	(3.5948519285781426, -6.5373754062256779)	1.0	z	1.01108
7	N	A	N	B					A	4	1	shapes	A	3	True	130	(7.0475259930940481, -6.7071382888508886)	(7.4425008787799634, 1.1372014368570476)	(-7.7496651194413912, -7.4401625853098245)	(-8.3544146244621675, 3.1684443636403206)	1.0	z	0.664087
8	M	B	B	A					A	4	1	shapes	B	3	False	130	(2.6150764586346291, -5.7234806640044713)	(-1.8632833910187987, 4.2593610399934505)	(-1.8987479795672186, -5.3665020156010907)	(7.0532208524847775, 6.9608504910465712)	1.0	z	0.651891
9	M	A	M	B	B	A	N	N	A	8	0	shapes	M	3	False	130	(5.3663257645347553, 7.3770427208620895)	(1.5025734411486322, 0.90078936864399495)	(-5.8435058595016844, 7.7165560908791662)	(-1.2904569839551909, -6.8464740140377565)	1.0	slash	0.649362
10	N	A	B	A					B	4	2	shapes	B	3	True	130	(3.8722575067918701, -2.7691696345394288)	(-0.065783678584212524, -1.5335006662475177)	(-1.0956938937218368, 8.6819178590969344)	(7.8346571051040605, 2.3676292042641869)	1.0	z	0.967182
11	N	A	B	A	N	B	M	M	M	8	7	shapes	M	3	True	130	(-7.8265749629174568, 7.4043466231493653)	(6.7543253068386697, 8.5128561275783277)	(6.9554518397387302, 2.7342143675930295)	(-0.6860055421250717, -6.0949367440033022)	1.0	z	1.19069
12	M	B	M	B	A	A	N	N	N	8	7	shapes	N	3	True	130	(-0.47327792017157755, -8.0947080255437065)	(-3.6499653818246998, -4.7813670423750754)	(4.5829591552739171, 8.6908243302619574)	(0.73537563129532835, -4.1620064017889433)	1.0	z	1.06296
13	N	A	N	M					N	4	2	shapes	N	3	True	130	(2.6168282582162341, -5.9577799534280551)	(-4.5440693262969152, 8.736209839927966)	(-5.1177863187876733, -0.797791462950876)	(3.4842910124410835, 2.8981846801376019)	1.0	z	1.05388
14	M	B	N	M					M	4	3	shapes	M	3	True	130	(-8.0105012246592331, 6.5277287131353514)	(2.1897412578902387, -6.335062393802386)	(7.1893734688134927, 6.3418675377673601)	(-1.1660557466322725, -0.4899227248856608)	1.0	z	0.85955
15	N	A	N	M	B	B	M	A	B	8	5	shapes	B	3	True	130	(4.3477359887256775, -3.615851453075356)	(-8.390513218199013, 1.8358925745593311)	(-5.9518037340804391, -6.9121965845840556)	(2.2394532346325011, 2.7687802959387415)	1.0	z	1.39922
16	M	A	M	B	A	B	N	N	B	8	4	shapes	A	3	False	130	(-0.72502100907136935, 6.7822742011739656)	(3.6501970914879784, 1.041419671107608)	(-0.19839835215219459, 2.3389206907016966)	(6.644601056415663, -8.4803224101250514)	1.0	slash	0.642674
17	M	A	M	A	N	N	B	B	N	8	5	shapes	N	3	True	130	(-5.4119051693335303, 5.0071187915752233)	(-1.4962455550488691, 8.1004605458662304)	(8.5913642579630007, 3.4060937414853409)	(5.190703192442113, -1.4309113509399243)	1.0	slash	1.01897
18	N	B	N	B	M	A	A	M	N	8	0	shapes	N	3	True	130	(-2.5274380452697169, 1.3017361248521873)	(-0.071942689377809899, -2.3428856710329491)	(6.3227546750177197, 7.8378963743231438)	(-7.457277374131837, 7.8751454040042503)	1.0	z	0.544141
19	N	B	N	B					B	4	2	shapes	N	3	False	130	(-2.8109857724743428, -5.9428432285567343)	(0.34514225309911772, -0.39644832277666886)	(5.4760257944323119, 6.426403963058128)	(-5.0372356702386849, 7.0969070070851679)	1.0	slash	0.822501
20	N	A	N	M	B	M	A	B	B	8	4	shapes	B	3	True	130	(-4.0521005286755667, -6.1799094727305226)	(-1.0612210035320437, -0.051200034491799329)	(-2.7733544132129637, 6.5182251576321928)	(5.9323046102988179, 3.7764034020116899)	1.0	slash	1.61344
21	M	A	A	N					N	4	3	shapes	N	3	True	130	(2.7950336710127566, -4.8549070065073234)	(4.55737715355456, 2.8491557655357571)	(-6.294247576221883, -5.5487360155733256)	(-2.5937017308412704, 5.0283036849535367)	1.0	z	0.739005
22	M	B	A	B	M	N	N	A	B	8	5	shapes	N	3	False	130	(4.6501189952186746, 7.1685446693599921)	(7.1149907220930597, -1.5410997802547302)	(-8.1625069256826777, -0.27480179360006929)	(-0.87712297221940716, -1.384330046343325)	1.0	slash	0.576503
23	N	A	M	M					N	4	0	shapes	N	3	True	130	(3.483086137785893, -4.6473844348166837)	(-6.0625087736298386, -4.8894206017786637)	(5.4809383351757557, 7.3633603170755499)	(-4.7826269537565054, 3.6876352328749462)	1.0	z	0.756425
24	M	B	M	A					B	4	2	shapes	M	3	False	130	(-2.3376284045739038, 2.9450362423012972)	(-5.5351340432035556, -1.7731413294541536)	(1.8600228954731772, 0.8737969400312231)	(4.0290005692491402, -8.2340569148236948)	1.0	slash	0.54266
25	M	A	B	M					M	4	1	shapes	A	3	False	130	(-1.0131344847721557, -6.7977444992359137)	(1.9430844008288766, 3.0395794951006891)	(3.7797895447743439, -5.6821272159782641)	(-6.5424186600494219, 5.6760735353809437)	1.0	z	1.00233
26	M	B	B	M	A	N	N	A	A	8	3	shapes	M	3	False	130	(0.39723807776831244, -7.887800493898137)	(6.4742623916872564, -8.3837908389106044)	(-4.648158321772863, -4.8029507271987857)	(-6.2049191812652733, 7.2344085922181307)	1.0	slash	0.654464
27	M	A	B	B	M	A	N	N	B	8	5	shapes	A	3	False	130	(-5.1847605916396473, -3.135137492082996)	(8.6316188583150257, -2.2309464551798674)	(4.8679810745819285, 8.6425751006579041)	(-8.1994745897132155, 2.3379443374372766)	1.0	slash	0.97902
28	M	A	N	M	N	A	B	B	A	8	4	shapes	N	3	False	130	(-5.7885932673689107, 3.2573162373824029)	(2.6685332840069655, -3.0863096039405722)	(1.0962161827675843, 7.2670671861272886)	(2.3802812883022657, -8.4655262510524611)	1.0	z	0.769136
29	N	A	B	M					B	4	2	shapes	B	3	True	130	(-0.56789401907490777, -7.6253421730681978)	(-4.1294185886241621, 2.9661873755296178)	(8.1678027473962764, -3.5616765426994252)	(4.9581776973730882, 4.4964664145480899)	1.0	z	0.93643
30	M	A	N	B	B	A	N	M	N	8	6	shapes	N	3	True	130	(4.066714016864962, 3.3417545236362489)	(8.0200034506805231, 2.0962817801472013)	(-3.8303350674915313, -1.4329927012930064)	(0.22481860519826391, -8.6858094333488154)	1.0	z	1.34974
31	M	A	A	M					M	4	0	shapes	M	3	True	130	(8.3713744606080986, 7.0290521640779904)	(-1.4632919903515891, 4.7214659924688416)	(-4.8497118827785739, -0.68775474784780322)	(1.9743347263609046, -1.1181207659600876)	1.0	z	0.879162
32	M	A	M	N					B	4	2	shapes	M	3	False	130	(-4.5459159159442679, 8.414350154491494)	(-4.01988879634035, -0.026364883366953862)	(7.3954111673755989, 6.0090762038997561)	(2.1610530482520343, -3.5726413763764144)	1.0	slash	0.618004
1	N	B	N	B					A	4	1	shapes	B	4	False	130	(1.905901592036555, 8.6489497044300414)	(-1.6626197501492905, -3.5171247866003954)	(-3.5304830572125141, 1.5960221255348692)	(3.9701976323744184, -6.1942213820528496)	1.0	slash	1.0328
2	M	A	M	A					A	4	3	shapes	A	4	True	130	(1.3389409406015638, -3.2224795514665727)	(-5.5104174896174971, 2.2849724457747076)	(2.8585095685397057, 7.5962679509917486)	(-5.0010764489435733, -2.5155636082789448)	1.0	z	0.860176
3	N	B	A	M					A	4	0	shapes	N	4	False	130	(-1.8046153749695986, 1.366946880127049)	(7.5233612223850344, 2.5478460115627826)	(6.2581302163541555, -7.8419633309855072)	(-3.7473089015600465, -3.4795592800551685)	1.0	slash	0.690719
4	M	B	B	A	A	M	N	N	A	8	0	shapes	M	4	False	130	(4.5224647611826772, 5.5329330994537376)	(0.47027799374129842, 0.908657396875169)	(-5.8195336749820061, 8.0545922516417541)	(-4.6617885579680145, 4.1968913189490529)	1.0	slash	0.79382
5	M	A	A	B					B	4	1	shapes	A	4	False	130	(-8.6035206384628076, -3.9855990164550565)	(4.5845240860872991, -8.6555288380987001)	(-0.65310858127299909, 4.2672681837312272)	(3.7937554136193441, 6.2170093297020887)	1.0	slash	1.2675
6	N	B	M	B	M	A	A	N	M	8	3	shapes	B	4	False	130	(-0.60075383522865344, 4.5474897810231738)	(-3.3482633435619906, -3.3809886008022296)	(7.5294976365311541, -4.7651759829784526)	(-3.3641475270050094, -7.9155810753400351)	1.0	slash	0.711082
7	N	A	B	M					B	4	2	shapes	B	4	True	130	(8.4909384406907442, 7.6889783723947147)	(8.1544861448780743, -5.1793366012443807)	(-5.7374763480063891, -3.6634105629980418)	(-0.076207067807457562, 3.8952199361737083)	1.0	z	0.69869
8	N	B	A	N					M	4	1	shapes	B	4	False	130	(4.9568891113279516, -7.4433742983833033)	(5.7156576335583846, 5.9444728511349858)	(-2.5723046801881555, -1.5329588413350637)	(-7.0904671036147908, 6.6041959920412303)	1.0	slash	0.694538
9	N	A	A	M	M	N	B	B	A	8	3	shapes	M	4	False	130	(1.794870331044855, -4.8868403221260568)	(6.5696871081661428, -4.1083191736517115)	(-5.4268071164638325, -2.9717531429172377)	(-3.6741615254381843, 7.4416166770964942)	1.0	slash	0.955682
10	M	A	B	B	N	A	M	N	N	8	4	shapes	N	4	True	130	(3.6148846626029947, 1.0461628103246614)	(-1.4019083534697021, -5.9426900748039362)	(-5.2667858215137215, 5.5184642989565855)	(7.7540314969147452, -6.1199823730249303)	1.0	slash	1.09577
11	M	B	B	N					B	4	2	shapes	B	4	True	130	(-2.5704620160749991, -3.6013449594045133)	(-5.2535937058166224, 0.28745660287146535)	(5.1960393204112805, -7.3296257014560995)	(6.7249543600426094, 8.0552647379672457)	1.0	z	0.661332
12	M	A	M	B	A	N	N	B	M	8	3	shapes	B	4	False	130	(4.1041834019170533, -7.9613874672666407)	(4.3111471191779138, 5.1684378266686348)	(-1.8990927545597236, -3.2239867767179344)	(-8.5721849801111727, -3.7478042261417972)	1.0	slash	0.826912
13	N	A	M	B	B	A	M	N	B	8	4	shapes	B	4	True	130	(0.35682656164533988, 5.3510132155223573)	(-6.3512431816417347, -3.8241605293939447)	(-1.85237339706305, -5.4700609876467627)	(7.9805973425311159, 1.1382252734253644)	1.0	z	0.936727
14	N	B	M	B					A	4	2	shapes	M	4	False	130	(7.2481436109879063, -0.9361054407554894)	(-3.4534316597427175, 6.4350852140585886)	(-4.1133479587884239, -1.7707458214105083)	(4.7597644942480972, 6.3288109255490355)	1.0	slash	0.652203
15	M	A	A	M	B	N	N	B	A	8	1	shapes	A	4	True	130	(6.8045215044751277, 0.090539536437136192)	(-5.150418030632089, 5.5525995647720752)	(-1.9302001225913497, -4.8459027226497859)	(8.3823108434253726, 5.045062027313616)	1.0	z	1.82375
16	M	A	M	A	B	B	N	N	B	8	1	shapes	A	4	False	130	(-2.3656049749432952, -5.8367198122711201)	(7.5738202265847541, -0.077589006125020177)	(-2.8973538196264128, 7.4338875979514576)	(2.8236361110179562, -8.5634468791486196)	1.0	z	0.987032
17	M	B	N	A	B	M	N	A	B	8	7	shapes	A	4	False	130	(8.0378831278926164, 4.3218021743879813)	(4.8089674754821718, 0.62530629899618972)	(-3.5131809394615372, 1.2254689187846903)	(-4.2187987444428128, 6.2199939074158017)	1.0	z	0.942991
18	N	A	B	M	B	A	M	N	A	8	1	shapes	A	4	True	130	(-4.9344942892545269, -1.1074502184779149)	(5.4474730282916752, 4.0023713266135328)	(7.5129914245994023, 7.5727106410025478)	(-5.0592137598708815, 7.6630656527122945)	1.0	z	0.81876
19	N	A	A	M					N	4	0	shapes	N	4	True	130	(-2.9799026459274423, -1.6119488595646176)	(-2.659205466814873, 7.082757184820764)	(3.5219701530925622, -5.7908230845810316)	(3.0487774229389508, 0.28261728958235466)	1.0	z	0.678565
20	N	B	A	B	A	M	M	N	N	8	0	shapes	N	4	True	130	(1.6660488402441178, -1.0272059179711341)	(-5.0354444356798869, -3.7370386694975579)	(-7.9869667394495911, 8.1275527852210416)	(-2.4093185713855396, 6.9314131377674837)	1.0	z	0.916584
21	M	A	M	B					M	4	2	shapes	M	4	True	130	(-4.7279869939370531, -8.4414133268514604)	(-0.064987817158318251, 7.2779333795254999)	(0.86672026864733986, -7.9894884341890986)	(3.0014545254100504, 3.4643100061020533)	1.0	z	0.670208
22	N	A	B	B					N	4	2	shapes	B	4	False	130	(3.4609368397964193, 5.6444408496268288)	(6.6814503235585398, -4.9983312398331892)	(-2.891175590547828, 7.131929704380676)	(-8.7031605495863573, -7.6766756525490107)	1.0	slash	0.747331
23	M	B	B	N					M	4	2	shapes	B	4	False	130	(-1.3650960613737642, 6.9880354526958346)	(5.5235085660796575, -0.41903847939625827)	(-0.71349761814794732, -5.3740346564396368)	(4.5847221488317125, 5.0271976029480978)	1.0	slash	0.875404
24	M	B	B	A	A	N	M	N	A	8	1	shapes	B	4	False	130	(0.44439511431231793, 5.3373393502268165)	(3.1187001245812844, 8.5080908583768924)	(7.1796345813339411, -0.70586160469824932)	(8.102697513210618, -7.1166377919636901)	1.0	z	0.888563
25	M	B	M	A					M	4	2	shapes	M	4	True	130	(-8.4722035864855343, 4.3796085225837302)	(1.1894403330640895, 8.2472515617528508)	(-8.1598880598112586, -6.0743352898381424)	(1.0958851702048609, -1.9843517598538591)	1.0	z	0.550654
26	M	A	A	N	N	B	M	B	A	8	3	shapes	N	4	False	130	(-3.2123949753006782, -4.1022912154788447)	(-6.2331780372683427, -8.6766536569546933)	(7.7026586071492495, -1.2193591436129481)	(-5.6286919424746333, 8.3751325503242242)	1.0	slash	0.659922
27	M	B	M	N	A	N	B	A	B	8	6	shapes	B	4	True	130	(3.9965816755760084, 0.0029748013435835219)	(2.2251772615204661, -6.8493781258630921)	(-6.6734143762964777, 8.5578002807236118)	(-1.0201613943880998, 4.6664763711299457)	1.0	slash	1.3943
28	N	B	B	A	N	A	M	M	A	8	5	shapes	A	4	True	130	(2.7900603626542075, 1.4430436791149592)	(-6.0138509139197511, -6.8216671794302242)	(3.1444889105491391, -7.0387748558992858)	(6.6498557772470939, 2.843627258581483)	1.0	z	0.69987
29	N	B	M	B					M	4	1	shapes	B	4	False	130	(-7.5827971489473853, 5.1048487022370939)	(4.9651004323612344, 7.218580195126135)	(-1.2903994018495419, -8.5117938840729082)	(0.033881497214606426, -1.5542447800298165)	1.0	slash	0.812977
30	M	A	M	N	N	B	B	A	M	8	2	shapes	M	4	True	130	(-4.8242135108769855, -7.3944232705701776)	(7.1691810816404207, 6.009015059063076)	(-2.1234659087544436, 7.3914583572308636)	(-7.4933849881941619, 4.3693083053473369)	1.0	z	1.70779
31	M	B	N	B					M	4	0	shapes	M	4	True	130	(7.3069066388487407, -2.6806768250286908)	(-4.8976031607087345, 0.57928251849140189)	(-5.4981598604515423, -7.3249082660593636)	(0.92647969113235007, 4.770504654384867)	1.0	z	0.908058
32	N	B	A	M					M	4	3	shapes	M	4	True	130	(-1.6816428954653011, -1.5378214881886025)	(-5.9772181184983442, 6.3128161213658043)	(6.5668261111032624, -4.1098191765845797)	(4.4908249214626554, 1.2726621298942185)	1.0	z	0.624438
1	M	A	A	N	N	B	B	M	B	8	6	shapes	B	5	True	130	(-7.1015192430947369, -2.1779555526213299)	(-2.0828992235928094, -6.2074012023110434)	(-4.229319707921845, 3.6911541640722323)	(5.3451768734062206, -1.4440693304113834)	1.0	z	0.699297
2	M	B	M	N					N	4	0	shapes	M	5	False	130	(6.0028013085433027, 0.86961271356533487)	(1.4402061115704061, -1.3908819636634888)	(-5.5856711430345838, 6.8299877370067357)	(-8.1133732910272638, -8.3026123571743824)	1.0	slash	0.753337
3	M	B	M	N					M	4	0	shapes	M	5	True	130	(0.16700297219204785, 7.0816002357097361)	(5.9738559934168229, -7.2488152020356997)	(-7.4663141299592581, 1.8941951918817068)	(-7.6666236225892579, -4.1171970311748973)	1.0	z	0.875356
4	N	A	N	B	A	M	M	B	N	8	0	shapes	N	5	True	130	(2.1824600742129192, 5.2018398153708993)	(7.751167922081013, -5.2819729660670411)	(3.6803904748423033, -3.0830166685054845)	(-5.616426654574771, 3.1986299185649987)	1.0	slash	1.26112
5	N	B	N	A					N	4	0	shapes	N	5	True	130	(5.4170096161942922, -3.1500718692525762)	(-0.1876553578804554, 3.0995763313199802)	(-6.1979660811810993, -7.083323449989873)	(0.61043936835807244, 8.2335472685071025)	1.0	z	0.562026
6	M	B	M	A	A	B	N	N	B	8	1	shapes	B	5	True	130	(6.5546763642473547, 1.8466971256368581)	(-7.2565921502802926, -8.6679141806608957)	(0.33674870567286241, -7.5563347568223707)	(-0.81390652678659858, 6.3442047495119116)	1.0	z	0.780935
7	M	A	B	B	A	N	M	N	M	8	5	shapes	N	5	False	130	(-8.656224184399802, -2.4123816251338317)	(4.1562222235354849, -6.3015263112972342)	(-7.3583175172763342, 7.1742319596570798)	(-2.1143068362296544, 4.8051874365457188)	1.0	z	0.803297
8	M	B	M	A					A	4	3	shapes	A	5	True	130	(8.3373972933416489, -5.738050891925031)	(-3.2302608013547882, -1.6301663131602417)	(-1.1162037448797903, 2.524393499806191)	(3.1567073321087111, 3.5902530852045231)	1.0	z	0.578964
9	M	A	N	B	M	A	B	N	M	8	4	shapes	M	5	True	130	(4.1394932746552939, -6.73773117639292)	(0.41109206527643671, 5.5146544574423828)	(-6.9702597939279514, 2.1542879173476717)	(-1.7168524193049155, -1.0508459306699791)	1.0	z	0.968584
10	M	A	B	A					B	4	2	shapes	B	5	True	130	(-1.7800768930319357, 6.5094763359105503)	(6.8235134105861732, -1.4172738017483155)	(-1.3659826883796731, -4.6101563730705726)	(6.9092628673857153, 8.7260637465944804)	1.0	slash	2.50429
11	N	B	N	B					M	4	3	shapes	B	5	False	130	(0.095808130119980461, -5.4980125180049377)	(1.1802870408486328, 8.327135889473265)	(-6.8050064827290662, -8.0390904795162985)	(-4.5244757617707272, 2.1254099964811637)	1.0	slash	0.659784
12	M	B	B	M	A	A	N	N	N	8	7	shapes	N	5	True	130	(-6.912758481878015, 3.3356576368448749)	(-8.2245563916473579, -4.1017560422528057)	(-5.4884052894885027, -7.4787454807431928)	(4.9765037540245878, 8.6406175579490068)	1.0	slash	1.61234
13	M	B	A	M	B	A	N	N	B	8	4	shapes	B	5	True	130	(-8.3452773968741898, -4.9767452611161112)	(5.0211995848582003, 3.0056434493489359)	(7.9507532197560593, -1.4757698924000007)	(-8.7265475631449032, 0.51966756173710671)	1.0	z	1.40307
14	N	B	B	N	M	M	A	A	B	8	5	shapes	M	5	False	130	(4.4951750305809206, 2.3696152982445309)	(4.3040859420448907, 6.5224190707298852)	(3.4893153504360619, -2.4811649659768396)	(-2.0721386958881078, -6.8810270987456228)	1.0	slash	0.882613
15	M	A	A	N					N	4	0	shapes	M	5	False	130	(-2.0472797271289052, -3.2595076630733359)	(0.94815098503138806, 7.6334731816336223)	(7.3096476121876321, -2.217748764853634)	(-5.2384842821486641, 3.5724916787928773)	1.0	z	1.09018
16	N	A	A	N					A	4	1	shapes	A	5	True	130	(-6.0531705520268932, 5.7759972826007235)	(2.1179270790120324, -5.4243458387566932)	(4.1401160909544412, 8.4616851581183141)	(-6.5543314711620528, -0.050626907215209016)	1.0	z	0.657861
17	M	B	A	N					M	4	3	shapes	N	5	False	130	(4.2539220672055578, -7.5404675933791658)	(-4.3219163124714308, 1.7276623730272611)	(2.5902473751573432, 2.6096639669908015)	(-7.0875263078658826, -7.5547394887561996)	1.0	slash	0.779551
18	M	B	A	M	N	B	A	N	B	8	4	shapes	N	5	False	130	(5.0150110456465669, 2.7848136971920621)	(5.7484751042037772, -5.8689471261754278)	(0.71359522729948921, 4.7039183972478487)	(-3.5812923996927246, 8.4115876579706566)	1.0	slash	1.12926
19	N	A	A	M	B	M	N	B	M	8	2	shapes	A	5	False	130	(-0.31271822298764285, 1.9018168669147038)	(4.6697133090525504, -3.2714136533719884)	(-5.4501009356087478, 8.2867038334815923)	(7.9728999752696232, 4.609225802713949)	1.0	slash	0.629727
20	N	B	M	A					N	4	1	shapes	B	5	False	130	(3.4487731278101617, 3.8622352772254445)	(4.7171824759893379, -4.8624713066183824)	(-7.0431288879698073, -8.219656485321952)	(-3.2771605004543094, 5.5663029175064196)	1.0	slash	0.804444
21	N	A	A	B	N	M	B	M	A	8	3	shapes	B	5	False	130	(-0.03495511208711477, -4.935009439421906)	(5.6265039655368874, 3.4732396964313423)	(-7.4718341565136557, 2.4247939810367924)	(-5.7429301353322115, 6.2130627584088707)	1.0	z	0.762509
22	N	A	N	M	B	A	B	M	B	8	6	shapes	B	5	True	130	(-4.1893953316104184, -2.3887238675783244)	(-5.4489318637679869, 6.4717136218331337)	(3.1011662663676702, -2.0910198676672138)	(8.674848127980443, 2.9621352193001247)	1.0	z	0.733943
23	M	B	M	A					M	4	3	shapes	A	5	False	130	(2.5721143492779888, 1.5405963232435447)	(-3.9244539415502731, 5.493705092625385)	(-4.3068896273070703, -3.83275344095264)	(0.66808276774016306, -5.2509227527158817)	1.0	slash	0.83657
24	N	B	A	M					A	4	2	shapes	A	5	True	130	(-3.0196518980713778, -7.8712820218101944)	(-3.6458347879160753, 7.9966091659345011)	(3.1302397474726238, 8.5586640524154838)	(1.8088786268326764, -5.3722712377028774)	1.0	z	0.625117
25	M	A	A	M	B	B	N	N	N	8	6	shapes	N	5	True	130	(4.6796671175682825, -0.39265986243521489)	(8.4274348029253723, 2.2628220952119484)	(-4.8502834937490231, 5.0988976912617439)	(-8.7033817662056094, 2.8766869424926931)	1.0	z	0.756876
26	N	B	N	A					M	4	1	shapes	B	5	False	130	(1.0739887585691434, 2.659622808214495)	(1.481784965301042, -5.9907373085053353)	(-4.0073173842353906, -0.049349331340835079)	(-1.7948277283851812, 5.5761081937471335)	1.0	slash	0.660954
27	M	B	B	A	N	M	N	A	A	8	1	shapes	B	5	False	130	(-6.1345146669102242, -3.2746557778538632)	(8.4584575714731969, -3.1161736442951131)	(-3.2102423575169352, 6.2354610816988529)	(2.2511082571027359, 7.2406161581525179)	1.0	z	0.650175
28	M	B	N	M	A	B	N	A	B	8	2	shapes	N	5	False	130	(-5.5387877431728247, -6.1717326302578215)	(0.70725290105555771, 6.0175482565961751)	(4.8325358468972937, 2.7416572914018253)	(7.7583863836712332, -4.2343677198230711)	1.0	slash	0.626381
29	M	B	N	A					B	4	1	shapes	B	5	True	130	(-2.0773286609923716, -8.7355881269839752)	(-4.6109601321835525, 3.6406879848310982)	(5.1793636581243963, 3.0541302601231752)	(3.7204855965980901, -8.5993363585999241)	1.0	z	0.782137
30	N	A	A	N					B	4	3	shapes	N	5	False	130	(5.3728236781645542, 1.7390906207559844)	(-5.8931841060880927, 4.8338935557078742)	(-4.2676659857589723, -4.2347919432621639)	(5.1576708521169703, -5.8662312635098797)	1.0	slash	0.53736
31	N	B	N	B					B	4	3	shapes	B	5	True	130	(0.25177324751523678, 1.8995091116500333)	(-0.18352068453275194, -6.5396352329937812)	(-4.3323040684837002, 2.6631161950470332)	(5.5953216827097663, -7.679009522994507)	1.0	z	0.790836
32	M	B	M	B	A	A	N	N	M	8	3	shapes	B	5	False	130	(4.7025445645646951, -3.3598388847879583)	(-0.092258439202558051, -2.0744318627172342)	(-4.8529596740421077, -7.4301269730542483)	(2.5561164557928713, 4.3451099750717574)	1.0	slash	0.696564
1	M	A	M	N	B	B	N	A	M	8	5	shapes	B	6	False	130	(-5.8897235719336196, -3.4642532038149003)	(6.864774701542963, 6.5888100568172998)	(-1.6961656852223088, -3.9332182567965255)	(-6.6928104824431518, 2.873186115661845)	1.0	z	0.861834
2	N	B	B	A	M	A	M	N	N	8	4	shapes	M	6	False	130	(-2.6593530279558397, 6.5105329338294062)	(1.3080846322697148, -8.2897632897811047)	(0.18817517123801331, 2.0484306971697244)	(7.6654553093343161, -3.5905381575504807)	1.0	slash	1.23391
3	N	A	A	M					M	4	2	shapes	A	6	False	130	(7.8969709997504296, 3.9726665587884469)	(-5.4816759312227994, -2.6564245519808214)	(-6.7970008481083291, 6.681764531867163)	(5.3658728870058354, -4.6470372085910068)	1.0	slash	0.883326
4	N	A	A	B					N	4	3	shapes	B	6	False	130	(2.1458531523626299, 6.2197709271811199)	(-6.8688995895304252, -6.2091083854019553)	(3.0906966279166941, -8.2463984929543326)	(-0.28654693882169546, 1.9806890332825056)	1.0	slash	3.55424
5	M	A	A	N					A	4	2	shapes	A	6	True	130	(6.9108481166203823, 2.0484758423268588)	(3.4863617939688964, -4.8140534313177152)	(-0.19978035708722963, -1.4622764942802107)	(-4.3092178365154092, 6.6960432867708732)	1.0	z	1.31719
6	M	B	N	N	A	B	M	A	N	8	2	shapes	N	6	True	130	(-6.8294159391545222, 6.7467938105736334)	(8.5992627506382746, -5.6613698923470048)	(-1.0969514698953899, 0.38616467761925932)	(4.4649613329076754, 2.353566583073226)	1.0	z	0.800785
7	M	A	N	N					M	4	0	shapes	M	6	True	130	(-2.2453476490144268, -8.0741715227611444)	(3.119783942562492, 2.3329542168641559)	(6.2308252977094281, -5.0821000682259623)	(-7.6512546822475729, 0.18383450099496912)	1.0	z	1.10634
8	N	A	B	B					B	4	0	shapes	N	6	False	130	(-2.3025117861751729, 0.50392521870308649)	(-2.4720762043286166, -5.5600338835887886)	(1.5321652171599709, -1.6145861581912238)	(7.6922265012320494, 0.30008955678014892)	1.0	slash	0.597848
9	M	B	N	M	N	A	B	A	B	8	0	shapes	M	6	False	130	(4.6301830017278416, -3.1329501786598364)	(2.120735837837934, 2.6882681808415398)	(8.524394232911078, -8.6552590296547383)	(-3.6699298815239594, 7.9972631558071257)	1.0	slash	0.783601
10	M	A	N	A					A	4	3	shapes	A	6	True	130	(-8.7132340186531927, -5.5478212843306531)	(7.0245259126451227, 7.0404891890000592)	(-1.7092837585971017, 1.0310609646100932)	(6.9985665605450649, -6.3184654374393823)	1.0	z	0.795307
11	N	A	B	A					A	4	0	shapes	N	6	False	130	(-0.31779974419321277, -6.631008366626733)	(5.683754207105288, 8.7436379360203276)	(5.6314448341790158, -0.86439271753490932)	(-0.80813889501491865, 4.6017786460052399)	1.0	slash	0.6377
12	M	A	N	N					B	4	3	shapes	N	6	False	130	(-8.0929000689017041, 8.569063316358406)	(8.0382064959119148, -0.36861163866550051)	(2.3899845781765805, 6.8816501143344908)	(-8.4423173183121314, -4.1961672665906065)	1.0	z	0.588782
13	M	B	B	M					N	4	1	shapes	B	6	False	130	(-1.2005912125959561, -6.3613644674916534)	(-0.60181850160394035, 1.7147946589654293)	(5.3760856813851419, -6.3567417783176605)	(8.656740165822022, 4.3728864627953392)	1.0	slash	0.710964
14	M	B	B	A					A	4	2	shapes	B	6	False	130	(-3.8859025439803263, -6.5295651907785324)	(6.0628293811048284, 5.2336039243509287)	(5.2989995669906733, -4.8547320067352722)	(-7.4216304180105732, 8.435825208171579)	1.0	z	0.872109
15	M	B	M	N	B	N	A	A	B	8	6	shapes	A	6	False	130	(2.8592195360510857, 5.9171092237239158)	(-0.48134847497662392, 1.3566365567241281)	(-4.6493711437002911, -1.421808360622987)	(-6.3603072593083052, -6.2942595801675703)	1.0	z	1.1394
16	M	B	B	M					B	4	1	shapes	B	6	True	130	(-4.8544311630451453, -4.6661238907445846)	(5.8113684995652815, 4.3640701706175467)	(-6.4994065077769196, 6.2255480030173516)	(8.5932813000866517, -2.289763087025257)	1.0	z	0.985682
17	M	B	M	A	N	A	N	B	N	8	6	shapes	N	6	True	130	(7.5991618428730163, -5.8871699357241987)	(-6.5568258636650913, 5.1394054154629583)	(-5.7532662202372453, -4.6985523146102963)	(5.6008982972848997, 2.2513594580207563)	1.0	slash	1.26454
18	M	B	B	M					B	4	2	shapes	B	6	True	130	(-5.37040838913118, -1.9606385888009976)	(2.3890163068391566, -4.1269401241797548)	(2.5044584274137627, 7.9969552141464462)	(-8.2070863428013432, 3.6458977230133609)	1.0	z	0.778628
19	M	B	B	A	M	N	N	A	M	8	0	shapes	M	6	True	130	(-2.4476064674499227, 0.62051151253532133)	(3.1139019539419532, -5.0507219609654666)	(7.2458507853058833, -0.26620329093065109)	(-2.964333114705008, -7.8128882108413249)	1.0	z	0.749307
20	N	B	A	B					B	4	1	shapes	B	6	True	130	(5.6212643117114087, -0.059271708146612312)	(-1.7582678993384686, 6.4164297602105229)	(6.9312385622474952, 4.2978939333867974)	(-8.233224228163694, -6.1345438062286419)	1.0	z	0.882419
21	N	A	M	M	A	B	B	N	B	8	6	shapes	B	6	True	130	(-1.9846521005031317, 7.8819485061697989)	(-8.3552079166921658, -2.1302952885554332)	(-5.9438323525561518, 5.9952372158381806)	(2.8736685095294945, 6.8015087635798999)	1.0	slash	1.05112
22	N	B	A	N	B	A	M	M	N	8	5	shapes	A	6	False	130	(6.9487716619397339, 3.4590501823219721)	(-1.4488896165147924, -6.9107379141113299)	(-3.4866333701553787, 3.320970298420999)	(-6.0105131290399614, -6.1571072247294794)	1.0	slash	0.913112
23	N	A	M	M	A	B	N	B	B	8	0	shapes	N	6	False	130	(-4.3664637636320949, -6.1026805779284832)	(-0.45792983091762629, 8.0872574389766783)	(7.958709035521963, -0.13751805397625994)	(8.2388321091011889, -7.774580916580442)	1.0	slash	1.06073
24	N	B	B	A	N	M	A	M	A	8	1	shapes	B	6	False	130	(-1.4292937825887932, -2.8036565134981757)	(3.2087095684265883, 1.7979113231524071)	(7.3635753947712281, -4.0172648800707647)	(-8.3668131647979074, -0.3316954211290124)	1.0	slash	0.834518
25	M	B	N	B	A	A	M	N	B	8	0	shapes	M	6	False	130	(-7.3760393877699792, -6.3278438756478241)	(5.6632827400058048, 5.4395802619302192)	(-4.5784905905487259, 8.2163881972488184)	(4.992659703764911, 0.21826870004692189)	1.0	slash	0.780081
26	N	A	A	M	B	M	B	N	M	8	3	shapes	M	6	True	130	(-4.6746623447910185, 5.4697977168970038)	(8.2880257512569422, 2.8163246379305509)	(1.1220420940607827, -6.3739528625444288)	(3.8035518614201305, -2.8483163883568778)	1.0	z	1.87374
27	M	B	M	N	B	A	N	A	A	8	7	shapes	A	6	True	130	(3.0172316400014569, 3.5421312524633084)	(-8.6794673239755813, 2.7648114364345577)	(-2.8119668198328345, -1.5238578549643504)	(-3.3198163715672262, 2.9670729161864795)	1.0	z	1.12512
28	N	A	B	B	N	M	A	M	N	8	4	shapes	N	6	True	130	(3.8480178526718287, -8.2071820852761164)	(-0.30504989589412723, 2.8976670530486324)	(-7.8167059101871494, -0.51694585629201839)	(5.7874205500110527, 1.8476190125885434)	1.0	slash	0.951029
29	M	B	B	N					N	4	0	shapes	M	6	False	130	(3.2624123443121054, 4.2761426744285487)	(-6.9285503675600504, 4.0869697191990877)	(4.5291191246180276, -2.056839110050575)	(-2.6030779154831887, -2.5499020985238587)	1.0	slash	0.906525
30	N	B	B	A	N	A	M	M	B	8	1	shapes	B	6	True	130	(3.8603030567921923, 6.9619949190646686)	(5.3733424346267729, -7.9382469915872527)	(-0.15789323293357249, 0.15180961075189536)	(0.94378497400829175, -6.7394217627403661)	1.0	z	1.8949
31	M	A	N	A					M	4	0	shapes	M	6	True	130	(8.4610718666900695, 0.89406116120751378)	(3.8629671356561666, -7.5224969527041736)	(-8.4433676759573473, 1.9434490006082896)	(-5.6560058531803303, -7.4647534398004822)	1.0	z	0.964072
32	M	A	M	N					A	4	1	shapes	A	6	True	130	(-3.2764987687097271, 2.9469861787805591)	(4.8290879854949136, -6.1383180271413789)	(1.4574823047754855, 3.543751169593012)	(-5.8193543972708364, -5.7859902113843482)	1.0	z	0.933445
1	N	B	A	B	N	A	M	M	B	8	3	shapes	B	7	True	130	(-4.6736078241375401, -0.22137562374585329)	(4.8781716576630334, -5.5706796777290002)	(6.2828625561052149, 6.4253663612715677)	(-5.0359315798928677, 3.9067189280811832)	1.0	z	1.36171
2	M	A	B	M	N	N	B	A	M	8	0	shapes	M	7	True	130	(7.5644255570884056, 2.1429082245925404)	(-0.21445898504297745, 6.9810902130797619)	(-7.1327390855220489, -8.3502336567007109)	(-3.2162439369408746, 3.1063678291097965)	1.0	slash	1.54667
3	M	A	A	N	M	B	N	B	N	8	0	shapes	M	7	False	130	(-3.4086743881871957, 7.7033763200318184)	(8.3169625547757526, -1.0377478770816619)	(-5.5340408331910762, 1.5257038218960677)	(3.4399039378065517, -8.3329595451478564)	1.0	slash	1.27207
4	N	B	N	A	M	A	B	M	M	8	4	shapes	M	7	True	130	(8.6742275944861049, -5.6315882000762914)	(-5.5538210041717004, 0.72994535205335787)	(-8.3802949123907347, 8.3472548933990254)	(0.91576922154872165, 1.7423169289414169)	1.0	slash	1.23159
5	N	B	A	M					B	4	3	shapes	M	7	False	130	(5.8608459869051952, 3.221645695259852)	(-2.635077565196287, 6.8367407002082103)	(-5.9065181374621707, -1.6912300736912762)	(2.6750854703828839, -8.5196302033855247)	1.0	slash	0.994709
6	N	B	M	A					M	4	3	shapes	A	7	False	130	(-4.1598033018220617, -3.7445713540360765)	(-0.023166640061203836, 7.9116565728943371)	(3.3792918076396017, 5.3001624103437646)	(2.3930605561110383, -5.7792431201750549)	1.0	slash	0.666402
7	M	A	N	B					N	4	2	shapes	N	7	True	130	(2.8103266576496999, -1.8405351818277635)	(-6.9599848363391246, -5.0387352548531785)	(-8.0368658697664905, 4.9439742172272325)	(5.9123891861842264, 6.8008318349811923)	1.0	z	0.60666
8	N	A	M	M	B	A	N	B	M	8	2	shapes	M	7	True	130	(4.9873638612983964, 6.0049268716479496)	(5.7448613480132309, -5.6616237230973958)	(0.48249263181910251, -7.4664378857840594)	(-2.6436623907243684, 7.9271527197537139)	1.0	z	1.6623
9	M	A	A	B					A	4	2	shapes	A	7	True	130	(-0.29489705615682738, -8.0959730919335193)	(6.6666346358344466, 0.53463551074292859)	(-7.3182946174040415, 0.61264283733576974)	(3.4674019578123332, -6.3760458732333563)	1.0	z	0.931362
10	M	A	A	N	N	M	B	B	A	8	3	shapes	N	7	False	130	(7.0038871545734942, 5.7102344326825385)	(-1.0473045038180917, -2.2751136940865671)	(0.41579229257402162, 3.3611445117916183)	(7.0568872657705626, -5.4326180953073946)	1.0	slash	0.621442
11	M	B	N	N					B	4	1	shapes	B	7	True	130	(6.0798230006218414, 3.4803119446478128)	(-0.34295439129519245, -8.3220542862386999)	(4.7644164839466239, -5.2808796471230313)	(-0.61777229000120393, 7.4826148951517126)	1.0	slash	1.09674
12	M	B	N	M					B	4	1	shapes	B	7	True	130	(7.8146246377383655, 1.1798940191946858)	(-0.01601277148244229, -1.9201972382060948)	(-1.3617939104408476, 5.3580024405541984)	(5.4947972060736383, -5.5959105550239734)	1.0	z	0.766841
13	M	A	M	N					B	4	0	shapes	M	7	False	130	(7.5440546971774047, 1.6935557740472742)	(2.7586954035133662, -3.3147426751052755)	(-4.2406337707008035, -3.0424747991890131)	(-8.4731824437792334, 1.7462797193645212)	1.0	slash	0.739947
14	M	B	N	A	A	M	N	B	B	8	4	shapes	A	7	False	130	(-7.6122822810317414, -0.40414154667212721)	(-3.3685094604956412, -0.79261977629850922)	(-6.8131703071545129, 7.3762602910529402)	(2.7908651090085002, 6.3504872863251638)	1.0	z	0.977306
15	N	A	B	M	N	M	A	B	B	8	4	shapes	N	7	False	130	(5.2379512682941805, -3.224243872263127)	(-0.34849483057713826, -5.8606482300071798)	(2.5726524557784956, 5.6971605231469145)	(5.47749386594597, 2.2007949774480657)	1.0	slash	0.625144
16	M	A	N	B	A	N	B	M	A	8	4	shapes	A	7	True	130	(-7.8664771848246371, 0.27026953432869583)	(7.4418993702059772, 4.8834971313864877)	(4.2149477191731819, -5.3112534646520642)	(-2.2964216446914962, 4.6955108495962499)	1.0	z	0.772854
17	N	B	B	A	A	N	M	M	B	8	1	shapes	B	7	True	130	(-6.9192253511945845, -0.75063479952138934)	(-2.4048493657604135, 5.9289985893359418)	(-7.8180691957022583, 6.8358335023603125)	(3.6270146701362442, -3.720455661597283)	1.0	z	1.04255
18	N	A	A	M	B	M	B	N	M	8	7	shapes	N	7	False	130	(-0.412688180054122, -1.0509572056405041)	(8.27352439484293, -3.5758556118307805)	(3.078752441966186, -5.0051940919983977)	(-2.6816399915866649, 3.7606902314644337)	1.0	slash	1.06777
19	M	B	M	A					A	4	3	shapes	A	7	True	130	(0.35426622528540186, 7.9600156370081478)	(0.91069048200306568, -2.4656284749503898)	(-5.425495675806423, -2.3553104077213742)	(-1.6831441101413178, 2.114406117503238)	1.0	z	0.733718
20	N	B	A	B					A	4	3	shapes	B	7	False	130	(-8.2535758932728651, -3.2743762897555921)	(5.5332419440872549, -3.0170223780621432)	(-4.0893287556430709, 5.4587984754499601)	(1.3179138344372507, 0.01725779210113032)	1.0	slash	0.637267
21	M	B	M	A					N	4	0	shapes	M	7	False	130	(0.30732885842408919, -7.5568095954138172)	(-1.5471582802725203, -0.82917180162425819)	(7.7554152879401883, 1.2185770768549542)	(-2.7352362963928449, 3.3095139300785963)	1.0	z	1.1513
22	N	A	M	A	B	N	M	B	M	8	4	shapes	B	7	False	130	(-8.3340970434290362, -4.1292289168205176)	(8.3824750979813381, 7.3068350711013288)	(7.301541044885095, -1.6840942812870647)	(4.0614164804736976, 1.7102712184958548)	1.0	slash	0.821202
23	M	A	N	M	N	B	B	A	A	8	7	shapes	A	7	True	130	(-1.2126638619790002, -5.4767839625436956)	(-0.78352398705234894, 5.7205593472982574)	(7.0199586369930422, -3.545823965254093)	(3.4936430867526269, 1.5963674544122153)	1.0	z	0.80198
24	M	A	A	B					A	4	0	shapes	M	7	False	130	(3.9987198631884553, -6.5305668324359338)	(-4.0052567536061963, 7.5424143756594937)	(5.5815201922851312, 4.026288717964233)	(-5.3263100472774045, -7.9506990714920365)	1.0	slash	0.583821
25	N	B	N	B					B	4	0	shapes	N	7	False	130	(-0.18310300158648474, -8.6423976196304064)	(-3.0535048438911785, 7.2515993517193813)	(8.7135649892344027, 5.4488514423606276)	(6.9989214591941451, -5.5684703029772855)	1.0	slash	0.635657
26	M	B	N	A					A	4	2	shapes	N	7	False	130	(-1.7293346171313368, 8.5223904230470708)	(5.750675170906792, 8.3470873123961944)	(8.6765069687502496, -1.3938118390234351)	(-3.2505604823313208, -6.9885603986223277)	1.0	slash	0.717415
27	M	B	B	N	M	A	N	A	A	8	0	shapes	M	7	False	130	(7.4812333883308391, -6.8815825385430482)	(8.0387649202833487, -2.3900335094168161)	(-4.8284929609592577, -7.5062098311570846)	(-6.2077079926325425, -2.6883066623989151)	1.0	slash	0.633457
28	N	B	M	N					N	4	3	shapes	N	7	True	130	(-8.7038227098578105, 2.5387562237757901)	(1.3897280677662671, 0.21601752498810356)	(-2.2493442279554721, -4.1335565691867826)	(6.0413868615880428, -6.324375417522174)	1.0	z	0.850703
29	M	B	N	B					B	4	3	shapes	B	7	True	130	(-0.77807384472624985, -8.1616669356415485)	(5.9958166032392146, -8.4592319836730603)	(3.2543065840437748, 6.3176291351161105)	(-1.5623276367099868, 4.1623047014316157)	1.0	slash	1.65841
30	M	B	M	B	N	A	N	A	M	8	0	shapes	M	7	True	130	(1.8258639351705206, 0.62855689182391572)	(4.660240997273597, -3.9215622904569303)	(-0.67797265790642847, 4.3433009971783356)	(-2.6471820475997507, 0.6029851522941847)	1.0	slash	1.11991
31	M	B	N	B					B	4	3	shapes	B	7	True	130	(-2.674049836273297, 2.8915953814286155)	(8.5991163681763716, -1.5831924448125454)	(-6.9188106881141849, -1.6437513058762772)	(6.5306717294053342, 4.3858052392704696)	1.0	z	0.817705
32	N	A	B	N	B	A	M	M	N	8	7	shapes	M	7	False	130	(-4.2373948838077391, -3.8685637540895108)	(4.6222330879710825, 1.5696936058613993)	(1.6584355693411332, -7.6702556293992092)	(-8.1725564321392898, 3.7750692027451862)	1.0	slash	0.63916
1	N	B	B	N					M	4	2	shapes	B	8	False	130	(-4.3517507825406936, 0.62759974837273091)	(6.6593926124056217, -4.2252612034606338)	(2.3779138429057127, 6.5221823011505116)	(-7.6250318056951309, -3.8705648703355013)	1.0	slash	0.73294
2	M	A	A	N					M	4	1	shapes	A	8	False	130	(4.334659545776308, 3.0211003137674375)	(-3.9620266539165314, -0.64458743306202848)	(-8.2933788424356827, 2.9776592504482196)	(5.7760057133113758, -3.3751715232783095)	1.0	slash	0.778537
3	M	B	N	N	M	A	A	B	M	8	5	shapes	A	8	False	130	(-5.9680118652063339, -7.6091447774065646)	(4.8874746450245254, 3.0179010026682054)	(-7.1793101469220062, 0.26713166363427021)	(-3.1763070256104662, 2.7204053023706116)	1.0	slash	0.76011
4	N	B	A	N					M	4	1	shapes	B	8	False	130	(0.89774191360971223, -4.7627313449390414)	(5.3245360790734253, 4.0538479942991703)	(-6.3884358835224155, 6.3211447492406574)	(-0.76694315874606378, -1.1016913716054928)	1.0	slash	0.729827
5	M	A	B	N	M	N	B	A	M	8	0	shapes	M	8	True	130	(-3.1365161684770912, -0.39459736367802378)	(6.2420233222278512, 0.85104556424162148)	(7.8505603984741725, -6.0812626191456953)	(0.0078810018462025511, 7.7133155121519295)	1.0	z	0.806012
6	N	B	A	M					B	4	1	shapes	B	8	True	130	(-3.4403711626942579, 4.0874416480526445)	(2.8660229612829902, 0.64263239395031846)	(-5.4153412941286145, -3.2692062783014668)	(7.2281726368382078, -7.3815977004116196)	1.0	z	0.716972
7	N	A	M	B					B	4	2	shapes	M	8	False	130	(4.5064753931605104, 5.6190915245573354)	(-1.7544738196068712, 2.3595704626075307)	(-0.84670285003178503, -4.1591343974086659)	(6.8996802356556373, -1.5007322962375698)	1.0	slash	0.581016
8	N	A	A	B	N	B	M	M	A	8	6	shapes	M	8	False	130	(-5.428944691396941, -5.0477493997541893)	(-2.1868881873515083, -1.6607851568105207)	(7.1953366072767491, -5.7598118032786783)	(4.2833485408774461, 0.39133509308333636)	1.0	slash	0.704399
9	N	B	A	M	B	N	M	A	M	8	6	shapes	M	8	True	130	(-3.2773917818676566, 3.1606765515227089)	(-3.3449386795228238, -5.4290635981556736)	(2.7352314818467249, -0.15291080095248866)	(-7.0210427575314442, 4.9909226835481491)	1.0	z	0.814565
10	M	A	M	A					M	4	2	shapes	M	8	True	130	(7.2235897387490695, -3.3389440376260886)	(-2.2819429617600395, -3.7202928241311977)	(-1.4610530040339773, 0.24850911014480914)	(1.5038031878608429, 4.0849550214091668)	1.0	z	0.644327
11	M	A	B	A	N	N	B	M	B	8	3	shapes	A	8	False	130	(6.1216641579658031, -0.66170199734112423)	(-2.9555161996054569, -3.0622219437659597)	(2.7088320527716192, -6.265035739504965)	(1.0780500614528865, 4.4294815070674662)	1.0	slash	0.54897
12	N	A	N	A	M	M	B	B	M	8	6	shapes	B	8	False	130	(2.0823061437313815, -6.4191597324967749)	(-5.7637020579233056, 3.0543524295152675)	(8.1956285483025191, 5.6567073422439407)	(4.1120579270839865, 4.9268965473980941)	1.0	slash	0.898179
13	M	A	B	A	B	N	M	N	M	8	2	shapes	B	8	False	130	(3.0839131637274644, -0.48406582104377982)	(-7.1978079246989104, -6.0049199601112129)	(3.8591666471404356, -8.1509300250317196)	(-1.1895108807120014, -2.6785489550182024)	1.0	slash	0.608059
14	N	B	N	M	M	B	A	A	N	8	6	shapes	A	8	False	130	(-1.8840595452383866, -6.9299461385343823)	(-5.8787095293022311, -3.2157276849080052)	(-1.1639245102406495, 0.1497138621634857)	(-2.7526678620760565, 6.0472022410294688)	1.0	slash	0.678908
15	N	B	N	B					B	4	3	shapes	B	8	True	130	(-3.8581467708985491, -3.174323985545568)	(-5.5594326657491733, 1.2395455077488009)	(5.757480271387502, -7.6457413656739295)	(7.0442050789095809, 7.6702619610319012)	1.0	slash	0.921154
16	M	B	N	M	N	A	A	B	B	8	2	shapes	N	8	False	130	(-8.6290455888370712, -6.983857929333583)	(-6.2400019456788529, 4.3236300965723391)	(7.5759561692148871, 2.3681542353573999)	(7.2753368075213558, -7.6150305721865941)	1.0	slash	0.732322
17	M	B	N	B	A	A	N	M	B	8	3	shapes	B	8	True	130	(1.5153366878886878, 1.4821876186465168)	(-3.6571117258633397, -3.419041525811382)	(-6.8532026672968849, 4.8502636589962318)	(7.3668269377677333, 6.8516920182664478)	1.0	z	0.702504
18	M	B	A	B					M	4	0	shapes	M	8	True	130	(1.8093712500193568, -5.8843445102572698)	(0.60771374279375223, 8.3861002495536638)	(-8.3570746205801836, 6.1534209260730588)	(-3.8897657666165628, -8.3410829987932456)	1.0	z	0.753309
19	M	B	M	N					N	4	3	shapes	N	8	True	130	(-3.1316384661651187, 6.5221188063443449)	(-8.3155218200248324, -6.0697846092898864)	(5.5742257691368504, -5.3722526751944777)	(7.7374574550833159, 2.9074308527548069)	1.0	z	0.661664
20	M	A	B	M					B	4	3	shapes	M	8	False	130	(5.9823720823283395, 3.7181952117099666)	(7.7123976467727537, -4.946377647952386)	(-8.2673002400010507, -5.5534827404820364)	(-1.0330149197247778, 6.4857552855189073)	1.0	slash	0.77942
21	N	A	B	B					A	4	1	shapes	A	8	True	130	(1.3432429440176392, -5.5689393346904783)	(1.5714646532952976, 6.7750831519723604)	(-4.4390189644564506, -2.846070480895686)	(-6.3867354643172582, 2.9035195685378064)	1.0	z	0.672645
22	M	B	M	B	A	N	A	N	N	8	7	shapes	N	8	True	130	(-4.9055892420324438, 6.5522173966665189)	(1.7695479315133547, 1.4688861163846347)	(1.7507206850131514, 8.4170318974728815)	(3.6377783883024168, -6.5923977599028447)	1.0	z	0.730272
23	N	B	A	N					A	4	2	shapes	A	8	True	130	(1.1774016832415928, -2.8457690158155797)	(-7.9227916314036335, 8.2042901785584661)	(8.0626361567246008, 2.5615277266333365)	(-7.6685025930097659, -8.5656988618181984)	1.0	z	0.593729
24	M	B	B	M					M	4	2	shapes	B	8	False	130	(-7.4135152619719991, -0.24809396404633333)	(0.7008543327560286, -6.8172180352359195)	(5.1206375669679893, 1.9781904706779603)	(-7.9549189171694117, 8.3515311906052752)	1.0	slash	0.577601
25	M	A	M	A					A	4	0	shapes	M	8	False	130	(5.6849547227521331, -6.0887292423950878)	(0.9659374936378704, 2.481180212381572)	(-2.3807883245139045, -2.551643634768876)	(-5.1458327144250937, 7.6539168449547255)	1.0	slash	0.752972
26	M	A	A	M					A	4	2	shapes	A	8	True	130	(-3.8564979419826955, -8.3257833532105163)	(0.10574828304006978, 8.6748117529814301)	(-7.3050602741108506, 8.2683831591795744)	(5.6271711129254616, -8.7201030129494139)	1.0	z	0.790714
27	M	A	A	M	B	N	N	B	B	8	4	shapes	B	8	True	130	(-1.8265473015377474, -3.3781729215582548)	(-3.2143192692400744, -8.656883355311102)	(1.4228174741417305, 1.8573096190230522)	(-5.2455721206214703, 2.9696731479468568)	1.0	z	1.1952
28	M	A	A	N	B	M	B	N	B	8	2	shapes	A	8	False	130	(-4.0704900208221906, 5.277613275293767)	(-5.7881981760076187, 0.41650774753296638)	(3.2451831896175829, 0.90592904597628809)	(-3.5129548982102854, -8.7153014539843028)	1.0	slash	1.12676
29	N	A	N	A	B	B	M	M	M	8	6	shapes	M	8	True	130	(-3.9975056902148438, -0.90320435040909963)	(4.386090900392059, 5.7914828338882831)	(-1.7228962204462581, 5.5651239558861239)	(-6.3710819172831687, -4.1546905068458635)	1.0	z	1.13374
30	M	A	N	B					A	4	3	shapes	B	8	False	130	(5.3466605217963661, 3.7948287338597968)	(-5.2452710808776324, -3.5986685186973402)	(4.094493209207215, -1.734396530509799)	(-0.44160018694298486, 2.7190086269841096)	1.0	slash	0.699456
31	N	B	N	B	M	A	A	M	A	8	6	shapes	A	8	True	130	(-8.1307296635920263, -8.136349351713573)	(7.3317494985476515, -4.8772273518276261)	(-6.0880806469856221, 6.0298510055802268)	(8.514272527607023, 8.3330043860434344)	1.0	z	1.60962
32	N	B	M	B	A	A	N	M	A	8	4	shapes	A	8	True	130	(6.3229577145026621, -6.3292445141027143)	(2.9719383621128941, 7.7324128001381034)	(0.075628493452603252, 4.686829874054018)	(0.5205229571585015, -2.287694466992062)	1.0	z	1.16019
