TrialNumber	stim0	stim1	stim2	stim3	stim4	stim5	stim6	stim7	stim.probe	ttl.stims	corr.num	trial.type	stim.corr	block	match	Subject	stim.pos0	stim.pos1	stim.pos2	stim.pos3	ran	resp	RT
1	M	A	A	B	N	M	N	B	N	8	6	shapes	N	Practice	True	131	(0.59004576604330161, -1.1924039549382996)	(-6.6683194511281396, 7.6436098617126547)	(-4.2047059667451787, 0.9008965117543255)	(-1.2738258093366568, -7.9728466117744663)	1.0	slash	3.33244
2	M	A	A	B					A	4	2	shapes	A	Practice	True	131	(-1.3766446186638142, 2.4719386190182906)	(-7.1390329260566361, -3.3940708681851524)	(4.8348488199053534, -5.2661982457603322)	(8.5846035485584231, 3.1323580768157502)	1.0	z	2.82664
3	N	A	N	B					N	4	0	shapes	N	Practice	True	131	(2.6802339757365186, 2.6674680780702804)	(-1.024364294724168, 0.19723915033279837)	(-5.0017786882793924, -3.5214157162185362)	(2.6110207331975666, -7.6952072761860633)	1.0	z	1.05419
4	M	B	A	N	A	M	N	B	A	8	6	shapes	N	Practice	False	131	(3.7333652483540671, 5.0325155943331215)	(-1.173410862656449, -5.7255322681325698)	(-6.0815717143778638, -8.5031592364410731)	(-6.8088877090771547, 3.495830710751159)	1.0	slash	1.25325
5	M	B	M	A	B	N	A	N	N	8	7	shapes	N	Practice	True	131	(5.2095630332305785, -2.4055743354699528)	(1.4058018757861266, 4.9105002087560656)	(-5.0804963935129166, 2.2022071219571639)	(-8.365379277807607, 7.1024925601301661)	1.0	z	1.12693
6	M	A	M	N	A	N	B	B	N	8	6	shapes	B	Practice	False	131	(-7.7481889310134919, -2.2176108824298053)	(-2.6472519003189081, -5.5779292452249383)	(0.73392365825636574, 1.9860241616624492)	(2.8139908442155637, 8.0996130808974485)	1.0	slash	1.16106
7	N	B	B	N					A	4	2	shapes	B	Practice	False	131	(-6.1054958892575746, -1.9383967501675734)	(2.7442289186802533, -6.4185026028908183)	(-4.077667330253834, 7.7340864376948844)	(0.62214575794284421, 8.0022979265103622)	1.0	z	0.928869
8	N	B	M	M					A	4	1	shapes	B	Practice	False	131	(-0.35611266358699289, -4.5293112397424409)	(-7.4665846577827644, 5.7097901380938723)	(2.2942296970320957, 6.0851540646531852)	(2.3624175345426544, -0.89567272460574365)	1.0	z	0.952358
1	N	A	A	M	B	B	N	M	M	8	7	shapes	M	0	True	131	(6.5148521174395508, 7.0559484332006956)	(-4.5449321267423963, 0.20642560284712452)	(-8.06987073786072, 5.6487816856070143)	(-0.53526343758347927, -1.9045827851328792)	1.0	z	1.20104
2	N	A	A	B					A	4	2	shapes	A	0	True	131	(7.1570070696789259, 5.2042454806256693)	(-1.6766573826071376, -0.60458212197660188)	(-2.2377193287898338, 6.6564134330181162)	(5.515723723195336, -4.2925358857127263)	1.0	z	1.25728
3	N	B	M	N	A	M	B	A	B	8	6	shapes	B	0	True	131	(1.6487348538381283, -8.0431060701569042)	(-6.8455870395963059, -5.0390427374704494)	(-3.7923848192525673, -0.54055309767803017)	(0.84858402152171664, 0.7474680300703973)	1.0	slash	1.84088
4	N	B	B	N					B	4	2	shapes	B	0	True	131	(-2.050821693769052, 2.1047514629938462)	(6.7033831320505595, -5.991737767620803)	(-1.986829054324212, -5.7626236816316814)	(3.4819209758955108, 4.3167967242789871)	1.0	z	1.62648
5	N	B	B	M	M	N	A	A	A	8	2	shapes	B	0	False	131	(6.130634391598603, 4.5260949249126572)	(-6.6848486514517917, 2.8657545320104632)	(-3.6083200072501675, -6.5224799525526524)	(-2.1615682341572242, 7.4225359224582057)	1.0	slash	1.42361
6	N	B	B	M					N	4	1	shapes	B	0	False	131	(-2.0367779936215102, -0.29057005408881409)	(5.0421665549254175, -0.14704106848995124)	(-5.8691232252499734, 6.5608825110334621)	(6.5907271799536886, 7.1685438911036812)	1.0	slash	1.15716
7	N	B	M	B					M	4	1	shapes	B	0	False	131	(-5.5085255930438972, -6.507253340602416)	(3.6612315008717058, 6.3248800832882601)	(7.5596583975788221, -2.6649276378615934)	(-7.0763161408949209, 8.0839186334051156)	1.0	slash	1.26464
8	M	A	B	M	N	N	A	B	A	8	7	shapes	B	0	False	131	(1.8909315296389479, -4.0545382408557664)	(5.952914802843754, -1.5331969715024867)	(-2.1590637811704312, -5.7489655754012272)	(6.0119194215963976, 6.5198766085405051)	1.0	z	1.11073
9	M	A	N	B					N	4	3	shapes	B	0	False	131	(3.6879956456249747, -5.60918980688235)	(-2.3205292028721463, -4.7829106491632771)	(4.1529374117493703, 7.9464730656386635)	(-8.4548678321606499, 7.3035880556532753)	1.0	slash	1.15415
10	M	A	N	A	N	B	B	M	M	8	7	shapes	M	0	True	131	(-8.504839870306462, 1.7251400925326816)	(8.0516568269171565, 3.8202673214488065)	(2.534878673663238, 0.055865421660426406)	(-0.78819854465039185, -3.6015435729882661)	1.0	slash	1.54029
11	N	A	A	B					B	4	3	shapes	B	0	True	131	(2.9445560677819635, -6.1725731085167697)	(-8.2651406370272937, -4.814231080887371)	(-1.2645370877640936, 4.5575396583866397)	(3.1775444564818844, 1.0408399879577335)	1.0	z	0.887784
12	M	B	N	A					M	4	1	shapes	B	0	False	131	(-1.5382675037824018, -2.5124620813439735)	(8.7323672106471051, 7.6746156813658715)	(2.5984374105596366, -0.80418031258386602)	(-5.7958977245501311, 2.836841941776342)	1.0	slash	1.34348
13	N	A	A	B	B	M	N	M	M	8	7	shapes	M	0	True	131	(5.2478458097567255, 4.6170769270310785)	(1.0168867242194768, 5.9549729031221545)	(-3.091556533562982, 3.5622412473932972)	(-8.2121431447152951, -2.7814231669956113)	1.0	slash	1.71636
14	M	B	A	N	N	B	M	A	N	8	6	shapes	M	0	False	131	(-3.6185478333120358, -7.9287688860975569)	(3.3781123093635461, 4.9836199363797125)	(-4.1876989041038923, 7.5928145597386312)	(-2.6504000745011655, -2.5825000212633835)	1.0	slash	1.32809
15	N	A	M	A	N	M	B	B	A	8	0	shapes	N	0	False	131	(0.41814651097259947, -3.5609646754892861)	(0.66010536979916346, -8.6737584505514249)	(-1.9339943529937997, 4.0659107464535644)	(-4.0479987075466433, -0.18135559601701345)	1.0	slash	1.18691
16	N	A	B	N					M	4	0	shapes	N	0	False	131	(4.4312831242613129, 7.6196948924887877)	(6.6374706439611426, -2.6172089327610681)	(-8.6206404834533146, 5.4674464300323482)	(-5.4946427463544021, -3.7085184508703932)	1.0	z	1.02334
17	M	B	N	B	A	A	N	M	A	8	1	shapes	B	0	False	131	(3.028530639536239, 1.407498332408661)	(5.125718039852865, 6.9551315444852744)	(-4.9984953986857548, -1.6270349907394133)	(-1.2164983653526118, -0.19768913148211631)	1.0	slash	1.22085
18	M	A	B	B	N	A	N	M	A	8	2	shapes	B	0	False	131	(8.2131137644667049, 1.1024834998671427)	(-5.7833478877903666, 7.8197831441665606)	(8.3256818701645443, -7.9765150221746399)	(1.0051372706610788, -6.6766009859206772)	1.0	z	2.09856
19	N	A	B	N	A	B	M	M	A	8	4	shapes	A	0	True	131	(0.43429612615239144, -7.1987386251458574)	(6.4339954065339615, -1.7280807373169385)	(7.4565969373559895, 5.5403392285086071)	(-3.0608032111002572, -1.9332316964522551)	1.0	slash	0.970177
20	N	B	M	M	B	A	A	N	M	8	4	shapes	B	0	False	131	(5.4082440018042028, 1.949068384640146)	(-7.1050955992176625, 6.7795675106301481)	(1.9614368751989577, -7.1848015788605046)	(0.55054061434422152, 4.8868814530028839)	1.0	slash	1.2444
21	M	B	A	A	M	N	N	B	B	8	1	shapes	B	0	True	131	(8.3898258749573138, -6.1858594611288957)	(-1.0703551527363127, 1.1770141151308255)	(0.56007576604275933, -7.4102045530630658)	(-7.013887590275603, 2.4014641094972387)	1.0	z	0.979536
22	M	B	B	A	A	N	M	N	M	8	5	shapes	N	0	False	131	(-6.8379600521547275, 7.9138385277045309)	(2.0406884625373802, -5.1495273945098905)	(-1.9394002408731321, -0.86505377675619499)	(8.2759527807325313, -0.61038686614608473)	1.0	z	1.49856
23	N	B	B	M					N	4	0	shapes	N	0	True	131	(4.9257469470531827, 2.1284869249223313)	(-8.2564268677078658, 8.3365702605092942)	(1.7354686264678278, -7.7439116938329438)	(-2.6987133977445321, -7.3191600601248279)	1.0	z	0.912562
24	N	A	M	M					M	4	2	shapes	M	0	True	131	(6.5610716434833023, -3.2018930539703989)	(-3.5175953065678627, -4.2108054163097783)	(2.8068220033212281, 3.0679025394921631)	(-4.3926700562806236, 5.6927815026827382)	1.0	z	0.977018
25	N	A	N	A	M	M	B	B	A	8	1	shapes	A	0	True	131	(2.5792548019682116, 0.3682727163772892)	(8.5287271760183749, 8.5773773334448862)	(-5.4367993206849325, -8.6992169606038647)	(0.02429435175939787, -5.4139880923697667)	1.0	slash	1.20001
26	M	B	M	N					A	4	3	shapes	N	0	False	131	(-5.5434975098540811, -4.7764162945746431)	(3.4428903039397873, 1.9328480526564267)	(-0.73802813815886381, 3.4151675521796232)	(8.712013640325722, -0.36241055838342184)	1.0	z	1.13791
27	N	B	N	B					N	4	3	shapes	B	0	False	131	(7.8658484925784684, -1.8073630083395926)	(-5.6999865496280648, 1.277374615694546)	(-2.3874456210278954, -4.0791373767826249)	(0.72990085711054675, 0.93638391883028937)	1.0	slash	1.03168
28	M	B	A	A					A	4	3	shapes	A	0	True	131	(-4.9134855771417882, -3.9111358540792907)	(-0.044843046227581951, 6.531561927420519)	(5.9103683499135506, -3.8483780401832366)	(4.0407440923101632, 4.9680859864389753)	1.0	z	0.977371
29	M	A	M	A	N	N	B	B	M	8	0	shapes	M	0	True	131	(1.8180482042968382, -0.47964065718596771)	(-1.176951432501915, -3.7285329373852711)	(3.287461870699067, 3.2863100061818784)	(-5.5517814213529464, -5.6780147787463173)	1.0	z	0.920451
30	M	A	A	M					M	4	3	shapes	M	0	True	131	(8.7107086404478729, -0.43867802657869426)	(-2.9491199280165956, 3.4766387088338249)	(-7.8954884426091692, -1.1761604719202241)	(6.1515091196758256, 5.2618946277113086)	1.0	z	0.850164
31	N	B	B	N					N	4	3	shapes	N	0	True	131	(4.703428196166211, -6.0427315653994427)	(-4.3793247444767811, -7.1851755271252324)	(2.800036928046497, 4.9410389612491894)	(-2.4836545147411311, 1.6559907941936238)	1.0	z	0.912284
32	N	A	M	A					B	4	0	shapes	N	0	False	131	(7.3605921924619508, 5.0073902814653621)	(-7.0584464832416973, -7.7384197013764364)	(5.2902432713508141, -7.2252374906174932)	(-5.6318592589279195, 2.0400925869127029)	1.0	slash	1.04186
1	M	B	M	B	N	N	A	A	A	8	6	shapes	A	1	True	131	(2.506522236444237, 1.4576696321925429)	(-7.0588337852249765, 8.3887725332819194)	(3.0306903859321341, -8.0033418062960102)	(-3.410903512658737, 6.0680291289231256)	1.0	slash	1.46688
2	N	B	M	M	N	B	A	A	A	8	4	shapes	N	1	False	131	(-0.69973144875741866, 2.828207420216426)	(-0.66747552015991296, -5.3975358551194033)	(7.7231639754638906, -4.5507785150059599)	(8.2747949013133244, 0.80465190449906743)	1.0	slash	1.32047
3	M	A	N	M					M	4	1	shapes	A	1	False	131	(-6.1445247305180626, 2.6795352562250709)	(-1.4466896998605812, -0.74724141943495148)	(8.5030029256334352, 4.3562697909278079)	(4.4357444521952267, -2.8460082447433974)	1.0	slash	0.984759
4	M	A	A	B					A	4	1	shapes	A	1	True	131	(5.8102918261208298, -4.6503304561914032)	(2.3311813588640309, 4.0019736334457754)	(-7.666362936757853, -8.3203395839456782)	(-6.2376723496745976, 7.4754305692938274)	1.0	z	0.884423
5	M	A	A	M	B	B	N	N	M	8	1	shapes	A	1	False	131	(5.812983723765015, -8.5184141113428051)	(5.3548908469489671, 1.4694953264548385)	(0.66969535004001202, -7.7488425540472763)	(-7.2085239253052116, 4.4989501730503427)	1.0	slash	1.05345
6	M	A	A	N					N	4	1	shapes	A	1	False	131	(-1.1222309221940439, 0.73941232031793369)	(-8.2075014867251586, -8.4185609744589183)	(7.2673383450002653, -1.1700757279103149)	(7.0584113519461553, 2.9239682242763596)	1.0	slash	1.33363
7	M	A	M	N					A	4	1	shapes	A	1	True	131	(0.94961934980683438, 7.4737874508740809)	(0.061201667948861171, -6.5133463354554602)	(-4.3659647272893682, -5.4350282786206421)	(-4.3519224554837166, 5.0387053058898434)	1.0	z	1.13119
8	M	A	M	A	N	B	N	B	M	8	2	shapes	M	1	True	131	(-1.5655079566911647, 1.4116145208629227)	(1.9274124799231434, 3.4626148785428317)	(2.1511742984604965, -1.9981214340313231)	(-5.8874456039953884, 4.5403024417227016)	1.0	z	0.914364
9	N	B	N	A					A	4	0	shapes	N	1	False	131	(4.1103946150291524, 4.8729119025303387)	(-4.2444646009411295, 3.9874709759185141)	(0.20697403154724903, -7.5292844875935101)	(-7.7153718620206622, -6.0201837549547372)	1.0	slash	0.964548
10	M	B	N	N					N	4	3	shapes	N	1	True	131	(-7.6698762704501178, 3.6575626325963189)	(4.4711979744503108, 2.136389990309695)	(7.8175140447547413, -2.8834397408764971)	(-0.18902755636458757, -2.5304962112995035)	1.0	z	1.01428
11	N	B	N	M	M	B	A	A	N	8	2	shapes	N	1	True	131	(5.2911544134163151, -2.2567312642173354)	(-3.9549860015162288, -4.3803378902580388)	(-7.9355337152740093, 8.5900167286638265)	(-5.8758171802351304, 4.1539617283253971)	1.0	slash	1.17311
12	N	B	A	M					N	4	1	shapes	B	1	False	131	(-7.1243619931144915, 0.46418827164501586)	(2.7338381220324592, 3.5919270890597392)	(2.1980663996397585, -3.234293162071026)	(-5.7106592467326189, -3.8667733257901231)	1.0	slash	1.13132
13	N	A	A	N	M	B	M	B	A	8	5	shapes	B	1	False	131	(-7.5969310257978862, -2.8100088336961013)	(-1.5696394214866585, 1.6046243908701001)	(-5.0619415803573524, 3.5754193769358231)	(6.1709422529466433, 4.6940542998725707)	1.0	z	0.978541
14	M	A	N	M					N	4	2	shapes	N	1	True	131	(-8.3403991917315938, 4.2249141014458313)	(6.5821090342550495, -4.2969791186315449)	(-3.1164320191658019, -0.65006118201899454)	(8.1087866685132788, 0.10187175795210912)	1.0	z	1.07053
15	M	A	M	N					M	4	0	shapes	M	1	True	131	(6.2543565232209009, 0.47055248766929303)	(-0.48649519005407349, -3.0642597005649472)	(-8.1094506138052296, 1.635253418341609)	(7.7677614504135946, -3.9128262017383593)	1.0	z	1.02424
16	N	B	N	B	A	A	M	M	A	8	7	shapes	M	1	False	131	(3.074184104686708, -2.6117887915897082)	(-8.7394407303072459, 3.8300883692126177)	(-8.098540874680058, -5.1151298009213892)	(-5.7111396486921109, 8.250908774948595)	1.0	slash	1.00545
17	N	B	N	M	A	M	A	B	A	8	6	shapes	A	1	True	131	(2.8627873842716962, 0.19014348319817564)	(6.3927128478513264, 8.1779996846542211)	(8.5809764797264947, -2.5561160420105766)	(-8.6882404255895818, 7.8186003685034784)	1.0	slash	1.14716
18	N	B	B	A	N	A	M	M	N	8	0	shapes	N	1	True	131	(-5.1340994437537368, 4.1227904960628354)	(-1.7422709696974179, -0.60948397184649394)	(5.2619626707749099, 2.2929607288163698)	(0.93510411617665312, 7.1724742605314109)	1.0	slash	1.00855
19	M	B	N	B					B	4	1	shapes	B	1	True	131	(8.6424607609500725, 4.3564167571758432)	(-8.0303822864981544, 7.9675805525382728)	(2.0976768344671761, -1.0880690435494564)	(-7.8836416822997188, -2.6982774303288641)	1.0	z	1.23157
20	M	A	A	B					A	4	1	shapes	A	1	True	131	(-4.5546912117119085, 4.5827397093493047)	(-1.3571693317323934, -0.17226357947432724)	(2.6316598084439544, 7.7534145544688151)	(8.3546078504292147, -7.2633208100134521)	1.0	z	1.75451
21	N	B	M	M	A	B	N	A	A	8	3	shapes	M	1	False	131	(3.2438400824199469, -3.071128139770515)	(6.7330941837216596, 2.2137193947885709)	(7.4967001798495403, -4.7590883917419138)	(-4.8358557770134816, -5.008952641930132)	1.0	slash	1.51758
22	M	B	A	A	B	N	M	N	N	8	5	shapes	N	1	True	131	(1.6609713906170676, 6.7653918916607942)	(6.9292217937211369, -0.89902413163655037)	(-4.2676745485204828, 4.9548612443876401)	(0.19915814836322454, -4.6071891421481714)	1.0	z	1.01752
23	N	A	A	B	B	N	M	M	M	8	7	shapes	M	1	True	131	(3.2798828955129853, 5.5800767479436288)	(-8.2858751102824453, -7.6778172274514755)	(-3.5140497386496552, 8.6574095206746584)	(0.51116569911462051, 0.58534241642241369)	1.0	z	1.14654
24	M	A	A	N					M	4	2	shapes	A	1	False	131	(4.6783325745170234, 6.3710665248808116)	(-4.0909293061379781, 4.5861391955427244)	(-4.1460715120918632, -6.7455010376910103)	(1.9417226751631222, -8.4283080275767421)	1.0	slash	1.45096
25	N	B	N	B	A	A	M	M	N	8	0	shapes	N	1	True	131	(8.3990558073922017, 2.8521900716759081)	(6.6716509368619192, -8.0538799131912366)	(4.4726069978037, 7.7203767219363506)	(-6.2727057686769969, -0.65182641855664691)	1.0	slash	1.51403
26	M	A	B	M					A	4	0	shapes	M	1	False	131	(-2.1612236131470546, -1.913955549747925)	(8.5234743261108648, 6.2432052667020699)	(3.9201595142442454, -0.64211824020220298)	(-3.4307596159919784, 5.092460688916022)	1.0	slash	1.38211
27	M	A	M	A	N	B	B	N	N	8	3	shapes	A	1	False	131	(-1.2943199282802249, -6.3238464955822842)	(8.0057779598013248, -0.32695207472506738)	(-5.6036654952434946, -2.7114763037800129)	(-7.945299635986407, 0.7478865515624431)	1.0	slash	1.42787
28	N	B	M	M					B	4	1	shapes	B	1	True	131	(2.5157058411781854, -4.8035072937151746)	(7.7627037460391044, 4.6266252970644413)	(-6.6121537876047114, -0.93592466480708758)	(-0.11762334320770051, 4.9322908011214199)	1.0	z	1.06932
29	N	B	B	M					N	4	3	shapes	M	1	False	131	(-4.3472069466314238, 4.6234752599078259)	(-2.5792949029332659, -5.2361580040183622)	(4.9186621136792148, -1.1157418311358933)	(0.083303380109649439, 0.60486239570399469)	1.0	z	0.926993
30	N	A	M	N	B	M	B	A	N	8	2	shapes	M	1	False	131	(5.5206093224886565, 4.5632633738345092)	(-6.4561270015715513, -4.7031104332112994)	(-7.6552239531274546, 6.1812372078691435)	(-6.5491558231267497, 2.1254395600475977)	1.0	z	1.70588
31	N	A	B	N					M	4	1	shapes	A	1	False	131	(7.5548099349673521, 4.0834880445321975)	(-2.223033790451983, 5.0268117615773207)	(3.847381578740757, -5.2127106676821384)	(-4.3656218940546516, -8.1260253146133259)	1.0	slash	1.15809
32	M	B	A	A	M	N	N	B	N	8	2	shapes	A	1	False	131	(-7.7193170083744969, -7.9391125453450773)	(2.3828803162929262, -2.9112081021430711)	(6.6670491608956244, -3.3895910222830867)	(2.1297715406078535, 3.9992069545116014)	1.0	slash	1.25717
1	N	B	M	M	B	N	A	A	A	8	6	shapes	A	2	True	131	(6.7940129798623357, -5.6880483975230582)	(-4.3554499773868116, 1.4172632807324916)	(-8.1736056849361081, -6.5663444103010882)	(7.0377973978410093, 7.2679017885725443)	1.0	z	0.893231
2	N	B	N	B					B	4	1	shapes	B	2	True	131	(-5.6959565604877564, 2.1918719892472538)	(6.8630866406233419, 5.3091889754528196)	(2.8678084414984131, -7.6863650847788367)	(-3.3720651067079839, -3.9378168349503948)	1.0	z	1.05102
3	M	A	N	M	N	A	B	B	B	8	5	shapes	A	2	False	131	(-6.4764228404664212, 0.85117956886442236)	(-6.7998760565057363, 8.7461331332255696)	(5.1180096226079996, -6.1933430676465555)	(7.0835459465870674, 2.3293496252076213)	1.0	z	1.31438
4	M	B	B	M	N	A	N	A	M	8	0	shapes	M	2	True	131	(7.3292407142201554, -1.395176794665554)	(-8.0799085367844654, -2.6169518428327896)	(-0.16642631681094322, -4.8960679528407223)	(3.6739926599378574, -6.551953798523015)	1.0	z	1.10192
5	M	B	M	A	B	N	N	A	A	8	3	shapes	A	2	True	131	(-2.6573176259488971, 1.5134374105536512)	(-7.4334965301401521, -1.1156798996186064)	(-6.5103643918437317, 5.6429079797813095)	(6.3822054758146258, 5.5685847353433129)	1.0	z	1.11542
6	M	A	N	N	A	B	M	B	A	8	7	shapes	B	2	False	131	(0.15684171276238423, 7.9099931107184567)	(5.690205595720073, 5.2390422349254209)	(-5.0694869574335311, -6.2747550668946515)	(-6.9096352154328811, 6.4442019128635284)	1.0	slash	1.30287
7	M	A	A	M					A	4	0	shapes	M	2	False	131	(-3.555478669193004, -1.142345858020513)	(-8.0230295370967895, 0.12006631718169736)	(1.2440504194185511, -2.2830914566519471)	(6.7412984093993593, 3.2689838092884926)	1.0	slash	1.10111
8	M	A	N	M					M	4	0	shapes	M	2	True	131	(4.9495497736209746, -5.2514839194631922)	(-6.1343038924601121, 3.4919048532189212)	(4.2264549809550598, 6.5549902508324607)	(-4.0048336765792296, -1.8173275338524943)	1.0	z	1.34689
9	N	B	B	A					N	4	2	shapes	B	2	False	131	(-0.12524278803700639, 6.04419721518871)	(6.6459247842899138, -3.5652868509771425)	(-5.2847189407536952, -1.1571003319827868)	(8.29231238884935, 8.7403378728767045)	1.0	slash	1.15044
10	M	B	B	A	A	M	N	N	B	8	7	shapes	N	2	False	131	(-2.7758871371530534, 8.6025914437429485)	(-7.2686863019335615, 1.9408229083316915)	(6.9334348169438869, -4.3090218111987095)	(8.0322206913427401, 6.9794800982211882)	1.0	slash	1.50738
11	N	A	M	B	N	M	A	B	A	8	1	shapes	A	2	True	131	(1.0839952004197659, -2.2577966610225273)	(4.8139181557317894, 8.2152746864878878)	(7.6263389861016364, -2.7974582415121496)	(6.933441085988191, 1.4081459916574719)	1.0	z	1.52925
12	M	B	N	A					A	4	2	shapes	N	2	False	131	(6.4787915923717883, 4.3395022229166731)	(-5.0276410493684081, -0.57253216411668006)	(-3.1725674866272993, 5.167762388467894)	(3.359554312055625, -8.266006142347484)	1.0	slash	1.15116
13	N	B	B	N	M	A	M	A	A	8	7	shapes	A	2	True	131	(7.1190111316433047, 5.4948517606425877)	(-4.8914905247108074, -1.4326737981268085)	(-1.9517660411161746, 6.3080024039100415)	(-8.3316099306394946, 2.3764869932629633)	1.0	z	1.22826
14	N	A	N	M					N	4	0	shapes	N	2	True	131	(5.4656926154456702, 6.8326114035034458)	(-5.6026911725631008, -2.6826579445928198)	(4.7315556085128865, -0.10202512449087031)	(-3.9407606817032903, 3.8611509454537511)	1.0	z	0.974465
15	M	A	A	N	N	M	B	B	B	8	4	shapes	N	2	False	131	(1.6929890551045048, 2.4054083446918746)	(4.1761022693662468, -5.6622804195784644)	(6.5524704848577109, 0.82608677020808408)	(-8.2289366757116724, 1.7938183205257658)	1.0	slash	1.12628
16	M	B	N	A	N	A	B	M	A	8	5	shapes	A	2	True	131	(-2.0044532273508322, 2.1556216488553677)	(-1.8697433583010641, -4.7869348097313607)	(-1.2803864358989054, 7.0400053310576851)	(-6.9860303433240363, -1.6197639047418306)	1.0	z	0.957214
17	M	B	B	A					A	4	1	shapes	B	2	False	131	(-0.9680607100425922, 8.6038971916707006)	(-5.0778663869376022, -7.8504728112683697)	(6.0290832376944383, -3.763489997736996)	(1.1113571073363637, 1.8713090202800267)	1.0	slash	1.35927
18	N	B	B	N	A	A	M	M	A	8	4	shapes	A	2	True	131	(-7.3061026770723245, -0.88036323818899742)	(1.8324156499365305, 7.1922665859709749)	(-4.535041612167344, 4.1234200149120035)	(2.2696964773025226, -4.5818498554337888)	1.0	z	1.28303
19	N	B	A	A	N	B	M	M	A	8	3	shapes	A	2	True	131	(-7.4520716068469781, 3.5904699577764898)	(-1.0956099987184231, 7.1950045823336044)	(5.3071196359415449, 8.2320648229956035)	(1.0230950091053508, -0.13960089214702087)	1.0	z	1.08496
20	M	A	B	N	M	A	B	N	N	8	0	shapes	M	2	False	131	(2.6724190432830319, -1.7109223747651683)	(-4.1199783893242197, -7.9431337678144667)	(-6.5709717563270953, 6.1332341146267222)	(1.7104121672521906, 7.1926517540409218)	1.0	slash	0.991395
21	N	B	B	A					A	4	1	shapes	B	2	False	131	(-1.6586670028677082, -6.4663354689076549)	(1.1390855448180321, 0.14933238566514717)	(-4.050698116601521, 4.9919308820654642)	(5.8637119590595574, -0.37708429727659976)	1.0	slash	1.00786
22	M	A	B	N					A	4	1	shapes	A	2	True	131	(-0.41424616407077863, 3.4631639022919174)	(0.85538016281017271, 8.0229223879225238)	(-2.9550310865636416, -2.2950363030649168)	(5.0165999582886407, -0.84720866269487516)	1.0	z	0.901485
23	N	B	B	N					N	4	3	shapes	N	2	True	131	(5.4511040898907925, 4.8914037743864309)	(-1.5198384978020352, 7.3378123198517535)	(3.1012280657243032, -1.345385061822733)	(-8.5774335891674554, -0.91593602918749184)	1.0	z	1.08325
24	M	B	N	B					A	4	3	shapes	B	2	False	131	(0.20266877542100659, -0.70938715336900771)	(7.060413294591589, 1.831457748416323)	(-6.565344702392907, -6.6514588767255223)	(-4.342767917356424, 5.7942532567137164)	1.0	z	1.11684
25	N	A	N	M	M	A	B	B	M	8	5	shapes	A	2	False	131	(-3.9941636456172942, 1.6770734569864736)	(3.9503300536681003, 6.2014620021811115)	(7.9954878071592681, 3.1376052911558965)	(-4.2815688514289603, -8.4610823885915512)	1.0	slash	1.07206
26	M	B	M	N	N	A	A	B	N	8	6	shapes	A	2	False	131	(1.9024243208205949, 1.7099285531198767)	(-3.7424650647520874, -6.3335786914795635)	(-0.3887548869149029, 5.1886757125142378)	(7.8964429503781197, 3.7948320377616973)	1.0	slash	1.41178
27	N	B	B	A					B	4	2	shapes	B	2	True	131	(-3.0672298444656168, 8.0330198802311088)	(7.6551834516905828, -6.5438172250497093)	(-3.2843749904307566, -0.043096100209531585)	(1.4779331135103888, 2.5998172593081161)	1.0	z	1.05751
28	N	A	M	M					A	4	2	shapes	M	2	False	131	(-1.3998515833142484, -7.3626214259042051)	(-8.3139928511052759, 0.50933079156530958)	(6.1251598188001477, -3.1992431753639874)	(4.620044744484364, 3.0558675539750357)	1.0	slash	1.03718
29	M	A	N	A					M	4	0	shapes	M	2	True	131	(-4.727280184073587, 4.9573282760450521)	(4.3211539302507092, -8.3848805404219515)	(-6.5831566966021882, -1.6198602941944289)	(0.21741116583787701, 7.8579797877963351)	1.0	z	1.21304
30	N	B	B	A					B	4	3	shapes	A	2	False	131	(8.4031272647975541, 5.6263930225832812)	(2.9397916538895466, -5.3327811890776378)	(-5.5662438962615823, 7.9001364251151571)	(-3.533433323797686, -6.4242089723876603)	1.0	slash	1.54652
31	N	A	N	M					N	4	0	shapes	N	2	True	131	(-4.3230573958476874, -5.3770552311564668)	(-4.4488625434697564, 1.3716920768453207)	(3.9758858832065158, 7.215269606308107)	(1.3644026137413405, -3.8321874560303986)	1.0	z	1.15964
32	M	B	M	N	N	B	A	A	N	8	7	shapes	A	2	False	131	(-7.499639842809291, -2.1420569459035672)	(-1.6948141817462918, -6.7931979090423331)	(1.9234927733257123, 4.1225156029837606)	(-4.9991890005893147, 5.6702507305219338)	1.0	slash	1.1978
1	N	B	B	A					B	4	1	shapes	B	3	True	131	(-6.8840731813758911, -7.6324723732904145)	(6.3737366151738328, 4.0451381661700374)	(-4.2642619754277371, 8.0982480306015425)	(1.1835934693268335, -4.0198460514610304)	1.0	slash	1.20691
2	N	A	B	A					B	4	3	shapes	A	3	False	131	(4.698664450788911, 8.0383440112418576)	(-0.90131133953919385, 0.40149352842861319)	(-5.0203062535674121, -7.9980698100570518)	(7.0863643629829483, -1.010456477681676)	1.0	slash	1.1342
3	M	B	N	N	M	A	A	B	N	8	2	shapes	N	3	True	131	(-4.1661112234629938, -5.1343178579712268)	(-7.8060706111180123, 1.9564896843684814)	(-8.7045191756717522, -8.514974073589018)	(8.0407451318366014, -2.1485096812842039)	1.0	slash	1.55816
4	N	B	B	M	M	A	N	A	B	8	3	shapes	M	3	False	131	(4.4226304005308066, 2.1126768823567268)	(-7.7856512373700557, -3.0791684727575124)	(6.3698814817205598, -3.5193306178635115)	(-2.7912400693984472, -7.42993394272355)	1.0	z	1.17035
5	N	B	N	A	M	M	B	A	B	8	0	shapes	N	3	False	131	(-7.0860405907518391, 3.7141009683308237)	(7.8955955854128526, -0.36051021197607369)	(-0.39400776686250261, 7.751117950028398)	(2.9887555481039829, 4.5410098733473649)	1.0	slash	1.18731
6	M	A	A	N	N	B	B	M	N	8	0	shapes	M	3	False	131	(-1.2143779425482251, -2.7058466229060079)	(-2.4332955278644581, -7.5476623825715299)	(3.8482618685564045, 3.7664374772865639)	(-0.1280097059141454, 5.5459501498281831)	1.0	z	1.16104
7	M	B	A	B	A	M	N	N	A	8	2	shapes	A	3	True	131	(3.1243748177977277, 2.5004779465522891)	(0.83757101228832376, -8.5981827172368206)	(-6.613136547488816, -0.59531653819420427)	(7.2426094619794714, 8.5126906689004258)	1.0	slash	1.5969
8	M	A	N	M					A	4	2	shapes	N	3	False	131	(-1.8729030074274107, 1.9844743659843012)	(6.5910140027401649, -3.7649581704484696)	(4.4709752470449864, 4.1681139676974777)	(-1.6112048912643289, -2.0678426888670591)	1.0	z	1.08601
9	N	A	N	M	B	A	B	M	B	8	2	shapes	N	3	False	131	(8.2857469891191009, 0.62367132684276783)	(-6.0257103172523507, -0.17945439108222949)	(3.1636098385380897, 2.0725320808703689)	(2.6804861879307644, -2.3293660919569952)	1.0	slash	1.0877
10	N	A	M	N	M	A	B	B	A	8	5	shapes	A	3	True	131	(-5.7694340012893885, 8.4145934666835771)	(-4.659376707741183, 2.2474749363616233)	(-1.1220452504776217, -4.606746380820538)	(5.2106994927023216, -3.5245850557671181)	1.0	z	1.01749
11	N	A	N	A	M	B	M	B	A	8	3	shapes	A	3	True	131	(-7.1411902876832176, 5.7012373498957061)	(0.97330939996543542, -1.9078162262140141)	(-7.9645636264454422, -7.3502950984477131)	(-8.4598245917542538, -0.19978542505467445)	1.0	z	1.79895
12	M	B	N	B					M	4	3	shapes	B	3	False	131	(-1.0383656872072224, 5.9470451957986583)	(4.0550727111706557, 2.5493765341186112)	(-3.216291805754274, -2.7568608288357996)	(0.055028848406164954, -8.6797506505947073)	1.0	slash	1.54324
13	M	B	A	N					M	4	0	shapes	M	3	True	131	(2.3335518806176356, 7.0393860204421532)	(-1.8097580749846784, 7.583334483468068)	(4.8920650502159617, -6.6563347629716949)	(-6.5226975505012446, -4.5120189017767727)	1.0	z	2.05056
14	N	B	B	N					B	4	2	shapes	B	3	True	131	(-7.470990179115514, -0.9133040729257349)	(1.8715408925767445, 0.48018199219539781)	(-1.4082233332717857, 6.4267266913820684)	(3.553779813841162, -8.2550426627936755)	1.0	slash	1.5123
15	M	A	B	A	M	N	B	N	N	8	3	shapes	A	3	False	131	(-3.9881790820474547, -0.58582851833973493)	(2.4880217064978662, -2.8213210308079413)	(5.6092864496099644, 4.9687456341227438)	(-2.964736012557788, 7.150890573899872)	1.0	slash	1.32329
16	N	A	A	N					A	4	1	shapes	A	3	True	131	(-4.8393804436770615, -1.6252268576624305)	(-6.0370024017565047, 8.5926498941134497)	(1.8626236875858648, -3.3828550642217001)	(3.979658167032424, 2.2823029781151138)	1.0	z	1.29933
17	M	B	A	B					A	4	0	shapes	M	3	False	131	(3.3502746562345482, 3.2438330172028103)	(-4.2522957734308822, 6.5705574320487621)	(-0.88128396868405723, -2.1079811640146788)	(2.8701067473435433, -8.2094158062941709)	1.0	slash	1.25501
18	M	A	A	N					N	4	3	shapes	N	3	True	131	(-7.6045859032239278, -5.1053641476848899)	(4.3236894549493652, 8.2443440686839402)	(-4.1853507015389626, 3.9506261962621814)	(2.6523412419689141, -0.0013219470785816867)	1.0	z	1.21468
19	M	B	B	A	M	A	N	N	A	8	5	shapes	A	3	True	131	(-7.1352782739671419, 4.963124348572105)	(-8.3552526123358106, -6.0403484970664474)	(-3.4987712381937559, -5.3021344346485879)	(0.84764896925255506, -3.7851011232629226)	1.0	z	1.22264
20	M	B	N	N					A	4	1	shapes	B	3	False	131	(-5.2637092228877247, -1.9827772884514312)	(1.9619790454256876, -5.9134409449013159)	(-1.8195858375972138, 6.7498041044875468)	(7.7420952631621631, 8.0946009056912018)	1.0	z	1.13001
21	M	B	M	B					B	4	0	shapes	M	3	False	131	(6.4213263113102226, 2.6813353068538337)	(-5.5769207372616183, 8.3020519011137885)	(-7.5943331990112926, -7.2705954016098016)	(1.3304638280104815, -6.7273707564457936)	1.0	slash	1.16155
22	N	B	M	B	A	M	A	N	M	8	5	shapes	M	3	True	131	(-4.9887387147263507, 5.3667635262773654)	(-7.7166435558352511, -7.378366383479543)	(3.8173834348476419, -7.7715553300183124)	(7.0437098124692579, 1.7409111084334477)	1.0	z	1.00265
23	M	A	M	B	B	N	A	N	N	8	7	shapes	N	3	True	131	(7.3219951001065979, -1.7800171550878039)	(-6.4734129475950901, 3.9600110530419332)	(8.2616828809295626, -8.7128925411863243)	(-1.9174949344893166, 2.671223557959868)	1.0	z	1.42096
24	M	A	B	A					A	4	1	shapes	A	3	True	131	(-5.8370855371154819, -2.6253381982186896)	(6.2552918930134709, -7.1903455330992738)	(-6.9724670175080004, 6.4599669931452297)	(0.62271566764612096, 3.4123319051917456)	1.0	z	1.08985
25	N	A	B	M	B	M	N	A	N	8	5	shapes	M	3	False	131	(6.2241369275992149, -8.1873011749074163)	(-0.71584042867999464, 6.670006493651087)	(8.7268150560328017, 5.1258163038945206)	(2.2101434400686131, -8.3607938040565397)	1.0	slash	0.980214
26	M	A	M	N					A	4	1	shapes	A	3	True	131	(3.2285340551431112, -8.0155788428199557)	(-0.17384137843343517, 3.5202303323146324)	(6.5940485266787547, 4.924985532908277)	(-3.7378653800386896, -8.4527633056073217)	1.0	z	1.00981
27	N	B	B	A	A	N	M	M	M	8	7	shapes	M	3	True	131	(-2.6889291331436569, 6.0196996602087971)	(2.2075127083996051, 7.2922857456911494)	(7.5703722247902796, -8.0811299113387651)	(0.026546896042244583, 0.16788334891511525)	1.0	slash	1.14676
28	N	B	A	B	N	A	M	M	B	8	0	shapes	N	3	False	131	(-7.7475896831863666, -0.80295492663446577)	(-2.3192585859800117, -6.0875516468585289)	(8.6344934729759864, 3.577138907620645)	(3.4771060446456801, 2.4822020711373423)	1.0	slash	0.944384
29	N	B	M	M					N	4	3	shapes	M	3	False	131	(-7.8707884523335405, -5.34359914500833)	(4.3590085487687027, -0.30599116214914091)	(3.3484549479356964, 7.4946386916670917)	(-3.7251737589134306, 0.5534823842080101)	1.0	slash	1.06078
30	N	A	N	A					N	4	0	shapes	N	3	True	131	(6.7290770178867927, -2.4030870439695589)	(0.14700081258697395, 0.033763915866940053)	(-8.004647031970638, 3.2741470996922217)	(-3.6973947275533989, -1.7124096989813591)	1.0	z	1.57636
31	M	B	A	N	M	N	A	B	N	8	2	shapes	A	3	False	131	(-2.7570974152611178, 4.1861367095477675)	(-6.5995617884422266, 7.1446957692692905)	(2.441475799662836, -0.54708990130368562)	(4.101211904608089, -6.8416063755942673)	1.0	slash	1.25551
32	N	B	N	B					M	4	1	shapes	B	3	False	131	(-7.4651078145000973, -5.3780373121503429)	(5.1888460242234089, -8.2875747163775948)	(3.0163307366158545, 3.6775498917269154)	(-2.6865415815141578, 7.1457426247451235)	1.0	z	1.27714
1	M	B	B	M	N	A	N	A	B	8	7	shapes	A	4	False	131	(2.8188709108611167, -2.0577069209039793)	(-5.7658648118219427, 3.8670016108828289)	(-3.8645901051194826, -7.3664399638415166)	(-2.5521668789033836, 1.2335646262957187)	1.0	z	1.73645
2	N	A	A	N	M	M	B	B	M	8	0	shapes	N	4	False	131	(5.6856661737111995, 2.0733764172118843)	(-6.1514817162644277, 5.2816466231970107)	(0.090736461708321059, -0.78721445385771904)	(2.1731122214043204, 8.4795466675561784)	1.0	slash	1.08817
3	N	A	B	M	A	M	N	B	A	8	4	shapes	A	4	True	131	(6.7051012433067303, -3.5889305445514132)	(0.58623382858812789, 6.9350056611697237)	(5.1859647537497011, 6.7293425835737377)	(-3.9850201935777081, -0.92169942633553781)	1.0	z	1.07372
4	N	A	B	M	A	B	N	M	N	8	6	shapes	N	4	True	131	(1.7773924293446406, -2.6536861721474958)	(1.8870164613485425, -6.8982605503667491)	(-6.6124107652591642, -1.5333472753768502)	(1.2469682034362179, 7.1667190500424365)	1.0	z	1.0617
5	M	A	M	N					M	4	2	shapes	M	4	True	131	(0.045254807737414637, -4.1367915286676782)	(-7.5005117221479676, -7.89352282005588)	(6.1217311843007423, 1.5190948288222206)	(-7.8596808695029985, 4.9953875310013078)	1.0	z	0.945564
6	N	A	A	N	B	M	M	B	M	8	0	shapes	N	4	False	131	(7.7800225665173279, 1.1055998009761971)	(-6.4328201411833037, 6.5766365637440991)	(-1.0043908901723917, -2.9589959290592063)	(-8.747359008580764, -4.5203932881215589)	1.0	z	1.41541
7	N	B	B	A	N	A	M	M	B	8	2	shapes	B	4	True	131	(5.3971814416668362, 2.613318394681766)	(8.1910616215131604, -2.0234226648838467)	(-4.806941442976866, 6.5128666088045275)	(0.33030441258280163, -6.4800110041154024)	1.0	z	1.15827
8	N	B	A	A	B	M	N	M	A	8	2	shapes	A	4	True	131	(7.6802575332272696, 1.3477366646237563)	(2.386418650488741, -1.6563039911455988)	(-3.9567838344203325, -3.3040378739130656)	(4.1912117364629111, -6.4824100984105595)	1.0	z	0.984601
9	M	B	N	A					B	4	2	shapes	N	4	False	131	(-0.81549912218386122, -5.5904221893166088)	(8.0268206551428243, -8.3565623426171651)	(8.5472036155277138, 8.3367434249606376)	(-1.1343123739457814, 2.2556630952791039)	1.0	slash	1.12404
10	N	A	M	B					M	4	0	shapes	N	4	False	131	(-0.17580398399456776, 2.4618538396803249)	(5.8144053361788455, 0.041063136161026748)	(-6.7124282052499389, -8.1293775178264926)	(7.3499910969661499, -7.1274362561174751)	1.0	slash	0.971952
11	N	A	N	A	M	M	B	B	A	8	5	shapes	M	4	False	131	(3.3764295919035572, -1.0551023563130899)	(5.7240982967118903, 2.5385420225414066)	(6.0309896033371952, -5.5999756818662512)	(-5.2567534189356859, 2.7305481861813838)	1.0	z	0.939505
12	N	B	A	B					N	4	0	shapes	N	4	True	131	(-1.2346287828464897, 7.2865260786801507)	(-7.0861155003544436, -7.7593846700759563)	(2.6466707481885923, -7.351226658677704)	(1.5640672065505221, 0.6287014455376152)	1.0	z	1.04901
13	M	A	B	A	M	B	N	N	A	8	6	shapes	N	4	False	131	(-8.3523204257516621, 1.4569598048683261)	(3.5193325092964169, 5.8641634274373668)	(5.3471963128025024, -7.411668063337487)	(-2.301493618995428, -8.2624379100019478)	1.0	z	1.03519
14	N	A	A	B					M	4	1	shapes	A	4	False	131	(5.1360064120516551, 1.8915762579701365)	(3.1733777969870278, -7.2159898400412761)	(-7.3433180869768364, 1.3334965835131474)	(-8.1652583453564134, -5.4245009815345915)	1.0	z	1.24421
15	M	B	A	A	M	N	N	B	B	8	1	shapes	B	4	True	131	(-5.5855360986081877, -5.0231910409859406)	(2.0306609145287648, -5.6083854660309367)	(-0.44583595556227351, -0.83589684410741416)	(6.8412162195515815, 4.0441844991350511)	1.0	slash	1.11716
16	N	B	B	M					B	4	2	shapes	B	4	True	131	(-0.41767668963519355, -1.6645309449324746)	(7.3789889260572785, 4.8820041683615134)	(-1.9211216889329545, 3.5006199738628361)	(5.808922520101202, -3.2119282596274008)	1.0	z	0.933367
17	M	A	N	M					A	4	3	shapes	M	4	False	131	(-8.2028966588475996, 8.4381893834460016)	(5.4579381724651341, 3.0868403025627504)	(-2.4508065046576633, -6.2513723764215978)	(3.959283344238667, -5.1095946740903795)	1.0	slash	1.35638
18	M	B	A	B					A	4	0	shapes	M	4	False	131	(8.5681845090485318, -1.2178175403974034)	(-4.0166637291976706, 8.6301889101274938)	(-0.88438984770871532, -8.0275879875999632)	(5.2855428758714442, 6.1770783808112437)	1.0	z	1.03234
19	N	A	B	N					A	4	2	shapes	B	4	False	131	(4.4685413216800942, -0.15928050550313699)	(5.4099783149477787, 6.3598817873923075)	(-5.1917420128109644, -3.3377627874641007)	(-0.60601291501521537, 4.5677415594033643)	1.0	z	1.01194
20	M	B	B	N	N	A	A	M	N	8	6	shapes	A	4	False	131	(6.3801061808518984, -8.5643173155379362)	(-6.8918399620874515, -8.2965625207055087)	(3.7909713204710247, -3.830577801302109)	(-0.69685628699633817, 3.3194196526621056)	1.0	slash	1.28004
21	M	A	B	M	B	A	N	N	N	8	7	shapes	N	4	True	131	(1.5329038964732575, -4.4196275853454488)	(-1.5587244258292676, 5.1816601227606167)	(-4.757049811363304, -6.7856375275796541)	(5.9276070635551772, 7.5256689145049052)	1.0	z	1.11331
22	M	B	B	N	A	N	M	A	B	8	5	shapes	N	4	False	131	(8.1712426491833092, -6.9248513712538751)	(-0.43872522103450073, -0.66885203730571696)	(-2.764218942232235, -7.4444758889027796)	(-5.2872655579189409, 8.0107080037388201)	1.0	slash	1.11724
23	N	B	N	M					B	4	1	shapes	B	4	True	131	(-2.7016976499728438, -1.4711354119114972)	(-7.5507006583018121, 3.7674888129687503)	(0.67116024147546405, 6.905624803127802)	(1.3647763918502474, -8.1383466968011788)	1.0	z	0.992649
24	M	B	B	M					B	4	1	shapes	B	4	True	131	(3.2280847615149444, -1.9461382367887952)	(1.86295025295526, 7.9638458115396524)	(-8.4879948011627686, 7.6997129853151662)	(-6.1076861002401728, -0.44536864509816176)	1.0	z	1.03607
25	N	A	B	N	B	M	A	M	M	8	7	shapes	M	4	True	131	(3.6799475305738252, -8.4846658024163677)	(-5.0293961796117284, 6.3607791091236177)	(4.5503025407498736, 8.4983262568955347)	(2.0536598496850438, 0.99480085288522346)	1.0	z	1.24556
26	N	B	A	B					B	4	1	shapes	B	4	True	131	(4.0884219111358977, 0.60666560891276688)	(4.5949277171158887, -6.2733918683736638)	(-7.2629987888906937, -3.8001117622231542)	(-3.0570812879397211, 5.5668148612665878)	1.0	z	1.08574
27	M	B	A	M					M	4	0	shapes	M	4	True	131	(-8.6598491572731717, 5.4884224947374207)	(7.1003281953405466, -6.4676516263782382)	(0.76787989264028766, 5.1344908308015746)	(-7.5627562861017106, -8.3088735174495199)	1.0	z	1.05354
28	N	A	M	A	N	B	M	B	B	8	7	shapes	B	4	True	131	(6.9589709207059958, 1.0075071718867417)	(-2.4989693990713926, -5.1055321453466931)	(2.6574470295568986, 0.67208360400486988)	(4.6328344577956262, -3.9132937028446104)	1.0	z	1.57448
29	N	B	M	B					M	4	1	shapes	B	4	False	131	(2.8150750581866308, -3.780114995074733)	(-8.6646888747939332, 1.669306158191425)	(-0.32047673029319768, -8.100253785998369)	(3.5949765029074872, 7.9607927073788289)	1.0	slash	1.12206
30	M	A	M	B					A	4	1	shapes	A	4	True	131	(5.8652920016521932, 1.4278186163067712)	(-8.0414681582533234, -3.879037171555189)	(7.1002046073359875, -3.7053637544014579)	(-7.8088977645668329, 1.7605526309050354)	1.0	z	0.907917
31	N	B	M	N	A	B	M	A	A	8	1	shapes	B	4	False	131	(0.49034952758699646, 1.9538842511009165)	(-2.7877126231299325, 7.0132420213999875)	(-7.1506906003023136, -1.0909823201611779)	(6.2950033640418948, -3.8856877185924175)	1.0	slash	1.32138
32	N	B	N	B					B	4	2	shapes	N	4	False	131	(-4.705579123422921, 0.0010117393905453298)	(5.0926704337253916, 6.891002944448827)	(0.4370836493826733, -7.3367395299265139)	(-0.90906229305782293, -1.9267437458445507)	1.0	slash	1.13734
1	N	B	B	A					A	4	3	shapes	A	5	True	131	(0.71649883699501693, 3.8584810523148718)	(3.3262953256386041, -3.9923126054104818)	(-4.8606932208316174, 8.57918365630632)	(-7.6813862580642542, -5.449098707856006)	1.0	z	1.16726
2	M	B	M	B	A	A	N	N	N	8	0	shapes	M	5	False	131	(-3.3413415314298529, -5.7284141767275454)	(7.4874394046306776, -7.8015082750070892)	(5.1987423281321892, 4.7349146821807153)	(-0.29284381521427605, 8.1102396372009231)	1.0	slash	1.08037
3	N	A	N	M					M	4	3	shapes	M	5	True	131	(3.1878982306510686, -8.6680882212482295)	(-7.486919032978463, 4.4037236558661075)	(-4.9156880271176018, -8.120370776002737)	(1.7370243622451884, 1.4365075071818492)	1.0	z	1.20047
4	M	A	B	A	N	B	N	M	A	8	4	shapes	N	5	False	131	(2.1241227603575332, 8.3211887666429121)	(1.5875310864266492, 0.47339304238610147)	(-6.4242198277501643, -8.2491258784903145)	(-2.6120286276153166, -3.4473881546161804)	1.0	slash	1.11555
5	N	A	B	B					M	4	3	shapes	B	5	False	131	(3.625740819540809, 4.685365264273603)	(-2.3189257004955648, 3.0008911332898141)	(-0.96901755633836029, -5.9594002266524218)	(8.1387084898274509, -4.6403750182881778)	1.0	slash	1.07791
6	N	A	B	N	B	A	M	M	A	8	4	shapes	B	5	False	131	(-2.5908866552367655, 4.6354964381006667)	(6.6631186648717424, -6.2761461304384056)	(-5.3118528818748185, -7.9215771844725689)	(-6.7480812366648122, 5.7745594966872886)	1.0	z	1.09742
7	M	A	B	A					A	4	3	shapes	A	5	True	131	(3.1170149437858949, 6.8126683920691562)	(-0.96678925609250221, 1.7176122489267627)	(-5.7505045932237184, -8.3890842891211577)	(7.9921256679244586, -1.1165341302597067)	1.0	z	1.13277
8	M	B	M	A					M	4	0	shapes	M	5	True	131	(4.8291203752232317, -0.46195546370192631)	(-4.2387036463483465, -1.8887991587883981)	(2.9382489274322605, 6.2962960878353069)	(-7.3209102771076973, 8.6155840690382099)	1.0	z	0.97261
9	M	B	B	M	A	N	N	A	A	8	4	shapes	A	5	True	131	(7.7349569647163712, -7.4836671539486952)	(1.1471477964313781, -2.1320075749721061)	(-6.250708779093495, 0.65303031104550513)	(-5.2983260215338017, -8.2590898526476284)	1.0	z	1.03574
10	N	B	A	A	M	M	N	B	A	8	2	shapes	A	5	True	131	(-0.38354242139050321, 7.4573803463771426)	(-7.9464907720126492, 0.44932237403490305)	(0.93603584324255173, -4.1017604123817915)	(-6.4856063937665809, -4.8481512275842977)	1.0	z	1.25581
11	N	B	N	M	M	A	A	B	A	8	6	shapes	A	5	True	131	(7.8992089003780883, -6.8449708270559686)	(1.476793371397715, -5.0406878155103145)	(-1.3789419840062758, 7.2668427205753119)	(-2.5548712240613476, 2.4576918221761286)	1.0	z	1.08536
12	N	A	N	A					N	4	2	shapes	N	5	True	131	(-0.4666251033201565, 8.1413250493098985)	(-1.4075025758702973, -7.3757699471486609)	(6.7570375487910272, -3.8006133620860485)	(5.6274933361669977, 6.9572072357226276)	1.0	z	0.871159
13	M	B	A	M	A	B	N	N	B	8	5	shapes	B	5	True	131	(-4.4900428419549216, -5.2416164384318531)	(-1.1686957615326081, -2.5283238830591941)	(1.5412038076883547, -6.9008081862791526)	(-0.29781615966679453, 8.5447258534371073)	1.0	z	1.06616
14	N	B	B	A	N	A	M	M	M	8	2	shapes	B	5	False	131	(-8.6830339019702816, 7.7019193414868674)	(-0.56922153381248819, 3.8559515796497994)	(3.4227578436395447, -6.0488835571783319)	(-0.9835327153232285, -1.082127898178749)	1.0	slash	1.08053
15	N	B	B	A					B	4	0	shapes	N	5	False	131	(4.1757260301973602, 1.5372076683735667)	(7.6714426490954466, -1.1402835268495073)	(-2.3011264700445118, -7.104680290988993)	(-5.8162748864105192, 7.4995450461310753)	1.0	slash	1.04818
16	N	B	B	M	M	A	A	N	N	8	3	shapes	M	5	False	131	(-2.9472159539511944, -0.42296887328633659)	(-3.8268183683132291, -5.3343044983474517)	(-3.6647000360303563, 5.2329351269467601)	(7.6423698597404375, 6.3497440437484745)	1.0	slash	0.97706
17	M	B	M	B					B	4	3	shapes	B	5	True	131	(7.7939492733222622, -5.5552399066464231)	(7.5113618034505407, 1.7892451451805194)	(-8.5735561066692494, 1.3112851503802077)	(-5.078543377329634, -7.5843741033897771)	1.0	z	1.07877
18	N	A	A	N					A	4	0	shapes	N	5	False	131	(5.8357869662907831, -0.79192048667497428)	(-3.8217867024368877, 4.1056900148234767)	(-2.9330741116057597, -4.7380168767679569)	(2.5246764760619254, 5.9298152211330528)	1.0	slash	0.998795
19	N	B	A	A	N	M	M	B	N	8	4	shapes	N	5	True	131	(0.88020734937068923, 4.7496668147988199)	(7.3084242549587159, -0.80880729983602606)	(-0.41166994246851552, -8.4951383305927912)	(-5.1086532233778685, 2.0323799454161051)	1.0	z	1.1221
20	N	A	M	N	M	B	A	B	M	8	2	shapes	M	5	True	131	(6.0258269065216901, 3.8280851865635253)	(2.9713069324007115, -4.8494841770117176)	(-3.3160259017591782, -2.4118075603601259)	(1.5921489447392503, 1.7647138867802159)	1.0	z	1.06813
21	N	A	M	N					M	4	2	shapes	M	5	True	131	(4.8525341223340277, 7.1870530385907863)	(5.6307246440548369, -4.0418286713932225)	(-1.1858286166990171, -6.9441726380263589)	(-8.1149808792949987, 0.40111615000179945)	1.0	z	0.917864
22	N	A	B	A					N	4	1	shapes	A	5	False	131	(6.4663448388493574, 8.3983038612149343)	(1.0415322017428696, -0.28641170533667371)	(-2.5733410451942458, 4.5187345200129485)	(-2.0577275486397086, -5.9783079967663593)	1.0	slash	1.07889
23	N	A	B	B					M	4	3	shapes	B	5	False	131	(-5.2288875875717018, -6.3050188138124739)	(1.4313441029066301, -3.6768590278468869)	(0.64108153789117495, 0.28464618404582964)	(-0.073024498636453217, 6.8097522690641377)	1.0	slash	1.29651
24	N	B	N	A	B	M	A	M	N	8	0	shapes	N	5	True	131	(4.0628971978057233, 6.4048393664515597)	(-7.4291799092583748, -2.2385941284456932)	(4.0750462947499457, -2.0564059193211)	(-8.1093878676299944, -6.9216807578271649)	1.0	slash	1.61626
25	M	A	M	N	N	A	B	B	M	8	0	shapes	M	5	True	131	(1.3564837611272367, -1.916814124705291)	(7.266731459688053, -3.1988325360305279)	(-5.1923778202882573, -7.8732267906729509)	(-3.209899900141215, -4.2994387537924217)	1.0	z	1.44779
26	M	B	N	N	B	M	A	A	A	8	2	shapes	N	5	False	131	(-0.10126901257455145, -2.4522835186391854)	(3.6876276692176191, -8.653969259192186)	(6.781991428195262, -1.2682953490171061)	(-6.8512994357451404, -1.8420758907353436)	1.0	slash	1.08945
27	N	A	M	B					B	4	2	shapes	M	5	False	131	(5.2279355845556044, -6.3059080179335965)	(-0.93741008487298227, 0.038563311835554615)	(6.8109337005702475, 3.2185460664415952)	(-4.3776288625348805, -3.0586291476003655)	1.0	slash	1.12905
28	N	B	B	N					N	4	3	shapes	N	5	True	131	(-7.6710229922048008, -7.2311670424636976)	(4.8454758473178483, 2.1557722365965191)	(8.0217589463590606, -7.3540854484368889)	(-6.6035101946913493, 6.9846436518280264)	1.0	z	1.27099
29	M	B	M	B	N	N	A	A	M	8	4	shapes	N	5	False	131	(2.4545414230287417, -0.42570446832294273)	(-2.4558019295508045, -8.1417819263804727)	(-2.5202436775901518, 6.1656474377099695)	(-7.9389382619317299, 3.0545293239368831)	1.0	slash	1.46622
30	N	B	N	B					M	4	3	shapes	B	5	False	131	(0.11469842748402037, -7.1827874423815006)	(7.0585906274247989, 6.9315188143417554)	(-3.9468688917720742, -7.2203691914819261)	(-1.3453783497067135, 6.4198393685501962)	1.0	slash	1.31828
31	M	B	M	A	A	N	N	B	B	8	0	shapes	M	5	False	131	(-7.3670608969360529, 6.4450163460561107)	(4.2538062070834695, 5.3284590457125844)	(-3.0632699758576409, -3.2046000910730825)	(-3.7569160490164046, -7.3430390415404165)	1.0	slash	1.45725
32	M	B	N	M					N	4	3	shapes	M	5	False	131	(-8.266031469484906, 2.9829274971193485)	(-3.4643360767498832, -1.6524413162242375)	(5.9846852280733831, 0.6183364112483698)	(4.6358213950624503, -7.5627426428702114)	1.0	slash	1.17359
1	N	B	A	N					B	4	3	shapes	N	6	False	131	(-6.6339724875879833, 1.3052925379896063)	(5.1169390749752459, -2.2523368351649964)	(-2.5267133952184135, -0.29434754786549178)	(3.7132729209457001, 5.1743752520078363)	1.0	slash	1.21708
2	N	B	B	N	A	A	M	M	B	8	2	shapes	B	6	True	131	(-4.1505106528587365, 0.10370293908614947)	(8.0881818033097304, -3.7923256581458933)	(8.7306610259266719, -8.6558542394068532)	(-5.6377402253727045, 6.9331850453382824)	1.0	z	1.27301
3	N	B	B	A	M	M	N	A	A	8	0	shapes	N	6	False	131	(0.052102204456724976, -5.4233163682647287)	(7.0757426670351755, -6.9033258857369928)	(3.5147292817013032, 2.8949129293488962)	(-4.2113513312759592, 7.4437591508523901)	1.0	z	3.51571
4	N	A	N	B					B	4	0	shapes	N	6	False	131	(-0.18842992148088911, 6.17618027608464)	(5.1727899462661853, -2.0051827816984131)	(-2.8260869707286167, -0.53815785020210427)	(6.0635903057725269, 1.9852358637326777)	1.0	slash	1.2078
5	M	B	A	B	M	A	N	N	N	8	0	shapes	M	6	False	131	(2.4430910285610228, 5.5806989236903846)	(8.6719916897121152, -1.9419554036335223)	(2.2548548422497419, -2.8833359588571597)	(4.7897256757054318, 0.61577426277894887)	1.0	z	1.34498
6	N	A	N	A	B	B	M	M	M	8	1	shapes	A	6	False	131	(-5.0916016479311805, 5.9558380658856294)	(2.9670679878614745, 2.6578581251105735)	(-4.168099431433216, 0.98009289214006934)	(1.9584923084849368, -4.2653345995903722)	1.0	slash	1.23738
7	N	B	A	N	M	A	M	B	B	8	2	shapes	A	6	False	131	(-2.4226132139815739, -1.0652915474120661)	(-8.1688683853795307, 0.54035967663872597)	(4.0060922016542477, 0.74323114048573125)	(-6.1914997686846771, 6.022954741691537)	1.0	slash	1.1522
8	M	A	B	N	B	M	A	N	N	8	7	shapes	N	6	True	131	(2.5936809054003476, -4.7994905519821494)	(-1.134300051102251, 6.0071167612904581)	(6.0400289892883325, 7.9827407173144671)	(-3.9642809742839011, -8.4254239993110929)	1.0	z	1.10819
9	N	B	B	M					N	4	0	shapes	N	6	True	131	(4.1090191479508462, 5.6595923617817672)	(0.017716742491423076, -6.1512672267832702)	(-3.184778348222598, 8.6993748193984857)	(-2.2424777896343713, -1.7527855112799244)	1.0	z	1.1019
10	M	B	A	B	M	A	N	N	M	8	0	shapes	M	6	True	131	(1.3369474524512128, -4.5861438303090525)	(4.4991056517432479, -0.26811273776116806)	(7.274291142181287, 6.3158586575101818)	(-8.354161685466261, 5.5749092566603178)	1.0	slash	1.36262
11	M	A	M	N	B	B	A	N	N	8	7	shapes	N	6	True	131	(-6.995229008434463, 7.5237387651591128)	(3.9752271691611902, -0.85466809750538797)	(6.479348564654579, 2.4966851799031797)	(-2.6454861988509863, 1.2789365012150196)	1.0	z	1.12451
12	N	B	M	N	M	B	A	A	B	8	4	shapes	M	6	False	131	(7.8616806484474573, -4.9493735506010896)	(4.3512265194033226, 4.5137531341001846)	(-4.3295422257922089, 8.1028152980219907)	(-2.8574059392306239, -5.5468772310845758)	1.0	z	1.31045
13	N	A	M	A					N	4	2	shapes	M	6	False	131	(-1.5518338816325716, -4.6479090658204587)	(7.8960245462827565, -7.7869393535150779)	(-2.5955141622900912, 3.3280976781681559)	(0.78255597433485313, 6.7029252367552079)	1.0	slash	1.21642
14	M	A	B	B					B	4	2	shapes	B	6	True	131	(-5.322259011055035, 0.86772900602433722)	(7.7228567173729132, -0.46667967183544157)	(-5.9407707191820434, -6.9930502636979908)	(5.4120277968962416, 2.8796121630878275)	1.0	z	1.35813
15	N	B	N	B	A	M	A	M	A	8	6	shapes	A	6	True	131	(-3.0570139987748552, -7.034529742403052)	(-2.5480306236204253, -0.044434279536979204)	(8.2291368470893715, 2.8096108179700039)	(2.3982632093840763, -2.4783017625047385)	1.0	z	1.06511
16	N	B	A	B					M	4	3	shapes	B	6	False	131	(-0.27888848761359064, -1.6827092395533683)	(-7.6551530921303446, 6.5374041513622227)	(6.8946066879394898, -7.0920773337861496)	(5.6355341290041761, 2.9575177073941816)	1.0	slash	1.00482
17	M	B	A	M	A	N	B	N	M	8	3	shapes	M	6	True	131	(-1.3603949250010778, 2.6572358986759692)	(-4.1807700668676731, -4.2744193786140521)	(4.3547088788604658, -8.4574608627545889)	(5.0665995049310713, 2.510392065760497)	1.0	z	1.07019
18	N	B	M	N	A	B	M	A	B	8	3	shapes	N	6	False	131	(-0.79788283961274242, -7.5420591267085415)	(3.1603757193345885, 5.4332691200384815)	(-2.5692874661713088, -3.0015343228837459)	(-5.216051632444934, 2.3791076357280012)	1.0	z	1.866
19	N	A	N	M					N	4	2	shapes	N	6	True	131	(2.1019522842877976, 2.3462875600865374)	(-8.0055056060307983, -5.9126584247515037)	(-4.3446561009196856, 7.5001473481852585)	(8.6171411150203987, -3.7873084843806444)	1.0	z	1.14357
20	N	A	B	M					M	4	3	shapes	M	6	True	131	(-2.9736397142676712, -1.9094054574729924)	(8.2901847920678975, -8.1237912240606338)	(-7.6238119785668079, 8.4880381460671792)	(1.3410247586576336, 2.7309407231292564)	1.0	z	1.08529
21	M	A	A	N					A	4	2	shapes	A	6	True	131	(-7.6999690462327486, 2.0920366240783554)	(-7.5114033507187745, -3.4331920150957167)	(0.62099876039045654, -6.5816186753409145)	(7.9081889483761039, 6.3731881503639745)	1.0	z	1.00541
22	N	B	B	N					N	4	2	shapes	B	6	False	131	(-7.1710543457976552, 0.4779700955005044)	(-8.4658109800640879, -6.8600843246104519)	(8.1733210372990825, -0.027939049868374255)	(3.728050710251976, 0.61165163692268187)	1.0	slash	1.06908
23	M	A	A	N					A	4	0	shapes	M	6	False	131	(-5.516817518333184, 4.0428816687194082)	(5.442854523266428, -5.9193137424696989)	(-0.13370227985494587, -0.34743928333536189)	(6.226965397715718, 2.6426238444248789)	1.0	slash	1.18277
24	N	A	M	A					N	4	2	shapes	M	6	False	131	(-3.7883597205538111, 8.5269733807275507)	(7.8274768379590753, 0.399919451237297)	(-1.1128673929660007, -2.4074682137410051)	(7.1629004376260585, -5.5345666807017686)	1.0	slash	1.31433
25	M	A	B	N	N	B	A	M	N	8	3	shapes	N	6	True	131	(1.1183991276691128, 6.1566299421582489)	(4.544022981178891, -0.34141491474321661)	(1.3506945242031811, -6.5511130610203878)	(-3.9449778217556171, 5.1553691034970299)	1.0	z	1.20542
26	M	A	N	M					N	4	2	shapes	N	6	True	131	(-7.5447741746360713, -1.9694033542863902)	(-5.597953152341292, 6.7419670379560195)	(2.2739059369977159, 8.2455498366099036)	(6.6595523251570921, -1.8842840861865033)	1.0	z	0.988784
27	N	A	N	M					A	4	1	shapes	A	6	True	131	(-5.823556358569137, 7.0923768948051507)	(0.56951167333294705, 1.4687143840099921)	(-3.3683328945209636, -8.2876301384708295)	(4.3875349374252455, -4.5038815965763437)	1.0	z	0.921228
28	N	A	M	M	N	B	B	A	M	8	1	shapes	A	6	False	131	(2.7598676176408201, -0.83619082526435751)	(0.18858382081804415, 6.0708965738204252)	(-6.271653678267624, -4.8297745521872306)	(-4.0061478283368261, 0.25228383827083434)	1.0	slash	1.04098
29	M	A	N	A					M	4	2	shapes	N	6	False	131	(-6.8881191733688771, -6.058467581341592)	(3.163342163997493, -4.9913149804622776)	(0.73964575158092316, 5.6999654877341097)	(-5.8946215060551239, 7.4305041175380921)	1.0	z	1.04229
30	N	A	M	M					A	4	1	shapes	A	6	True	131	(3.8110658452659454, -3.3912400850311597)	(-5.301289416287851, 4.9919504931838201)	(-0.63266811516583843, -7.3597708253047784)	(5.241605695658393, 0.40224597222213632)	1.0	z	1.05158
31	N	A	B	B	M	A	M	N	B	8	7	shapes	N	6	False	131	(2.0045269701761175, -5.658180755960073)	(4.272077722026868, 1.6970478948766097)	(-8.6961629036713664, 4.033421645878903)	(8.4075723991878384, 4.6460997353781313)	1.0	slash	1.10778
32	M	A	B	N	N	M	B	A	M	8	5	shapes	M	6	True	131	(6.6528137859289771, -3.3902163370878684)	(-1.6027180696576409, -6.8323055485229123)	(-6.1499171208040178, -6.0837477046756643)	(2.72611142046763, 5.6501385365229009)	1.0	slash	1.39302
1	M	A	M	A					B	4	1	shapes	A	7	False	131	(-0.73391624357107865, 4.6453501434525553)	(5.4934430614717318, -2.7682593136539708)	(-6.2820249580160734, -8.1909861296926394)	(4.1130972874888805, 8.1298035834726718)	1.0	slash	0.987045
2	N	B	A	A					B	4	1	shapes	B	7	True	131	(-6.7172052496237828, -8.2604176831515268)	(0.63144525856320755, -3.4630902558919834)	(-1.5968944084289172, 7.0597965151238711)	(7.5303760479006492, 7.5212666297611825)	1.0	z	0.822623
3	M	B	A	N					B	4	1	shapes	B	7	True	131	(-7.2346601634499486, -8.153747190442143)	(5.3384927483153852, 7.4646652240540021)	(6.6631680759206713, -0.5710025921881936)	(-1.4668240225815552, 6.9030189832765014)	1.0	z	1.04974
4	N	B	M	N					N	4	0	shapes	N	7	True	131	(4.386002773097113, 2.5853757170066114)	(-0.87819181325641971, -0.056348734999925654)	(6.1371384795274118, -7.7604527755781003)	(-8.2730449242929431, 4.7046173749151681)	1.0	z	0.802174
5	M	A	N	B					B	4	0	shapes	M	7	False	131	(-0.39950058849827741, 0.62997376946142047)	(6.802216414888802, -5.8110317604987536)	(-0.47353607685139387, -4.0622016748044594)	(3.6019253622254812, 4.5914484721140578)	1.0	slash	0.970943
6	N	B	B	A	M	N	A	M	M	8	7	shapes	M	7	True	131	(8.5969013364069049, 0.22570854680075136)	(-5.6054667061723453, -7.6916126898494586)	(-0.32232944465976843, 0.30937403908544958)	(-6.934457347113443, 5.8941858069304249)	1.0	z	1.01968
7	N	A	A	M	B	N	B	M	B	8	4	shapes	B	7	True	131	(1.1882486726073971, 4.7268532210117922)	(5.7900276740161338, 4.5469298187517495)	(7.4674457814227395, -5.9868210895359777)	(-0.37024472632642436, -5.0637386861659568)	1.0	z	1.09688
8	N	A	B	B					B	4	2	shapes	B	7	True	131	(-0.17166546877788669, 1.2440198838489067)	(5.7837976527138277, -5.3781396343858079)	(-6.2506643901251895, -7.7865853122954674)	(4.8524811379223944, 2.3944861440360583)	1.0	z	0.870413
9	N	B	M	A	A	M	N	B	B	8	7	shapes	B	7	True	131	(-1.0097481765102216, 5.578117277591323)	(-0.50188817638971805, -8.3978510519058052)	(-4.6022585756507342, -2.8934737242560624)	(8.1917316675015499, -4.8457893409188406)	1.0	z	1.00334
10	N	A	A	N	M	M	B	B	A	8	2	shapes	A	7	True	131	(1.0645349992022659, 5.6146848853413491)	(2.1726921862458717, 0.45711013018284952)	(0.16352959356615671, -6.0587761447512483)	(-7.1173297599496692, -0.099835029044214707)	1.0	z	0.803789
11	M	B	A	N					M	4	0	shapes	M	7	True	131	(7.8849327453649209, -3.1059458738676522)	(-5.5684284979327856, 3.1904743898032439)	(4.4638935130585029, 8.2862228656635999)	(-1.9941575052240923, -4.3599088305451819)	1.0	z	0.938834
12	M	B	B	A					N	4	1	shapes	B	7	False	131	(-0.5352902351393638, -4.310076405955658)	(7.8457734024771888, -4.9231893516126046)	(-5.9591781375534261, 4.3127916779241655)	(4.2919685191390151, 2.9980384132577136)	1.0	slash	0.982901
13	N	A	N	B	B	A	M	M	B	8	6	shapes	M	7	False	131	(4.000651536135269, -8.2302232181804218)	(-4.406680690618261, -5.5141984847520558)	(4.7469472436089486, -2.7789076859714958)	(-1.1335946396004299, -2.8173062418099635)	1.0	z	1.01829
14	M	A	N	A					A	4	1	shapes	A	7	True	131	(-7.3607102296072542, 0.87951214939491429)	(1.3537089283888086, -6.6396508568402499)	(0.94079217585035479, 1.4415617590875698)	(-3.5585805336825125, -7.3011201798192058)	1.0	z	0.862131
15	N	A	B	N					A	4	3	shapes	N	7	False	131	(1.3237398854631088, 3.7029933747849917)	(0.95948871457684604, -8.3954350889401024)	(-4.0905558323100397, -1.0025492409534005)	(-7.1518309002060434, 3.7474624030113173)	1.0	slash	0.867386
16	N	A	B	N					M	4	0	shapes	N	7	False	131	(6.6511367187577353, 6.9862031173215762)	(7.3821128046025812, -4.0717423378025632)	(-6.0431965604159563, -3.9740739875546867)	(-5.8621669979114621, 5.6154773484107086)	1.0	z	0.805505
17	M	A	N	B	B	M	N	A	M	8	6	shapes	N	7	False	131	(-3.5086751949505217, 8.3664905053798151)	(2.2342490224870506, 3.3417664452485063)	(-3.5126297423536759, -0.27803608607099939)	(4.6293499744716353, -0.48226720899131159)	1.0	slash	1.07054
18	M	B	N	A					N	4	0	shapes	M	7	False	131	(2.1827290703420612, 8.484885232521993)	(-2.3286645665402324, -0.79242776416003391)	(1.1372109883052364, -4.6356612780632247)	(-5.8636176269342339, 2.3459811656125247)	1.0	slash	1.43289
19	M	A	B	M	N	N	B	A	A	8	7	shapes	A	7	True	131	(7.6081367719912194, 6.2310203393795298)	(5.8382156452557723, 2.3893758027536922)	(-1.147368666864037, -2.273717477301278)	(-5.3873516601080267, 6.0498980449884687)	1.0	z	1.06972
20	M	B	A	N					N	4	2	shapes	A	7	False	131	(-1.3163171405664524, 1.4718113207532149)	(2.3860876058519249, 3.3876867530545685)	(-0.70683441954929371, -5.9530320097364022)	(8.6780418457001147, -6.9715273017861925)	1.0	slash	2.21523
21	M	B	M	A	A	B	N	N	M	8	2	shapes	M	7	True	131	(1.6912816066079817, -7.7208062465852692)	(-4.7307590735297849, 7.4628678142463762)	(8.2356203808182116, -2.322657028496514)	(-4.3388751452346588, 2.1660317019763085)	1.0	z	1.31095
22	N	A	M	N	M	A	B	B	N	8	7	shapes	B	7	False	131	(-2.9715058705732824, 4.2180190642774278)	(7.699187196427367, 1.2987231749409265)	(-5.8659523844824122, -6.133975672278611)	(4.1771450423734304, -6.3188483130999504)	1.0	slash	1.04288
23	M	B	M	N	N	B	A	A	N	8	7	shapes	A	7	False	131	(5.3701003483850283, -7.1403742537385924)	(-5.00004769602302, 8.6363812932534536)	(-2.7065377885419935, -1.2818779914026024)	(5.3375879605899819, 3.8970532842970655)	1.0	z	1.533
24	N	A	A	M					A	4	1	shapes	A	7	True	131	(-4.8747732799127164, -8.6175089140115642)	(7.1312175722039726, 3.7117613778977923)	(-5.2050224533135516, 7.0489807698420908)	(1.1786584002105531, -4.2627009874184418)	1.0	z	1.25571
25	N	A	B	M	N	A	M	B	B	8	1	shapes	A	7	False	131	(2.7383431815667674, 7.3125305374060865)	(-8.1727062775298958, 8.5357640098109719)	(2.3350041605363163, 3.1824417065915913)	(-0.52650005693228152, -1.0266678870110706)	1.0	slash	1.21431
26	M	B	B	A	M	N	N	A	B	8	1	shapes	B	7	True	131	(2.8606109491273912, 6.64808850956166)	(-7.3962309684463712, 7.5826128648062294)	(-4.9573339357229518, 4.0321380012723136)	(7.3081453806855521, -2.9030229074307936)	1.0	z	1.22133
27	M	A	N	M	A	B	B	N	A	8	6	shapes	B	7	False	131	(-4.929602188278313, -7.461872345830483)	(7.6601729670750593, 7.8369088106580023)	(-7.5540031559395011, -0.158213706864613)	(4.2065037603602704, -6.9130138617260988)	1.0	slash	1.31481
28	N	A	N	M					M	4	3	shapes	M	7	True	131	(-3.8213725225379029, 4.4834396165010411)	(1.7177748890297053, 3.182850530851697)	(4.564848036130277, -7.5673279918187006)	(-1.4978360965989737, -3.2746665727138318)	1.0	z	0.942945
29	M	B	A	M					N	4	3	shapes	M	7	False	131	(7.107115299251344, -2.1502671879631956)	(-3.1270137811520833, 3.7971484395499573)	(3.8609695110248126, 8.1321885486044856)	(-3.5356711138902757, -4.3844428251936174)	1.0	slash	1.06662
30	M	B	B	M	A	N	N	A	A	8	7	shapes	A	7	True	131	(-8.3445695534822235, -3.8699225115976548)	(6.7026001077146695, 0.19042777649697484)	(-4.651872367477492, -6.2198822873453778)	(2.1703244192348894, -6.0071224538321539)	1.0	z	1.2556
31	N	B	M	B	N	A	A	M	B	8	0	shapes	N	7	False	131	(7.4911101581840427, 0.74019592249080368)	(-2.4046356237279323, 7.5810345730267557)	(-7.2477395872464756, 7.1768789146219447)	(-2.4859601736187811, -8.7098540623678904)	1.0	slash	1.09372
32	N	B	A	M	M	B	A	N	M	8	7	shapes	N	7	False	131	(-8.2841639247519225, -1.3614805586169618)	(3.9990708151200778, -8.3654084786666161)	(7.9251261047685055, 4.3795694461046519)	(7.6883566890227577, -3.3548018467776988)	1.0	slash	1.10095
1	N	A	N	B					M	4	0	shapes	N	8	False	131	(-2.4735497215078421, 1.125586156834439)	(-5.6879251339820343, -2.342475218221014)	(8.2331308075072762, 1.3866471250802341)	(6.2469846223059982, -6.8038420169352953)	1.0	z	1.231
2	N	A	M	M	N	B	A	B	M	8	6	shapes	A	8	False	131	(3.0853470382321255, 1.7380743863379458)	(0.83597431686114199, -8.6126136388912364)	(0.20288165962745452, 7.39760884071665)	(3.185221909978079, -2.4923708246637606)	1.0	slash	1.21997
3	N	B	N	A	M	M	B	A	M	8	5	shapes	M	8	True	131	(5.7423402959817569, -0.28738775317320098)	(-5.6911385420430669, -5.651901325404693)	(0.68233790599136768, -0.12326870014883085)	(-4.9284069755775066, 0.62125157753653504)	1.0	slash	1.3675
4	M	B	N	N					A	4	2	shapes	N	8	False	131	(-2.7511536938563372, 4.6333346673752356)	(2.9808873527700008, 6.5818570657868971)	(-8.6817211750917327, -2.371336721936351)	(4.3154645699026304, -2.3263496506325403)	1.0	slash	1.10393
5	M	A	M	B	B	A	N	N	N	8	6	shapes	N	8	True	131	(-0.00050513786830208574, -0.49197311632097929)	(-6.0099210991395609, 3.8627625890534123)	(-3.8357015170188067, 7.7503984569092701)	(-8.5826354059312138, -0.4824626293319163)	1.0	slash	1.17307
6	N	A	N	B	M	A	M	B	B	8	1	shapes	A	8	False	131	(0.96234187739287336, -5.0980395085226338)	(0.69458727812022758, 1.461801946100131)	(-6.5092828223834216, -3.778132346330171)	(8.6756196731021795, 1.4466151761078905)	1.0	slash	1.15653
7	M	B	A	A					A	4	2	shapes	A	8	True	131	(-2.3872006785368933, 2.7794507326538689)	(-7.2425934938885286, -7.3628889147356098)	(3.535399915488382, -6.0869861017301501)	(4.5867357696477651, 0.044995422038137889)	1.0	z	1.19679
8	N	A	B	M					B	4	3	shapes	M	8	False	131	(0.84120632358924219, -1.4117154481260137)	(-5.3848796407658774, -2.3808909063625743)	(4.7355495224726791, 6.2572317610840553)	(-5.1097434499724752, 4.9318534883836378)	1.0	slash	1.12642
9	N	A	B	B	N	A	M	M	M	8	6	shapes	M	8	True	131	(-6.7333895347313089, -2.3981118940213406)	(2.8529108926939433, 8.5726014193164026)	(-4.8723201872719821, 5.9414125788641137)	(7.1525438954023208, 0.70444422035888898)	1.0	slash	1.15219
10	M	B	B	A					B	4	2	shapes	B	8	True	131	(4.1404046481780767, -7.9905636642944069)	(7.4503696797815699, 6.0907782696958872)	(-5.4686956835856657, 2.2470725995339702)	(-1.4775243435831058, -6.4762260799565219)	1.0	z	0.937646
11	M	A	B	M					N	4	3	shapes	M	8	False	131	(-0.25538542552777876, 4.4726979134152209)	(7.1957522109505945, -4.2367412491313168)	(3.2713561118133558, 0.54693151360263315)	(-6.4373923851142321, -6.0241827096572944)	1.0	z	0.999388
12	M	A	A	B	M	B	N	N	A	8	2	shapes	A	8	True	131	(-7.6531865733556508, -6.0311413288532139)	(-4.2872722364565758, -3.1771639736247073)	(8.215054501553567, 1.422988014372331)	(0.77543511935839149, -5.2319964725789614)	1.0	z	0.994705
13	M	B	N	B					B	4	2	shapes	N	8	False	131	(-2.1890537787491127, -3.9142920815584317)	(-8.5358483321780501, 7.104523980750221)	(6.7985274377943021, 6.3020607874121186)	(5.3070716852861004, -5.2690723998494349)	1.0	slash	1.15654
14	N	B	N	A	A	M	B	M	M	8	0	shapes	N	8	False	131	(2.0702143392728818, 4.0980752941924816)	(8.5129193388695086, 4.0380123055903017)	(-7.7767987878805744, -1.1474049475839854)	(-6.6236373921389786, 7.1417209865362867)	1.0	z	0.959716
15	M	B	A	A	B	M	N	N	N	8	6	shapes	N	8	True	131	(-8.0074214630240412, -8.2047211498157235)	(-0.70438536179389111, 8.005398893945312)	(0.99926225612895614, -1.3907713970252011)	(-8.0535743332427376, 0.51692444827634532)	1.0	z	1.02739
16	N	A	M	N	B	B	A	M	M	8	6	shapes	A	8	False	131	(-3.9298802905740189, -4.1242630715280022)	(1.1848988297549852, 2.8256903255062849)	(-7.8280994674785127, -8.5007586061304092)	(-3.6397494824186705, 0.46928649623979624)	1.0	slash	1.07163
17	M	A	M	N	B	B	N	A	B	8	0	shapes	M	8	False	131	(-5.657394813881651, 7.5036448057474843)	(-4.7652662196878932, -6.2923204457356903)	(4.447188132459857, 4.7424682123133053)	(-3.6681303700756942, 0.32070632920595976)	1.0	slash	1.33873
18	N	B	A	B					N	4	1	shapes	B	8	False	131	(4.3662778797961845, 7.1703747371162923)	(5.7035591548496871, -3.7948734490708462)	(-6.363083411651381, -5.5079551131055098)	(-5.7368912970209776, 2.69495110411032)	1.0	slash	1.02447
19	M	B	A	N					A	4	2	shapes	A	8	True	131	(-2.0798135212394628, -1.6869003362289696)	(8.4738638746743753, -8.3304173634213097)	(-7.5357777961127228, 5.496012640199833)	(5.7806414007019846, 7.3639305741559724)	1.0	z	1.02049
20	M	B	B	M					B	4	1	shapes	B	8	True	131	(-6.0015867767418003, 0.65913826276077714)	(0.021637356903701388, 4.3369196796638558)	(5.2936190416272293, -5.4835547884304052)	(-1.5230234268589662, -5.1006524616076128)	1.0	z	1.04946
21	N	B	A	N	A	B	M	M	M	8	6	shapes	M	8	True	131	(4.2005536331738256, -4.9655492872516751)	(-6.5200499608521447, 0.63684192387297678)	(8.4977617341014806, -7.8878847149807392)	(2.4686646009463633, 0.54807455888033196)	1.0	z	1.10729
22	N	B	N	M					B	4	1	shapes	B	8	True	131	(6.6410521701855565, -4.3343947415698159)	(8.3822001469518312, 1.0725638686540506)	(-3.2229913172838458, -1.7589417101361544)	(-1.5917918162885405, 6.7569988514791977)	1.0	z	0.775406
23	M	A	B	N					M	4	0	shapes	M	8	True	131	(-1.3561591916724431, 4.2998033779223626)	(-3.4711069936955132, -3.5416421728727094)	(2.2554727229922307, -0.59009977467250962)	(6.2168829615643411, 1.901028257844791)	1.0	z	0.948513
24	N	B	M	A					B	4	3	shapes	A	8	False	131	(-5.1024400624884603, -4.1132011487969971)	(5.1162635344690681, -5.4288669816940445)	(1.0086047032574292, 1.9070037943956919)	(-4.1126431517905155, 4.4774146459610833)	1.0	slash	1.0141
25	N	B	A	A	M	B	M	N	N	8	2	shapes	A	8	False	131	(-3.375967386234775, 1.2135760738583397)	(6.2315062838857838, 3.3002907241590869)	(8.5114936826106877, -8.6437987174642643)	(-4.1329567672906, -3.4651231665807254)	1.0	slash	1.22975
26	M	A	M	B	A	N	B	N	A	8	4	shapes	A	8	True	131	(3.1250609392730535, -0.84303426908789181)	(8.4600736274736725, 6.4159017433466659)	(-1.7749166206640767, 1.5555480499963288)	(-1.6257261980326358, -4.6696489831326762)	1.0	z	1.1394
27	N	B	M	B	M	N	A	A	B	8	1	shapes	B	8	True	131	(0.079051906142842299, -0.050839185413932952)	(2.5236125489160965, -7.2822641366993244)	(6.9929621899361134, 3.9689608095592757)	(-7.861599578866592, -6.0470087524811067)	1.0	slash	1.11147
28	N	A	M	N					N	4	3	shapes	N	8	True	131	(-1.4829669529358602, -7.2309167259191547)	(-0.55514778848648305, 3.545909605140448)	(3.9462263447176298, -6.9568861992662834)	(6.5117645004055635, 1.8421429609754654)	1.0	z	0.867066
29	M	B	A	N	M	A	N	B	M	8	2	shapes	A	8	False	131	(-6.8945656282014722, 6.9843213666790014)	(4.9961050158166582, 4.5202546425626071)	(0.29505209168490865, -5.8763096593362629)	(-7.3738469013700403, -2.0380025308392256)	1.0	slash	1.01402
30	N	B	M	M					N	4	0	shapes	N	8	True	131	(-8.611194220804439, 7.9412610195828712)	(-2.5281824589828004, -5.6987004325225659)	(7.5699947801720668, 6.132065599222285)	(7.370793861859223, -8.1449806711374233)	1.0	z	0.971609
31	N	A	M	N					M	4	0	shapes	N	8	False	131	(0.55172763435103533, -2.9591974503155978)	(7.551147004490538, 0.65772604916428001)	(-7.4616642480328466, -4.170660673176088)	(-3.6779793014094553, 7.3933705891736103)	1.0	z	1.17196
32	M	B	B	M	A	N	N	A	M	8	5	shapes	N	8	False	131	(2.9785976235080724, 2.9063498763255993)	(-8.5421261904590828, 6.3566957298998812)	(-1.1272309754554897, 4.4633478248264549)	(0.01051711135288258, -7.3632712568229506)	1.0	slash	0.987257
