TrialNumber	stim0	stim1	stim2	stim3	stim4	stim5	stim6	stim7	stim.probe	ttl.stims	corr.num	trial.type	stim.corr	block	match	Subject	stim.pos0	stim.pos1	stim.pos2	stim.pos3	ran	resp	RT
1	N	B	A	A	N	B	M	M	M	8	4	shapes	N	Practice	False	132	(7.9026218275459215, 1.1392592202322938)	(-1.762159285737976, 8.1766084675773527)	(6.949578292751065, -8.5019846976115954)	(1.8154732149419726, -4.5602951482576701)	1.0	slash	3.31245
2	M	B	A	B					B	4	3	shapes	B	Practice	True	132	(-5.2407223688600304, 7.225913737852574)	(-4.3549016897610358, -4.270889811606529)	(8.0135165945850737, 2.1103519159518704)	(5.6871205494874246, -4.9069497985164219)	1.0	slash	3.01875
3	N	A	N	A					B	4	3	shapes	A	Practice	False	132	(-6.457960960831544, -3.3956670307007029)	(-1.428834428236442, 2.3687600160134608)	(4.8161901736505417, -4.8749979412539712)	(1.0937111424479067, 6.2687659946561318)	1.0	slash	1.48017
4	M	B	B	A					M	4	2	shapes	B	Practice	False	132	(-3.9153763926365048, -7.1424133776011605)	(8.5204944607747848, -7.5243566911838933)	(6.2225734126911441, 4.7355141021837479)	(-4.247393704737715, 1.4693334905640612)	1.0	slash	1.17754
5	M	B	B	A					M	4	0	shapes	M	Practice	True	132	(-3.8711984672106539, 5.0518135416727539)	(-6.9514722607629107, -3.5558550114727687)	(2.6830930097194177, 5.6844145603887757)	(4.6294932867017025, -3.8163408402774417)	1.0	z	0.958856
6	N	A	N	M	A	B	M	B	A	8	1	shapes	A	Practice	True	132	(7.4368985087715487, -5.3129311115293492)	(-5.453627617007653, -3.0678237958697592)	(-0.60717232300401136, -7.8074238143385326)	(3.1422662645524007, -1.1868441356657895)	1.0	z	1.41001
7	M	B	M	B	A	N	N	A	B	8	1	shapes	B	Practice	True	132	(-3.1064013795117962, -2.5685700253855304)	(3.2037692269731224, 5.4988784375645299)	(3.3946023730430053, -7.7732209214699148)	(4.8763170337401398, -3.1426941699232493)	1.0	slash	1.74802
8	M	B	B	A	N	N	A	M	N	8	2	shapes	B	Practice	False	132	(5.1438566065203535, -7.1860129418930292)	(-7.7884831133907575, 6.476894214425311)	(-0.80003778206259124, 6.426725402893787)	(7.9163639247765332, 2.3027301256055566)	1.0	slash	1.46551
1	M	A	A	M	N	N	B	B	N	8	5	shapes	N	0	True	132	(-2.1771237644609522, -0.93435353515697628)	(-8.3710698564166925, -2.1056230471728998)	(7.0069388998916509, 7.0418977349581908)	(7.1731797435258322, -5.4662394082844159)	1.0	slash	11.4509
2	N	B	A	A					A	4	2	shapes	A	0	True	132	(-6.3625688069384383, -5.201994865672388)	(1.8329658604212788, 7.5968272918410698)	(0.98888305227915119, -4.8095858558327578)	(-7.1529067676830138, 8.105628359262429)	1.0	slash	1.8576
3	M	A	N	B	B	N	M	A	N	8	2	shapes	N	0	True	132	(6.7691863507194725, 2.6810268350561959)	(1.1688936238010612, -4.9842896672206214)	(7.8722578391825877, 8.4346164258408081)	(7.4638309300855568, -7.0146228496778136)	1.0	z	1.00037
4	N	A	N	A	M	M	B	B	N	8	0	shapes	N	0	True	132	(2.3607780175441366, 4.0763159964124878)	(-7.3518741799989442, -7.340793038908676)	(5.8663032786727989, 8.6338895488889769)	(8.6385194519236421, -2.5959243650991199)	1.0	z	1.11636
5	N	B	M	B					N	4	2	shapes	M	0	False	132	(-1.9143256131466311, -7.1950483644730543)	(3.2287696084680881, 7.0049516688703495)	(-2.7936607495942463, 3.4697536072917945)	(8.0513350804226569, -3.3650302084161181)	1.0	z	0.75043
6	N	B	N	A	B	A	M	M	N	8	3	shapes	A	0	False	132	(-8.511827073395585, -5.8982568178876269)	(3.4880443583759035, 2.9396187052729879)	(-2.7955220470720921, -6.5085891093879802)	(0.29383429514786386, 8.719126009342947)	1.0	slash	1.10807
7	N	A	M	N	M	B	A	B	B	8	5	shapes	B	0	True	132	(-7.8885454217566586, -5.1647766948416409)	(2.0483056070381274, -2.0890671634439402)	(-7.9503678588469304, 3.2541754592155989)	(-2.7151404940925365, -3.0769118280639782)	1.0	slash	1.2313
8	N	A	M	M					A	4	2	shapes	M	0	False	132	(-6.0682488722620338, -7.117460760176396)	(0.52213648095747622, 1.3319015932142246)	(-1.9852522289110972, 7.9122641101711899)	(2.8030947356574281, -5.4618184399430652)	1.0	slash	1.32857
9	N	A	N	M					B	4	0	shapes	N	0	False	132	(8.6211039438845098, -4.3569095771225639)	(-1.8622271882917039, 8.592852236262285)	(-3.9881327714984494, -6.5706373292020324)	(1.8677089622424425, 6.5942947518781789)	1.0	slash	1.16098
10	N	A	N	A					N	4	2	shapes	N	0	True	132	(6.8889121090883272, -0.10761203955273402)	(-7.4583062928557524, 1.3717937033362553)	(2.327950516329393, 5.0820238535968389)	(-3.9106799265860772, -1.9424058095403556)	1.0	z	0.862647
11	N	B	A	M	B	N	A	M	M	8	1	shapes	B	0	False	132	(5.354186314775653, 3.3068412409447969)	(-0.34993288427585512, 6.0823166745779691)	(-5.0062708376629299, 1.0656584715384998)	(7.4058765912588918, -3.586160271113493)	1.0	slash	1.01601
12	N	B	M	N	B	A	M	A	M	8	3	shapes	N	0	False	132	(2.7387016741512547, 5.1078300733687527)	(5.9190433811579073, -1.3489018141066769)	(3.9231687296796878, -8.1528022523361301)	(-8.3771734634708022, -7.5102994824625533)	1.0	slash	1.07944
13	M	B	B	A	M	N	A	N	M	8	2	shapes	B	0	False	132	(-7.613052795517973, -4.4370540316718881)	(5.4369705626331388, 6.1576137556402948)	(7.2805455362037108, -0.96393523785102619)	(-1.5013779902889022, -8.2111296859984719)	1.0	slash	1.11478
14	N	A	A	M	N	B	B	M	A	8	1	shapes	A	0	True	132	(2.9018881489086148, 4.0652726290861736)	(-4.0338020254764899, 0.52994323530106158)	(8.0948064996523357, -4.767110871839753)	(1.6938685751133491, -0.22558221751599916)	1.0	z	0.832205
15	M	A	M	B					M	4	2	shapes	M	0	True	132	(-6.7446157994859153, -7.8986254281678008)	(5.2087309952438137, -6.3227424225169377)	(-5.6076204578456199, 5.8063181687254168)	(4.7509134049148969, 4.3746759125938954)	1.0	z	0.940243
16	N	A	B	N					M	4	3	shapes	N	0	False	132	(7.2841017943838935, 6.3396065425799382)	(-2.9104416293150575, -2.060452949734092)	(5.2655233784896627, -5.8339426940499575)	(-4.0437598337013387, 2.0368752954686826)	1.0	z	1.62457
17	M	A	B	N					B	4	2	shapes	B	0	True	132	(8.6200662950259392, 5.4733822722694292)	(-7.5727742702985434, 3.6776611856419876)	(-5.9073985003169636, -1.5263034020654134)	(7.3084581915951894, -7.4808679853143714)	1.0	z	0.901475
18	M	A	A	B	M	B	N	N	A	8	1	shapes	A	0	True	132	(-1.2538382448491898, -0.45328317286920772)	(2.059419211523096, 5.1744375324224681)	(-2.8504402270783693, -6.3317436000746969)	(-7.0545201647282454, 3.3327078445024512)	1.0	z	1.02315
19	N	A	M	B	B	M	N	A	A	8	7	shapes	A	0	True	132	(-6.9249730576864845, 4.340698890112165)	(3.1619635264291031, -6.2424897180232666)	(4.4550760341167894, 7.0834084035110134)	(8.3558527720391815, -6.5621278491850505)	1.0	slash	1.337
20	M	B	A	M	N	N	B	A	A	8	1	shapes	B	0	False	132	(1.2143039978967618, -0.57217889706911151)	(7.4748856413543159, -5.5862299375219155)	(-4.6304489606768611, -1.0052004719156065)	(-7.8064359320603742, 4.5216649045941022)	1.0	z	1.00689
21	M	A	N	A					A	4	1	shapes	A	0	True	132	(0.41949659804518724, 6.4738532728267089)	(-2.0998106839858712, 0.68971565237799481)	(-4.4597104820429756, -2.9606858443417092)	(4.5546863814890042, -4.0303406577835466)	1.0	z	0.758072
22	M	A	N	B					M	4	0	shapes	M	0	True	132	(-1.7410315862015224, 7.9720279206701399)	(-8.6971798454178675, -7.8985397017319183)	(2.7437933019281697, 4.028347980933555)	(6.6547807618725212, -1.2754672712371473)	1.0	z	0.840213
23	N	B	A	B	A	N	M	M	A	8	3	shapes	B	0	False	132	(-7.5434863292891938, 3.960719610550564)	(2.4258263380383518, -6.521805403800176)	(-4.7920588888746138, -6.2790965953933053)	(6.4980464897129284, 5.6323425594263128)	1.0	slash	1.19654
24	M	B	M	A	B	N	A	N	B	8	6	shapes	A	0	False	132	(7.2195594392340254, 5.6326312029894314)	(7.0299008180874694, -1.3290971256755872)	(-1.8552767336279876, -4.3002388750048368)	(2.1290089339611011, -2.18135577929473)	1.0	slash	0.879025
25	N	A	A	N	B	B	M	M	B	8	0	shapes	N	0	False	132	(-4.4061245119475476, -6.9665304119113136)	(7.8222744649204223, -3.6144012262115561)	(1.2410841147904925, 6.4418017733401101)	(-6.652579184921839, 3.6800638301506492)	1.0	slash	1.14643
26	N	A	A	N					N	4	0	shapes	N	0	True	132	(5.7198931258193415, -5.9245204398221105)	(3.5069850317191715, 1.960405733086203)	(-4.6368897788395476, -5.6986173476914761)	(-8.6425495215441348, 5.1375791640013038)	1.0	z	1.85473
27	M	A	A	M	N	B	B	N	N	8	7	shapes	N	0	True	132	(-7.8689481995516743, -6.8620925251296878)	(5.5795684420213316, -6.6942947851263899)	(6.896226024345566, 8.2790551074083254)	(1.8175940593966597, 0.98970499648774357)	1.0	z	0.966194
28	N	B	A	A					M	4	0	shapes	N	0	False	132	(-4.5259225807803718, -1.4160040122502675)	(2.2638645208478589, 0.10384974865923802)	(-7.804297491385574, 4.7204003370394325)	(6.5272766804127151, -7.3725630039873451)	1.0	z	1.34984
29	N	A	N	B					N	4	1	shapes	A	0	False	132	(-5.6240351297353453, 7.3953314266119392)	(0.47404459665180809, 1.4515112140572999)	(8.7232082627254783, -0.055405160787964647)	(-7.5623370810165582, -5.9287878677314243)	1.0	slash	0.977545
30	N	B	M	N					B	4	2	shapes	M	0	False	132	(-3.7513692526382219, -3.1639824594353971)	(4.0552603903111617, 8.4878257469302412)	(7.9021761372342034, -3.0184155552047516)	(-0.87593748193036181, 4.6799832398031143)	1.0	slash	1.06317
31	M	A	N	N					A	4	0	shapes	M	0	False	132	(-6.6461265090611636, -8.1631635785352898)	(5.7975289318916889, -8.4570377889240032)	(-1.8978983803961009, 2.3878579847121451)	(3.7182396694842339, 7.9178856406303737)	1.0	z	0.691102
32	M	A	B	M					M	4	0	shapes	M	0	True	132	(-3.3757651375646969, 6.4140470722090761)	(3.115564811214778, -2.1902503486237945)	(-7.2031729626653984, -6.4175258374686983)	(2.2350972917151299, 7.6615275962500675)	1.0	z	1.05709
1	N	A	N	M	B	B	A	M	A	8	2	shapes	N	1	False	132	(8.1460251473970331, -1.7736568517076892)	(-8.3358996226855915, 3.4127315112118151)	(7.3088002950015287, 8.7219111201147221)	(-2.4072099310368475, 3.4752918668567325)	1.0	slash	1.24756
2	M	B	M	B	N	N	A	A	M	8	7	shapes	A	1	False	132	(6.1172010813686963, -2.5426220689494921)	(3.2995893587862852, 7.5630327577643186)	(0.15497279097473005, -8.4988953870911335)	(-5.7128628220999875, -0.32019558442601515)	1.0	slash	1.07329
3	M	A	B	M	B	A	N	N	A	8	0	shapes	M	1	False	132	(-7.1750263848781355, 1.8248316838117802)	(6.9393714499122563, -8.7308857631091339)	(-0.99644677839523865, -8.3438572238393238)	(2.5504430381938938, -1.8914147094948692)	1.0	slash	0.818887
4	M	A	A	M	N	B	B	N	N	8	4	shapes	N	1	True	132	(4.0777475622661914, 3.3376075275899257)	(8.3426093674121446, 2.3018142558738308)	(-3.8939563849278542, 1.0850838506877913)	(-4.7618125930149269, 5.9615970572544477)	1.0	z	0.793316
5	N	B	B	M					A	4	3	shapes	M	1	False	132	(-2.8456763623374171, -4.5888386479821088)	(2.4802332875292947, 6.4784499159487545)	(2.5480588369065664, -5.2515561085986295)	(-2.7687757947548421, 3.225556858189119)	1.0	slash	1.21008
6	N	B	B	A					M	4	0	shapes	N	1	False	132	(-6.6147839061458606, 1.0960762079835629)	(6.9281217571109863, -4.0353253475191222)	(-5.3151067563575065, -6.4690691767906205)	(6.0959309422962136, 5.2671568368878869)	1.0	z	1.13756
7	M	A	A	B	B	N	M	N	M	8	6	shapes	M	1	True	132	(-0.48438202794991447, 2.6574647664474416)	(0.094809196964398268, -5.6730159651236072)	(-5.9937657160511275, -2.0597938043750226)	(-6.7645767193544524, -8.4606175768993577)	1.0	slash	1.60143
8	N	B	B	N					B	4	2	shapes	B	1	True	132	(7.9766239602595412, 8.3036742471628493)	(8.5988379422976244, -5.8629537387268513)	(-0.80662649255025709, 2.6438268432961998)	(-6.5048141222122791, -3.9715084044937585)	1.0	z	1.04104
9	N	A	B	A					B	4	2	shapes	B	1	True	132	(5.0121429339685069, 0.50370205894066267)	(-5.3949752250561502, -8.1273623381700979)	(3.5540989798460068, -8.0962111870525373)	(-0.53318488591852109, 7.6078721868837107)	1.0	z	1.17869
10	N	B	A	N					M	4	3	shapes	N	1	False	132	(-8.3685262162207774, 5.4892021793379406)	(2.593023701154225, 1.2879802712117634)	(-5.6437934576064492, -0.4945355428802074)	(3.961442145471807, -7.4443292038970075)	1.0	z	1.30873
11	N	A	M	B	M	B	A	N	M	8	2	shapes	M	1	True	132	(-5.1720788735430281, 8.6704240201946803)	(-5.4004475742083686, -6.2849093058457974)	(1.0765843560804544, -0.38009189189014236)	(-7.6705751143663932, 1.8425237783974584)	1.0	slash	2.10792
12	M	B	M	A	B	N	A	N	M	8	6	shapes	A	1	False	132	(-8.6041839936977649, 5.0309460176922141)	(4.693419120202563, -1.6214978513774678)	(7.7450304615891667, 7.6068516505040726)	(6.7396586946692114, -5.0682661995326406)	1.0	slash	1.50539
13	N	B	N	B					N	4	0	shapes	N	1	True	132	(-0.61688563012756781, 3.1589250948971248)	(5.8112966532551287, 1.9262740239793654)	(6.3539721914944849, -3.0214538968844966)	(-0.24543116932197329, -7.7844733541123325)	1.0	z	1.69307
14	N	B	M	B					B	4	1	shapes	B	1	True	132	(-2.8471521673603917, 3.6287679573639124)	(7.3176048138896199, -3.0404238474583147)	(2.3077587974986482, 5.13442670672773)	(-3.6669345042539927, -2.9757509210396345)	1.0	z	0.932549
15	N	A	A	M	B	M	B	N	B	8	6	shapes	B	1	True	132	(-8.6977753017009203, 1.0694945408905863)	(6.5384464844280732, 1.0686561403348271)	(7.288983778105635, -4.6124528033288295)	(5.7919285606469675, 8.4571822456347405)	1.0	slash	1.24684
16	N	A	M	M	A	N	B	B	M	8	7	shapes	B	1	False	132	(-5.5507922022962202, -1.0989145105408786)	(5.7974827853824635, -5.1685607136966079)	(-0.70627355150250182, -4.0024001788983981)	(4.7564653156445438, 2.5546985049553239)	1.0	slash	1.05595
17	N	B	A	M	N	A	B	M	N	8	0	shapes	N	1	True	132	(-1.8646420644575805, -0.094461569351553365)	(5.1845830535556878, 7.8996230441162574)	(-4.1999307006737041, -7.8588045663486392)	(0.67471805035102328, -4.218733425691978)	1.0	z	0.835789
18	N	A	B	B					A	4	1	shapes	A	1	True	132	(-4.62318776069697, 0.8640728413275589)	(3.095012572420325, -2.4888013281060752)	(2.9880202492814529, 6.3561767871263957)	(-1.369229487281391, -7.3871300219404006)	1.0	slash	1.13305
19	N	A	A	B					N	4	2	shapes	A	1	False	132	(7.6564618624427645, -7.2464559738910008)	(-2.6077215530854811, -0.15808875317810767)	(1.0831848126793595, 6.0336494303281256)	(-2.9042151095427018, 8.2271169169953922)	1.0	slash	1.33069
20	N	B	B	A					B	4	2	shapes	B	1	True	132	(0.059817605014394815, -1.6039507201464831)	(-3.7004255519028115, -3.1473973864179587)	(5.061355270407434, 4.0516057607201414)	(-2.7504356056849595, 1.5329249830049765)	1.0	slash	2.39269
21	N	A	M	M	B	N	B	A	M	8	6	shapes	B	1	False	132	(0.88105872632761262, -5.8091729129187719)	(-3.3670190921762213, -2.1519710010403177)	(7.8881192822303774, -5.887009004684467)	(-5.8261890573976709, 7.9855294881533609)	1.0	z	0.973837
22	N	A	M	A	B	N	B	M	B	8	1	shapes	A	1	False	132	(-5.251470597236052, -2.8439595797338431)	(-5.8449867084410645, 3.9827045920427615)	(-1.0530226199043433, 6.7054906190958334)	(-1.845827206480668, -0.29868952645711033)	1.0	z	0.844141
23	N	A	N	B					M	4	1	shapes	A	1	False	132	(-3.5034159137139929, 0.13075301791086247)	(2.2942659115328894, -8.3634994502015001)	(2.328740738097661, 5.5589457079758073)	(-8.0256793319099486, -4.4207317373188317)	1.0	slash	0.948785
24	N	A	A	N	B	B	M	M	M	8	6	shapes	M	1	True	132	(-5.091914045299581, -4.970319556429752)	(-5.4457105379773436, 4.9124316369956542)	(3.7856580349029834, 0.29039464908001911)	(-0.96363443924373016, 2.8500780713697527)	1.0	z	1.26082
25	M	A	M	N	N	B	A	B	A	8	7	shapes	B	1	False	132	(6.1007414248403915, -8.5117937861871891)	(-8.6810705843447629, 1.1129342157300233)	(-0.44684964750973855, 2.0283202496488784)	(6.4436861489970365, 0.18744429381880323)	1.0	slash	1.36445
26	M	A	B	A					B	4	3	shapes	A	1	False	132	(-0.80263700575427066, 4.8915350642593101)	(3.390782521728358, 7.8792772307046306)	(0.57419032074581899, -1.5440454622881683)	(-1.3857704212510944, -7.9195304299202842)	1.0	slash	0.96194
27	M	B	B	N					B	4	1	shapes	B	1	True	132	(-0.88897798060415667, -1.4989908940564804)	(-7.0544243596795839, 8.1963362692472082)	(5.4224825646939561, 7.3723555271668602)	(4.6598052629335847, -5.66782270107805)	1.0	z	0.843598
28	M	B	A	B	M	N	N	A	M	8	4	shapes	M	1	True	132	(-5.7944255055949601, -2.9234564267155836)	(4.6115976886689261, -1.3320796884589852)	(3.6566021211888575, 8.3659304617213586)	(2.2031536348712635, -8.7344205316406143)	1.0	z	1.61559
29	N	B	N	M	A	A	B	M	M	8	3	shapes	M	1	True	132	(0.65375467642656204, -4.2366898442270102)	(-3.0238026005019227, 5.1168105731749414)	(8.6045758442610527, -0.023413742049134711)	(-1.2269443374605356, 0.8128553252757591)	1.0	z	0.811451
30	M	B	A	M					N	4	1	shapes	B	1	False	132	(6.685602113642334, 0.66650798465756189)	(-0.8016590761153104, -1.4509811008270868)	(-0.98635853510591964, 7.4544458835332108)	(0.89398372995700548, -6.8212345916505575)	1.0	slash	1.09062
31	M	B	N	A					A	4	2	shapes	N	1	False	132	(0.46930105041115056, -4.9867258168493844)	(0.92494204105156363, 4.6569288354380642)	(-7.4985218341670539, 7.9280395893552829)	(-0.56075115605240455, -1.1096323473404031)	1.0	slash	0.874065
32	N	A	N	M					M	4	3	shapes	M	1	True	132	(6.1398095923951423, -4.6991121946968182)	(-2.421796795669076, -8.4800531486617814)	(1.0492221095705379, 2.2888700055855029)	(-1.4798637144132432, 6.422604970239485)	1.0	z	0.769711
1	M	B	M	N					N	4	2	shapes	M	2	False	132	(8.6760790342273673, -4.472064267145698)	(-2.3619464521570723, 8.1280037449100284)	(4.3039894125319442, 8.1348699412942551)	(-6.339521210797491, -5.3393908336816924)	1.0	slash	1.84547
2	N	A	N	M	M	A	B	B	B	8	6	shapes	B	2	True	132	(-7.1454499316442446, -6.0886632548991919)	(-2.326664174569343, -3.0913144674772663)	(-8.2228872065046392, 5.7614826804738204)	(-1.1435844967142561, 7.9605049543240938)	1.0	slash	1.113
3	M	B	A	B					N	4	3	shapes	B	2	False	132	(5.9775227499669477, 7.6142504033812131)	(6.9069553719587855, -1.1046840802763604)	(-8.3907662099083691, 0.82371888062992937)	(-4.1972744732903653, -3.7338295546974614)	1.0	z	1.22678
4	M	B	A	N					A	4	2	shapes	A	2	True	132	(5.9220386405999985, -0.14424079353951491)	(-5.413536437059884, -1.4128413293796855)	(-6.8247528805676856, 8.0554770373558959)	(3.5604368414226908, 7.5377103542064603)	1.0	z	0.840424
5	M	B	B	M	A	A	N	N	M	8	3	shapes	M	2	True	132	(-7.0962864471089828, -2.1252571047951241)	(-0.48256525124090466, 7.5978026960307403)	(-7.4041189790458635, 3.9630710535412188)	(6.7843853949054278, 2.8386148529611699)	1.0	slash	1.73399
6	N	A	A	B	B	N	M	M	M	8	2	shapes	A	2	False	132	(7.8982496405550435, -7.8825992696586846)	(4.501383533727072, -5.4056460526783594)	(-4.1086927869574108, -1.2380407588913371)	(-1.7478765126869744, 7.6114780867098126)	1.0	z	1.41362
7	N	A	N	M	A	B	M	B	M	8	2	shapes	N	2	False	132	(8.6880485343356249, -8.6539384886823658)	(-5.451105989155117, -6.9938265085925178)	(-0.71270304439295451, -4.5598061210907259)	(-1.0837455655521362, 3.4135623897482059)	1.0	z	1.74324
8	N	B	A	M					A	4	2	shapes	A	2	True	132	(6.2961701700109618, 7.1876056027489579)	(-3.7768296365601879, -3.4700751739531865)	(-6.5492787303031568, 5.3764578051945922)	(1.5908195139387828, -5.8576133951104667)	1.0	z	0.867484
9	M	A	N	A	N	B	B	M	M	8	6	shapes	B	2	False	132	(5.4391878069000885, 3.0532689615642123)	(-5.6055793492249713, 4.1836371844466029)	(4.0832638459738622, 7.5666274405225877)	(5.2313145362982887, -2.779679484116552)	1.0	slash	0.726267
10	M	A	A	M					M	4	1	shapes	A	2	False	132	(7.5749915131858181, 1.0201653644839279)	(-7.9551468134399856, -5.2891477858650102)	(-5.3122619759617873, 6.4402672526050786)	(2.1370514369230236, -8.3015581760503938)	1.0	slash	0.774161
11	M	B	M	N	B	A	N	A	N	8	2	shapes	M	2	False	132	(-6.3339188121047112, -8.0117276511901174)	(-0.70899366972226296, -8.0700825840311783)	(3.1171499248860108, 3.0665720979466968)	(8.2204334732499866, 1.3239121308375381)	1.0	slash	0.968272
12	N	B	B	M					B	4	1	shapes	B	2	True	132	(-5.1983315045297775, 4.3655579803739357)	(4.2908009759340704, -0.56169998362618934)	(-6.4119854120397566, -7.7776544362797919)	(0.04159295291820797, 1.7702985129120634)	1.0	slash	2.00714
13	M	B	N	A	A	B	N	M	B	8	6	shapes	N	2	False	132	(2.657901184138014, 2.406682911340198)	(-2.0434529445131542, 2.0950042782091991)	(7.7165157360426129, -5.9816443751750548)	(-7.9255920049604756, -3.0889048604402118)	1.0	slash	1.3295
14	N	B	A	B					B	4	1	shapes	B	2	True	132	(-3.7640816043988243, -3.6489762181671841)	(-4.3889714397856894, 5.5651418034482347)	(2.5645632046912343, -1.7758375319573902)	(4.0711654397839254, 3.4613056264137665)	1.0	z	0.873058
15	M	A	A	N					N	4	3	shapes	N	2	True	132	(2.2855428204924007, -6.4858834554537381)	(-6.1956678681800925, -4.2356116950308627)	(6.3614843739056308, 4.3337170125946987)	(-2.3401958917754762, 3.6281239644965311)	1.0	z	1.4842
16	M	A	M	B	A	N	N	B	M	8	0	shapes	M	2	True	132	(5.2933995747192739, 2.7465632956132406)	(1.7391929852815622, -5.93648535278599)	(-0.10260485843416234, -0.92894294162254987)	(-3.7716634002219251, -6.164556007595051)	1.0	z	1.06954
17	N	B	A	A					M	4	0	shapes	N	2	False	132	(-1.0530926432149288, 8.167651688966977)	(6.9515454447578691, -3.2307282389730174)	(-3.5643350502806879, -0.056531802110630025)	(4.4274327900009762, 7.381730143929957)	1.0	slash	1.4259
18	N	A	B	A					N	4	2	shapes	B	2	False	132	(7.8535958691646854, -5.7678995207115022)	(7.858878341136105, 6.8451532131849397)	(-3.1860589898874609, -3.7084432935582177)	(-6.5133332567125404, 5.0178356488952041)	1.0	slash	1.06692
19	N	A	A	N					M	4	0	shapes	N	2	False	132	(3.8979994281983341, 8.4652354320217817)	(4.3264521271646856, -7.9802545405640384)	(-5.8072827508076763, 7.4437511698431926)	(-4.5254648471528558, -3.7392905086422603)	1.0	slash	1.02468
20	N	B	A	A					A	4	3	shapes	A	2	True	132	(-3.8429870977324265, -6.9472395657203023)	(-4.4796104786463316, 3.3176227487510381)	(5.1351850940873831, -0.038713739854099316)	(6.5883814988034928, 4.4912482148459958)	1.0	z	0.934181
21	M	A	N	M	B	A	N	B	N	8	7	shapes	B	2	False	132	(4.4886502359384206, -5.2900729266108666)	(-7.4075551665650377, -6.8179375522869261)	(-3.4177327294751976, 2.2328032236506967)	(6.8288240095257269, 4.9095413768733689)	1.0	slash	0.915843
22	N	B	B	N					N	4	0	shapes	N	2	True	132	(1.7985148349799527, -7.7945988957429764)	(-5.082191342658251, -3.1259059087582228)	(-5.9262722655367357, 3.0764410425096091)	(5.9283193770956508, 1.1540928752457535)	1.0	z	0.757619
23	N	A	B	N					M	4	2	shapes	B	2	False	132	(-5.8396872164496809, -5.588910595169116)	(1.4547621769098757, 8.1786840067617277)	(-0.72491900106754947, 3.6650416418137155)	(3.2195007806594749, -7.2009340071556869)	1.0	slash	0.804978
24	M	A	M	B	N	N	B	A	N	8	4	shapes	N	2	True	132	(3.9773842893093896, -1.1603784851588994)	(-0.27265345914784511, -6.2657907616515516)	(-1.0794940419814223, 5.4287430142622899)	(3.8077671606181234, 5.339380585259514)	1.0	z	0.979193
25	N	B	M	B	A	A	M	N	B	8	3	shapes	B	2	True	132	(-7.4825802339991316, -4.5591141413692249)	(2.8100554447635595, 8.60678982399887)	(4.1889843684999111, -4.4511982318535948)	(-1.3515333273508885, -8.7430652020323816)	1.0	z	1.07339
26	N	A	B	M	N	B	M	A	N	8	0	shapes	N	2	True	132	(6.5097180121264664, 1.6116596950801956)	(8.4351507774512235, -4.1394402079784873)	(1.6412471718899706, -0.6012176656963657)	(3.1117577880152432, 6.2022616247605313)	1.0	slash	0.790205
27	N	A	B	A	B	M	M	N	B	8	4	shapes	B	2	True	132	(3.1685137064186879, 8.1078873937626312)	(-6.7818915156232258, -1.1301590255734828)	(-0.54541484216520075, -7.357226495300548)	(-1.9638776248885126, 1.6058793909314613)	1.0	z	1.09839
28	M	A	N	M	N	A	B	B	B	8	7	shapes	B	2	True	132	(-7.0247018064231312, 8.0850988269279043)	(-6.2082579501072743, -2.9104462019759518)	(8.0480219733690888, 7.7147219274512473)	(0.24727655083537314, -0.60590297725124032)	1.0	z	0.751411
29	N	B	B	N	A	A	M	M	N	8	2	shapes	B	2	False	132	(-7.6568044136689792, 0.9009419647232324)	(3.9530546349184892, 7.5316753058865693)	(1.3141689158435508, -8.3242392912899579)	(2.9018968147548971, -2.2891476321980173)	1.0	slash	1.08562
30	N	B	A	B	A	M	M	N	A	8	6	shapes	M	2	False	132	(3.6148779817443621, 0.93081907994328716)	(2.4338333720698415, 6.0081987362515648)	(-7.7636742274608626, -7.9010867742265658)	(1.7886243840667362, -3.4479958732454685)	1.0	slash	1.65504
31	M	B	M	N					B	4	2	shapes	M	2	False	132	(2.1903333572666561, 7.5113240159114554)	(4.616980407701341, -7.697854606997014)	(-7.1188338674864493, 1.1609854516402596)	(-3.8934821167659983, -5.3657988269073886)	1.0	slash	0.748069
32	N	B	N	M					N	4	2	shapes	N	2	True	132	(-1.7282246430996855, 2.6741540560279784)	(4.2415123094594005, 1.3926241687881955)	(-6.9120392218087225, -6.688631153045864)	(7.1658797134833065, -5.1806192529126385)	1.0	z	0.967806
1	N	A	A	N					N	4	3	shapes	N	3	True	132	(4.4866560451224711, -3.9303776031218352)	(-3.857713376114198, 2.6237393112156404)	(-3.4625123269068183, -3.9982501316482564)	(3.6428793564510649, 5.0895843756737573)	1.0	z	0.695485
2	M	B	N	M					M	4	0	shapes	M	3	True	132	(-5.5171550477826266, 0.38213937972547818)	(-4.3675339175284158, -6.1170848320859879)	(1.3323468686177762, 0.75142615228275922)	(6.6527836580163626, -3.6225118590619561)	1.0	z	0.781348
3	M	B	A	N	B	N	A	M	A	8	7	shapes	M	3	False	132	(-6.0229997821754822, 8.1634417591967008)	(-5.0857254152781266, 3.373612124979207)	(1.8468954149100476, -3.3744136254071773)	(6.5288504310829598, 7.824790081636305)	1.0	slash	1.36498
4	N	B	N	M	B	A	M	A	M	8	7	shapes	A	3	False	132	(-1.9482265106561503, -7.2960020501897196)	(-3.0332008598119149, 4.8303812003537523)	(-3.6018296693317593, -1.8291366034809355)	(7.6672851623880263, -8.0031789092395229)	1.0	slash	1.15055
5	M	B	N	B	N	A	A	M	M	8	2	shapes	N	3	False	132	(-0.40110787612678145, 3.3032604502036822)	(8.5338077131863912, 8.0027626154532534)	(3.8124022244549689, 6.1651095598518584)	(-0.64224551805832419, -5.7995655200645535)	1.0	z	1.36406
6	N	B	N	B	A	M	M	A	M	8	5	shapes	M	3	True	132	(8.0881477087934179, -6.6899062744917721)	(6.7583453928159116, 4.69690697992446)	(-6.2510697409122544, 7.8966266024830496)	(5.5881709293822492, 0.43580673582939156)	1.0	z	1.28437
7	N	A	B	B					B	4	2	shapes	B	3	True	132	(-3.7494615639591871, -0.24835097148063667)	(0.65877184472076777, 0.51852363874188079)	(1.8731564025383545, -5.7937870271249512)	(-7.9917860998267383, 5.9247018470130648)	1.0	z	0.949998
8	M	B	B	N					B	4	2	shapes	B	3	True	132	(3.514668564221326, 0.13355141626217915)	(3.9317281434739435, -5.080232370461383)	(-5.2159298020643341, -3.547956340394598)	(-1.3321944125420213, 7.0176634130651898)	1.0	z	0.751004
9	M	B	M	B	A	N	N	A	M	8	6	shapes	N	3	False	132	(0.42248105638936018, 1.5310841915128695)	(-1.5312314508030518, 8.1097732759312144)	(5.7396471661292381, -3.7075768722065101)	(-1.9017422720479278, -3.1611026276382175)	1.0	z	0.710571
10	N	B	A	M	B	N	A	M	A	8	2	shapes	A	3	True	132	(-8.2725611747617425, 6.1865295130185327)	(2.4912387307938459, 2.924467507945792)	(-5.6868388714033822, -1.9551542994062521)	(-1.914190934486161, -8.5722760222287668)	1.0	z	0.773791
11	N	B	N	A					A	4	3	shapes	A	3	True	132	(-1.928178309731595, -6.2751675597533598)	(2.4826672873399929, 5.1250317898036659)	(-6.9671470878767838, 8.6312875722513986)	(6.4667786941743479, -0.5679180228300158)	1.0	slash	0.892545
12	N	A	N	M					M	4	0	shapes	N	3	False	132	(-7.0478199047504368, 3.9543027788189828)	(1.163286371505988, 1.2579726532876272)	(-4.245303334480516, -6.1623458363129933)	(3.8005082087286635, -2.2510627284678737)	1.0	z	0.90805
13	M	A	M	A					B	4	0	shapes	M	3	False	132	(1.7210903158901409, -6.8798889813843349)	(-4.9685230834683978, 2.3844402032190466)	(-4.7447501244147627, -2.0024755445520492)	(4.3471139530944569, 0.30986378210876531)	1.0	slash	1.16785
14	N	A	A	B	B	M	M	N	M	8	5	shapes	M	3	True	132	(-3.480651146480267, -4.521719916575039)	(7.0378983571880358, -1.4765752547782167)	(-8.2525577590402435, 5.1071758707192672)	(-7.8139835394416153, -7.2886759279371089)	1.0	z	2.19492
15	N	B	M	A					A	4	3	shapes	A	3	True	132	(-1.6343186245383325, 1.0344912511145097)	(3.1964371581369715, -6.4241325961131679)	(6.5759538186910831, 3.2784510346300664)	(-2.9792530515425524, -6.1081653104803433)	1.0	z	1.93999
16	N	A	A	B	N	B	M	M	A	8	6	shapes	M	3	False	132	(-6.9941529556953483, 4.4294579708020034)	(3.752787738101464, -0.87906343047404256)	(1.6534201300772597, 8.4976053969992655)	(-2.0420721171678302, 5.2678894373371712)	1.0	slash	1.31596
17	N	A	A	N	B	M	B	M	M	8	0	shapes	N	3	False	132	(-5.7452222571460005, -4.9351063834107682)	(-5.9896457558679774, -0.62429524171816908)	(2.0582839245888014, -4.5644993618817669)	(3.2553197060296899, 8.094200973725993)	1.0	z	1.19346
18	N	B	N	B					A	4	3	shapes	B	3	False	132	(4.4946935757933382, 0.66086481948439513)	(-4.853445536875757, -2.3279014793039954)	(-2.8997730392242218, 5.1351969629871785)	(1.7281836694838493, -2.7113998431120372)	1.0	slash	1.24184
19	N	B	A	M					A	4	3	shapes	M	3	False	132	(-0.20534122603622862, -1.6194309445492578)	(-1.1092411791075918, 7.6955355148155924)	(5.4012675727726815, 8.0512219675485426)	(7.1543187015020919, -6.0752761946142222)	1.0	slash	0.904767
20	M	B	N	N	B	A	M	A	A	8	5	shapes	A	3	True	132	(-1.3031277466772409, 2.7227069263199688)	(-7.5587913685163972, -4.3179700178116009)	(5.754693946962151, 3.2350157046689407)	(5.7092718620960579, -8.579649316023632)	1.0	z	1.24655
21	N	B	M	M	A	A	N	B	M	8	7	shapes	B	3	False	132	(6.3257564550088468, -1.6461828380326979)	(-6.8075117799779523, -4.9420658115532188)	(-3.5304469893782366, 6.4271314406970728)	(4.8685203938940074, 6.9132769334663529)	1.0	slash	0.896109
22	M	A	N	B	M	N	A	B	M	8	0	shapes	M	3	True	132	(-7.2200285470329533, -4.5134472446224265)	(-7.3334971943797882, 5.9659179174077668)	(1.62536885694551, -0.79989708020488504)	(5.8899627054157477, 1.6491520120822809)	1.0	z	1.10224
23	M	B	N	A					B	4	2	shapes	N	3	False	132	(8.5282461132008685, 6.906261501134777)	(-7.1287638945201994, 0.18892056661978351)	(-2.4872506393173293, -7.9207169341682206)	(4.3182507402733918, -4.5311888902907596)	1.0	slash	1.09123
24	N	B	M	M					B	4	1	shapes	B	3	True	132	(-1.3946359328740003, -5.0408484945349201)	(0.86667295883059126, 8.3417166883891554)	(-3.8786408110923443, 3.615801957075492)	(2.2419691149826875, -2.3776702479034881)	1.0	z	2.09949
25	N	B	A	B					A	4	2	shapes	A	3	True	132	(8.4531094482397009, 4.163735954846647)	(-7.9078695629194016, -6.0020564462406814)	(1.0041646538997302, -0.22633144360185931)	(-0.32419794160676751, 4.7058846612669747)	1.0	z	0.894384
26	M	B	N	A					A	4	0	shapes	M	3	False	132	(-7.7495289297284531, 7.7811570715025802)	(-8.1773179144097945, -6.6692542003087176)	(1.9744944493416128, 2.4572754718293481)	(1.0348260099667073, -4.9141890465948714)	1.0	slash	1.00575
27	M	A	M	A	B	N	N	B	B	8	4	shapes	B	3	True	132	(5.101320497405359, 7.931423023715638)	(-2.4961585899137981, -0.98413178441464311)	(-2.1250776928328952, 7.9411894347015277)	(4.6564514557396688, -4.3095910907062116)	1.0	slash	1.11191
28	M	A	B	N	M	B	N	A	A	8	5	shapes	B	3	False	132	(1.605299765718982, -5.0197501772336723)	(-1.4278219277769217, -2.1623404589533788)	(7.8604520987717699, -7.8706594544292354)	(6.1076310569036174, 4.8616344663731148)	1.0	z	1.30944
29	M	A	M	B	N	N	A	B	A	8	1	shapes	A	3	True	132	(-8.6422730779431731, -2.4054482844613263)	(-3.9073408597340169, -8.6200817407285157)	(-6.4956931960752042, 8.2737998684736631)	(0.31428742425746314, -0.7502259036742025)	1.0	z	0.843005
30	N	A	A	B	M	B	N	M	N	8	0	shapes	N	3	True	132	(1.6230313523197832, -2.7058389409715415)	(-4.6813854703654396, 7.0174838652943148)	(1.8814141498483821, 2.033640280152607)	(-8.3967619781575031, -7.556502689660701)	1.0	slash	1.21938
31	N	A	N	M					M	4	2	shapes	N	3	False	132	(-1.488139560143301, -6.2866534094827422)	(-4.6381789377007179, 7.387377396140014)	(5.7428783893193049, 7.0177712329438204)	(6.0617016349083439, -1.3262078017507193)	1.0	slash	0.928792
32	N	B	M	B					N	4	3	shapes	B	3	False	132	(-0.70718703746234013, -3.7653697708819038)	(4.1623680127733174, 3.1375897415171572)	(-0.13690933954420004, 6.3515846089663572)	(4.8242564850684957, -6.0868467459981499)	1.0	slash	0.872518
1	N	A	B	B	M	A	M	N	B	8	2	shapes	B	4	True	132	(4.3472252184815972, 4.2416564814191204)	(-2.2114393760676299, -6.2358358327432404)	(0.65324775534666202, 0.068384983322900439)	(-6.8147252417914022, -2.0005071543277806)	1.0	z	0.935721
2	M	B	M	N	N	A	B	A	B	8	5	shapes	A	4	False	132	(-1.1454149144711723, 4.686689137755609)	(3.1179041334030941, -3.277420167750754)	(6.9598386771725984, -6.5019531021936245)	(3.4740392667267574, 5.7754427833062074)	1.0	z	0.759334
3	N	B	N	A	A	B	M	M	B	8	3	shapes	A	4	False	132	(3.786069152914159, -4.3747730527107738)	(-7.8998761537890703, -2.3909457960077605)	(-2.9275908447665646, -2.8093309540649214)	(6.1050174406134854, 3.529178370145992)	1.0	slash	1.13693
4	M	B	B	A					B	4	2	shapes	B	4	True	132	(-0.69316653993385202, -7.0606067557677648)	(1.7610545761650869, 6.1374369833404145)	(2.5390323061677513, -3.2200736131622083)	(-2.2694565186773401, 2.7666097020425209)	1.0	slash	0.924587
5	N	B	A	A					N	4	0	shapes	N	4	True	132	(6.8210436818581606, -1.3804424829746837)	(-0.73712340718284075, -6.4686202316166295)	(4.2182345845341231, 4.3925749923092745)	(-0.71353090531784957, 5.1656347949645074)	1.0	slash	0.714115
6	N	B	N	A	A	B	M	M	M	8	6	shapes	M	4	True	132	(7.3727709533259151, -5.7454253943168512)	(2.6440765334264302, 2.0274945906125019)	(-5.7208075688660358, -4.9750859614545355)	(-4.5277903981483849, 5.159969722898639)	1.0	z	0.638654
7	M	B	N	M					M	4	2	shapes	N	4	False	132	(7.4976602491660813, -0.73599859946919288)	(-2.9029873555321846, -5.7522219981091585)	(4.1995539952121295, 7.8455042951764113)	(-2.5512756196962041, 5.641887649173297)	1.0	slash	1.00746
8	M	B	M	N					B	4	2	shapes	M	4	False	132	(5.7048543207682592, 7.5100133673034435)	(-1.1897754612885505, 0.069532116938693989)	(8.4750684071508253, -7.693842576940769)	(-5.4545106556742455, -1.2648082443207276)	1.0	slash	1.22707
9	N	B	M	M	N	A	A	B	A	8	6	shapes	A	4	True	132	(-0.38838342449510144, 1.6301450717197383)	(2.5421927126728221, -2.9750518114039819)	(-4.619022890537372, 7.8968371632104812)	(-3.6279106380615707, -5.5591596885715706)	1.0	slash	0.810537
10	M	A	N	M					M	4	3	shapes	M	4	True	132	(-5.4303571367279257, -0.18015617189272959)	(-3.366084387815766, 8.094342948894365)	(3.621396339403141, -8.1086482863152387)	(7.9687350479087762, 2.5011902485984994)	1.0	slash	0.930175
11	M	B	B	A	N	A	N	M	B	8	1	shapes	B	4	True	132	(-6.0754715713987704, -6.5091024115105354)	(-6.3964363649448952, 1.4007915575003569)	(4.3284557606843368, 1.4093196443136744)	(1.0200321397358163, 8.6049619477178609)	1.0	z	0.909999
12	N	B	M	A	N	M	A	B	N	8	0	shapes	N	4	True	132	(6.3375895347090392, 5.6268031725260066)	(2.4924356914509662, -3.1042230327818032)	(2.8151915778631835, -8.2362845456140565)	(-2.220894847227604, 0.18195368386333222)	1.0	z	1.05181
13	N	B	A	A	M	N	M	B	B	8	7	shapes	B	4	True	132	(-3.5057663836626984, 4.4227785028123954)	(5.3299242228080068, -1.421479020532316)	(7.2965877443311662, -8.6480164804341655)	(-3.0433496457703129, -4.0600814524259334)	1.0	z	0.883555
14	M	B	B	N	N	A	A	M	A	8	1	shapes	B	4	False	132	(0.64905530501236086, 4.4162707989760701)	(7.9594445802565552, -3.4421918632079116)	(-8.150693199876196, -5.3381476136142014)	(3.7807852070615553, -0.57478045771667929)	1.0	slash	0.815048
15	N	B	N	A					M	4	0	shapes	N	4	False	132	(-1.1111259697477402, -7.6161371148534371)	(6.2746473624273325, 7.8096027381397519)	(3.72188994089964, -2.6873046736696091)	(-8.5787594241036089, 3.3803860782917994)	1.0	z	0.810811
16	N	B	N	A	B	M	A	M	B	8	1	shapes	B	4	True	132	(0.67363757828054283, -0.52123967491882439)	(-4.7378776951985921, 2.242631969052999)	(-7.4215877551316867, -6.8817784906037591)	(-8.5479676634764648, 0.47526961729594319)	1.0	z	1.19443
17	N	B	B	A	M	M	N	A	A	8	4	shapes	M	4	False	132	(-0.38681276499296047, -2.7817886275313359)	(1.7805422152342949, 4.9903108536463119)	(-4.9505513699886912, 6.368377681426086)	(4.4117067535703391, 1.3003149154084923)	1.0	slash	0.796096
18	M	A	A	M	B	B	N	N	A	8	3	shapes	M	4	False	132	(-0.26436457135547542, 6.9102146640031137)	(2.2124458032020673, 1.0021621552789739)	(-2.238639479765844, -1.669689003226968)	(-6.2282795276728038, -1.0802260410438542)	1.0	slash	0.901586
19	M	A	B	N					N	4	3	shapes	N	4	True	132	(5.6576348694495078, 8.6144752183882858)	(-7.9133401734277111, 7.5659114708046928)	(-7.0988230406797097, -5.5931716696154679)	(4.8269512105942933, -6.1817853477557598)	1.0	z	0.770895
20	N	A	M	M					N	4	3	shapes	M	4	False	132	(4.6874584064046783, -0.50070361823400233)	(-4.0228113826868288, -8.3949082917339268)	(-7.8871794447207844, 5.3579820627417867)	(5.4026971160264949, 7.2063677797803027)	1.0	slash	0.731468
21	N	B	A	A	B	M	N	M	A	8	3	shapes	A	4	True	132	(0.3575659625606491, 8.6801456974328737)	(5.9277486366673493, -0.18457255624690561)	(6.1982932336195624, 8.4268645733562515)	(-7.9128603359050862, 5.5754898763891383)	1.0	slash	1.26648
22	M	A	A	N					A	4	1	shapes	A	4	True	132	(4.4517083137276643, -1.8505529158469276)	(-5.9496193755168303, -2.436865824295789)	(7.8898742728730085, 2.3241370126646608)	(-2.0328029613944993, 7.3227266266651334)	1.0	z	0.782142
23	N	A	A	M					N	4	1	shapes	A	4	False	132	(5.5509798401888215, -5.9252490998193057)	(-7.7747091532045811, 2.6530229803080996)	(7.9719321430502177, 3.2944354553301753)	(-2.7973337120960187, -6.3721668529768438)	1.0	slash	0.92969
24	N	A	B	N					N	4	2	shapes	B	4	False	132	(0.99533045085562399, -6.4354152472627515)	(7.9521641593561547, 5.1243335215888557)	(-4.071718570696186, 5.0766479650420582)	(-4.2125169220093257, -5.6681538739709971)	1.0	slash	0.737408
25	N	B	B	A	M	A	N	M	M	8	0	shapes	N	4	False	132	(-5.3655934912657379, 3.4106490735635244)	(-8.2352672745303863, -6.4951205648870456)	(2.9950239318876868, 0.044552083212407112)	(8.4069981355370338, -0.97146672776076137)	1.0	z	0.825582
26	M	A	N	M					B	4	2	shapes	N	4	False	132	(-5.4053552298788947, -0.75873529173261733)	(5.5786104693462644, -0.5513125684232385)	(3.9292449329555499, 3.953327419281873)	(-3.0611829343495138, 2.7830055501456776)	1.0	slash	0.828818
27	M	A	B	M	N	N	A	B	N	8	7	shapes	B	4	False	132	(6.1052571652832537, 5.0896932532472867)	(-2.2816550016935828, -2.8850593076218018)	(-5.0966777015803828, -6.3001106584261537)	(4.7888987401525593, -8.0206089225407915)	1.0	slash	0.866707
28	N	A	A	N					N	4	0	shapes	N	4	True	132	(-8.4368533029473767, -0.48848061201399418)	(5.2594278045948055, 4.5052290196516793)	(-2.2760044245791491, 7.6280180004064562)	(6.4346953862852061, -7.4331725408786653)	1.0	z	0.646162
29	N	A	N	M					N	4	0	shapes	N	4	True	132	(-8.5098177619773416, -8.6313810998295111)	(6.5209417019355662, -8.115724991984564)	(1.1217203733692429, 1.2912255803634434)	(-4.9611590290864047, 2.4434194933613398)	1.0	z	0.599805
30	M	A	N	A					M	4	0	shapes	M	4	True	132	(7.0560729803256095, 2.1616671418133393)	(-4.2629630949296669, 0.90823821841275709)	(0.46641974713638135, -0.17696613243021453)	(-6.886744257909692, -3.8965762261503096)	1.0	z	1.01754
31	N	B	B	M					M	4	1	shapes	B	4	False	132	(-2.2483835186408623, -0.94768802506651983)	(-6.7216026594319143, 3.8907694727603701)	(7.8670858285952434, -2.5593900688872271)	(4.3937477693218661, 4.7602667224502113)	1.0	slash	0.793423
32	N	B	B	N	A	M	A	M	N	8	6	shapes	A	4	False	132	(-0.68331402590735557, 4.3864801790739349)	(-0.68850465832526808, -2.9716703653379621)	(-8.2737719498876388, 7.2854913545372071)	(4.6250973170455403, -6.7560590251239407)	1.0	z	1.37279
1	M	B	N	A	N	A	B	M	A	8	0	shapes	M	5	False	132	(5.235534955993721, 7.2732374307083383)	(-6.1022522886228687, -1.9496224696934323)	(7.3933406897684648, -6.629569028712031)	(-5.3772509428275459, 6.0150812383575296)	1.0	slash	0.969929
2	M	B	A	N	M	B	N	A	N	8	2	shapes	A	5	False	132	(1.2199148890023697, 7.9575317968377206)	(-3.1528730584710232, -6.0744056806784776)	(-2.9670254106718916, -0.011727988043345405)	(6.9116783970714568, -2.7730280847192503)	1.0	slash	1.14601
3	M	A	B	A					B	4	1	shapes	A	5	False	132	(2.9917676091999308, 3.1787930121343297)	(7.8759688035496289, -1.8205376344328092)	(-6.2105944386534082, -6.3623588151437005)	(-4.6093473033113206, 0.75568075191317874)	1.0	z	1.78203
4	N	A	A	M	N	B	M	B	B	8	3	shapes	M	5	False	132	(5.701988368269058, -1.7156887382889145)	(-1.356668758033571, 4.3933042121160071)	(1.6917649672151143, -6.1112138489133638)	(5.4679606436138215, 5.7279547326641449)	1.0	slash	1.04522
5	M	A	M	A					N	4	1	shapes	A	5	False	132	(-2.2421523778504753, 2.4292289768300126)	(2.6359183336561358, 4.7986527473570195)	(-3.6801287928085884, -8.3674309480456532)	(7.4387024293098314, -6.2251874951357831)	1.0	slash	0.781374
6	N	B	N	B					N	4	0	shapes	N	5	True	132	(-3.5987453721631368, -6.6748410154289743)	(0.7968411835608471, 0.024129283984880345)	(2.8749164820471567, -7.2970258948620748)	(-5.0516319502160769, 4.1597199989127382)	1.0	z	0.866381
7	M	B	N	M					N	4	3	shapes	M	5	False	132	(-2.0294502169003898, 5.8761136044780642)	(-7.0545629095432023, -1.2982511977289066)	(2.1445176355106135, -6.2529280644460679)	(5.3062666630491329, 0.22291382448420194)	1.0	slash	0.820106
8	N	A	N	M					N	4	2	shapes	N	5	True	132	(-0.75651434337982604, -5.5767398216291584)	(0.42416639049888616, 7.6122391735474046)	(-6.8719892438267554, 1.5382490027320284)	(6.6559758965464777, -8.2311749400687546)	1.0	z	0.712243
9	N	A	N	A	B	B	M	M	N	8	2	shapes	N	5	True	132	(-0.11001620583093086, 4.1712972318166717)	(-4.9205498779736896, -5.9169294600708628)	(3.1766614860935132, -7.2340478099675041)	(-1.1003350040477731, 8.3606318028782489)	1.0	slash	1.10801
10	N	B	M	A	B	M	A	N	M	8	2	shapes	M	5	True	132	(4.2791921590521707, 3.7584405650619068)	(-8.4530424444116861, -5.8353538227462503)	(3.3312234667859606, 8.6023469888577893)	(-7.2790187583148942, 2.7088537818754794)	1.0	z	0.747468
11	N	B	A	N	B	A	M	M	A	8	5	shapes	A	5	True	132	(-5.1581210377777094, 0.76237965102824212)	(0.072255686803094576, 2.2323957439277926)	(4.8324170613741266, 5.5365483866555625)	(5.2283413216736907, -4.2300616439582557)	1.0	slash	1.07073
12	M	A	B	B	A	M	N	N	A	8	4	shapes	A	5	True	132	(6.5966566716735286, 7.7527845609321027)	(3.6782480933141599, -5.9490800668809127)	(-2.3640007177290805, -2.1980656469995825)	(2.6410731257104842, -1.9890089615807316)	1.0	z	0.770279
13	M	B	N	M					M	4	0	shapes	M	5	True	132	(1.2010362282290235, 4.2464221289763699)	(-0.59714580825157171, -7.6016666375460122)	(-4.9257839867768345, 7.8327142417187154)	(2.4238361176817058, -4.0178070010164477)	1.0	z	1.32818
14	N	A	B	A					N	4	0	shapes	N	5	True	132	(-6.1359097533840492, -3.2907007815133786)	(8.6517672771929242, -6.1641066336352655)	(-6.1626695603866484, 4.1704250296032228)	(3.901384090639338, 1.3337431797592423)	1.0	z	0.551602
15	M	B	A	B					M	4	3	shapes	B	5	False	132	(4.7183189980563061, 7.5014189408311971)	(-7.7609944214008983, -0.79421765280157874)	(0.59141059555096831, -4.2130540608790268)	(-7.0009240818588623, 8.3098458732525877)	1.0	slash	0.713115
16	N	B	A	N					A	4	1	shapes	B	5	False	132	(5.1005512111078133, 2.6104645912559938)	(-3.7131642677147463, -2.9968298051270903)	(4.9584282440086227, -1.4289975154699182)	(-4.223891516859247, 7.2679556804065406)	1.0	z	0.764876
17	N	A	B	M	N	A	B	M	N	8	2	shapes	B	5	False	132	(-5.7964585253518219, 0.98609970425363613)	(0.83596136140921651, 5.4183252493626597)	(5.8944260880056234, -5.0976075490143087)	(-0.69496145783581476, -2.736462934026143)	1.0	slash	1.08494
18	M	B	N	B					A	4	3	shapes	B	5	False	132	(1.0978561148763024, 2.3141951741834177)	(7.2910130862661546, -1.3121722848239257)	(-1.293162610956859, -3.9780157510454606)	(-4.2641692169905649, 0.57897007145159129)	1.0	slash	0.970793
19	M	B	B	A	M	A	N	N	A	8	2	shapes	B	5	False	132	(0.054448825106250709, 2.561304077189952)	(-7.3518992625437907, 0.37629680297489898)	(-4.7578780495572275, -4.7593201393955749)	(4.4181923669474017, -7.2277530470689904)	1.0	slash	0.856393
20	N	B	N	A	B	M	M	A	M	8	5	shapes	M	5	True	132	(5.7707959160571409, -4.3385568385277145)	(-5.4779992327705331, -6.5393598253762981)	(4.813885739401524, 5.5958922532582598)	(8.5986594643768051, 1.1582640380273865)	1.0	slash	1.21526
21	N	B	B	A	A	M	M	N	B	8	2	shapes	B	5	True	132	(-3.2061200310725937, 2.1740969823452048)	(-8.6632512422031489, -4.5502836946376854)	(6.837770169271149, 6.0876722360265489)	(6.4267813827381737, -4.9333719496261512)	1.0	slash	1.85501
22	M	A	N	B					B	4	1	shapes	A	5	False	132	(2.7585710236286332, 5.9254259731848204)	(-2.7904602281550481, 1.8630546486636934)	(4.6128014918006883, -1.8499659826781905)	(-4.8120743493069487, -4.7822426749554801)	1.0	slash	1.29319
23	N	A	N	B					B	4	0	shapes	N	5	False	132	(-5.8212560951301207, 5.1376246528219767)	(4.2167585890385961, -2.6419248037161021)	(-6.0090189809400556, -3.5333343361697214)	(5.4943350065897203, 8.7211628668030805)	1.0	slash	0.805394
24	M	A	M	B	N	A	N	B	A	8	3	shapes	B	5	False	132	(-5.9531700250653579, -6.432590941457712)	(-4.0236086953183454, 1.1259617549776042)	(3.7367116922612116, 7.2565803847940025)	(-0.76194310553207956, -3.4974485040630459)	1.0	slash	1.01398
25	N	B	B	A					A	4	3	shapes	A	5	True	132	(-1.8723761410052253, -3.3824466289678661)	(-8.4569371925094448, 8.1151242530324588)	(4.8726020577146283, -1.0250823769697943)	(4.1553969223680003, 3.5897891470560239)	1.0	z	1.66747
26	N	A	B	N	B	A	M	M	M	8	7	shapes	M	5	True	132	(-3.552965842475218, -5.6514822119109889)	(-8.2999907919682361, -7.8644859771124844)	(0.74567544892603799, -3.329754473050591)	(2.3391178760013283, 8.6561436351591645)	1.0	slash	1.0839
27	N	B	M	A					M	4	2	shapes	M	5	True	132	(7.6018844057042898, 7.79520466105987)	(-3.6612549761169459, 7.8291641457282815)	(-5.2788136647511408, -0.15880649518087431)	(7.4991574704816308, -4.4219988263478704)	1.0	z	0.880943
28	M	A	M	A	N	N	B	B	A	8	7	shapes	B	5	False	132	(0.88297668539963858, -2.4569758651450755)	(-7.4546050332429843, 2.5958617914409121)	(-2.1602577064528461, 1.2641114590116835)	(-7.6593872067856843, -3.9990303227353241)	1.0	z	1.02101
29	N	A	A	B					A	4	1	shapes	A	5	True	132	(5.1268879361910358, 6.560653947002228)	(-4.4813889194579506, 4.0657305908154893)	(-6.786999857485589, -6.0003049891122089)	(6.5394474072800488, -4.3116791260518532)	1.0	z	0.673971
30	M	B	A	M	N	N	A	B	M	8	1	shapes	B	5	False	132	(6.451622684170518, 6.3140784880427088)	(4.1879187990299105, -5.3647611992624169)	(-5.3784562939038274, 7.8114158296056502)	(1.7548812335272697, 8.4382687842970974)	1.0	slash	0.773634
31	M	A	B	M	B	A	N	N	M	8	3	shapes	M	5	True	132	(-3.8258306323711082, 4.6389788781661334)	(-7.2159570816047269, -7.2856321540860041)	(4.1734743084394523, -0.02977620307862594)	(8.5800903700670403, 8.2926626920392259)	1.0	z	0.949443
32	N	B	A	A					N	4	0	shapes	N	5	True	132	(-7.4921041616844377, -4.8556998484764602)	(5.5414273517571235, -0.63590955120167258)	(-3.8115688348802674, 0.24121998963448377)	(6.7611348047873996, 5.8944334190545469)	1.0	z	0.881642
1	M	A	B	B					A	4	1	shapes	A	6	True	132	(-3.7752176026780324, -1.3508916173587062)	(-6.7502040652328361, 8.4809297670638344)	(8.625765009157103, 3.7058506177869894)	(6.0372790072772187, -3.2349776602510092)	1.0	z	0.821171
2	N	B	M	M					B	4	2	shapes	M	6	False	132	(4.6577062341113287, -7.4588312308314295)	(-7.8185997553088606, -7.3308526872669821)	(0.11035590082755142, 5.867303079833242)	(-4.7131411531980225, 3.8507968508884218)	1.0	slash	0.818307
3	M	A	N	M					M	4	3	shapes	M	6	True	132	(-0.15694526072468484, -6.2488431573081957)	(2.9982026398486319, -1.4364061266435364)	(-7.6855641873612992, 7.8072027031869276)	(3.6208328296013139, 2.9290643057430898)	1.0	z	1.23186
4	N	A	N	B					A	4	3	shapes	B	6	False	132	(6.1196739368851887, -6.7677719498589788)	(-7.1989350383961073, -5.0723891424651555)	(1.6676751206354083, 4.4832769561199441)	(-0.98025857619357559, 0.65380067785674534)	1.0	slash	0.817639
5	N	A	M	A					B	4	3	shapes	A	6	False	132	(-7.3243613943703529, 5.2205035791735419)	(6.400578299752425, -7.4145893000095242)	(6.8110652240349054, 4.737894639392918)	(-3.1820485806384395, -6.094756553368752)	1.0	slash	0.77299
6	N	B	A	B					B	4	1	shapes	B	6	True	132	(-7.8058681352886916, 6.4953974164284531)	(-5.1202041522109312, -7.1331826994450171)	(5.4771889744489055, 6.8011888446910156)	(3.4272923927829062, -3.3394449229550203)	1.0	z	0.851612
7	N	A	A	N	B	B	M	M	A	8	1	shapes	A	6	True	132	(-5.0849058848784701, 3.9031554825885078)	(3.2899301188636905, 8.6568148669637104)	(-6.6600639689808796, -4.1994203154340637)	(5.144661878885298, -0.088346720283396962)	1.0	z	0.847474
8	M	B	B	M					M	4	1	shapes	B	6	False	132	(8.1019757914729134, 3.1056017833434293)	(-6.6975316423121711, 2.7740565173888534)	(5.7139163902261441, -4.3021092636651348)	(-0.93123697586895293, -2.8084334649199354)	1.0	slash	0.702159
9	N	B	A	B					N	4	0	shapes	N	6	True	132	(3.4465521773950432, 5.3970724914966546)	(-7.4992892825800137, 4.7506586907135997)	(3.3322574098900368, -6.5551958627997653)	(-0.4238337543430859, -1.1046211211901635)	1.0	z	0.763674
10	M	A	A	N	B	B	M	N	M	8	7	shapes	N	6	False	132	(0.048594615341031044, 2.1726569707048196)	(5.7520744091069442, 0.30191447863796839)	(-4.2935306135351476, 0.42260630478990358)	(-8.0054215961353048, 8.4693960167612268)	1.0	slash	1.04608
11	N	B	B	A	A	M	N	M	B	8	2	shapes	B	6	True	132	(-8.605688250441851, -2.8674459454043424)	(-8.0439473500552854, 4.4882694470153979)	(8.5577765698529724, -4.1886877050411755)	(-8.0398448556681075, -8.1314437462069407)	1.0	slash	1.27717
12	M	B	M	A					N	4	2	shapes	M	6	False	132	(-5.6522875703663846, 8.4776422652427925)	(-4.4035885663421608, -5.7272621815538951)	(8.6888333481751339, -5.0428515331843826)	(3.3266051375920416, 1.0016061203394919)	1.0	slash	0.776839
13	N	A	A	N					A	4	1	shapes	A	6	True	132	(-0.80269756532294689, -2.0500874351347251)	(0.86272947260070332, -8.4897221537907495)	(5.4975565991593065, 6.5485211496200648)	(-6.4553279633432332, 4.5553225455264208)	1.0	slash	1.33227
14	N	A	B	A	N	M	B	M	A	8	0	shapes	N	6	False	132	(1.8307601460409195, -1.8663447157433435)	(-3.6717473944311259, -5.1609226984901326)	(4.1434596757426743, -6.1673558501230854)	(-3.7918221727085699, 7.2012922445163525)	1.0	slash	1.43387
15	N	B	A	A					N	4	2	shapes	A	6	False	132	(-4.8782165009808001, 4.6194989599484551)	(2.7588493241173548, -3.9466833076554089)	(-0.7505627043237082, -1.9445069507896955)	(5.0935137117550369, 2.0154835476788104)	1.0	slash	0.879621
16	N	B	N	B	M	A	A	M	B	8	0	shapes	N	6	False	132	(-5.3443518807539796, 1.8611897943771893)	(-0.12658152561842684, 0.1397622986044631)	(-0.07963239731169125, -4.4453045967713249)	(6.9901554026123129, 7.5175236402065977)	1.0	slash	1.01901
17	M	B	B	A					M	4	1	shapes	B	6	False	132	(-0.18128534738056601, -0.15332394390202175)	(8.1581794405407777, -5.387493016251101)	(5.0634174747284177, 7.6473206685839301)	(-5.4360324761498688, 8.5376907331642897)	1.0	slash	0.784628
18	N	A	B	N	M	B	M	A	M	8	7	shapes	A	6	False	132	(2.0476034390710964, -5.3629149009819175)	(6.1611053706812058, -4.8149327629941361)	(-7.8115611686730295, 1.5478794406698064)	(3.512509120784145, 8.7316264009452844)	1.0	slash	1.07319
19	M	B	B	M	A	A	N	N	M	8	5	shapes	A	6	False	132	(-0.29589499348566228, -2.0414504719386484)	(5.4522271039918948, 0.3560009872755554)	(5.987761118110873, 6.2365324038176109)	(-7.4869446286807193, -7.3706048034004512)	1.0	slash	0.83421
20	M	A	M	N	B	B	N	A	A	8	5	shapes	B	6	False	132	(3.1835567091175836, 4.9148174916588712)	(0.95307692534736255, -2.6402815027643447)	(-1.958816206911262, 3.1267196300304132)	(-2.5682207515425972, -4.7635125474075579)	1.0	z	0.996376
21	M	B	M	A	B	A	N	N	N	8	7	shapes	N	6	True	132	(4.9858325280389604, 8.1900034949140554)	(-1.5354855739076747, 5.2188250094125355)	(-4.9971689638575203, 0.87505431006007228)	(-4.7347392827096435, -6.7488215323885132)	1.0	z	1.15995
22	N	A	M	A	B	N	M	B	M	8	2	shapes	M	6	True	132	(-8.630635726645659, -4.4438318692809116)	(-3.4506919897007613, -2.9566632069519176)	(6.2080741784707705, 5.8058090563134179)	(2.9812914379252717, 0.61459936701318441)	1.0	z	0.979066
23	M	B	N	N					N	4	2	shapes	N	6	True	132	(-3.3858210554392691, -6.586047284717961)	(-3.1951185200356838, 5.1175560465445891)	(1.8892613114530636, -3.1144826778183257)	(1.6267313863703308, 3.3950031302515864)	1.0	z	0.657398
24	M	A	A	N					N	4	3	shapes	N	6	True	132	(4.8732268222318549, 8.4261619774797403)	(-6.627477317807708, -0.36354323428893487)	(-8.2742790297672713, 6.8839060848175144)	(0.23436381174026089, -0.8957115070217796)	1.0	z	0.646434
25	M	A	M	A					M	4	2	shapes	M	6	True	132	(-3.0999662882829053, 3.1316562594338393)	(4.5926369174060753, 8.2085714395128271)	(-6.3919056050586827, -7.3873327545976171)	(2.0571802753928203, -6.5016763631197723)	1.0	z	0.670156
26	N	A	B	M	B	A	N	M	A	8	5	shapes	A	6	True	132	(4.9170385715579563, 0.90666621936000702)	(1.1525357584849125, 2.3260973978783195)	(-8.0203110529018389, 1.6378149934990738)	(-3.9779272378078998, 7.4617847263778145)	1.0	z	1.29088
27	M	A	N	M	N	B	A	B	B	8	7	shapes	B	6	True	132	(-7.6183896464105603, -4.2578228428464797)	(-7.3112275120582115, 2.3567607708104514)	(-1.6067632630820974, -3.5041557969894193)	(7.5575365163550003, 7.4459470262016687)	1.0	slash	1.49732
28	N	A	A	M					N	4	3	shapes	M	6	False	132	(-4.4450416088358491, 0.43102526863297008)	(8.3624531804312952, 0.12885258066603633)	(2.9326529255099896, -3.7319448100346913)	(-6.4678790190355198, -3.1936663647962646)	1.0	slash	1.03091
29	M	B	A	N	M	B	N	A	M	8	0	shapes	M	6	True	132	(-3.6308598056613084, 5.7751204473673994)	(5.1653734188010993, 4.0993457419005921)	(0.63404491127011653, -7.6820268699536225)	(8.5750042568798932, -3.6696143406956008)	1.0	z	0.684604
30	M	A	M	B	A	N	B	N	B	8	1	shapes	A	6	False	132	(-0.20943441745878566, 4.9998011800795155)	(0.049655563027215521, -6.0712705385679868)	(-6.4202183042277099, -4.7241568981219455)	(-5.201198980213416, -8.7007069303285736)	1.0	slash	1.08612
31	M	A	M	B	N	B	A	N	A	8	1	shapes	A	6	True	132	(-8.6216138379536069, 2.0109035084373676)	(4.6028007022204509, 2.4746951833491533)	(-1.9142600849858127, 7.4499807792324901)	(3.9426334139342973, -7.3422237804363188)	1.0	z	0.838769
32	N	A	M	M	N	A	B	B	N	8	3	shapes	M	6	False	132	(3.4506796841149487, -4.7259433482490998)	(5.9426617029296196, -1.5776742421832513)	(5.075377669762787, 2.5896948239743214)	(-1.3358314666058542, 6.035954594049036)	1.0	slash	0.850055
1	N	B	M	A					N	4	0	shapes	N	7	True	132	(-4.696989618381993, 7.9088762651288746)	(-1.353307158684637, -7.3167912943234752)	(0.30801030651684869, -1.952143128449574)	(0.82139434737785599, 4.303205619398689)	1.0	z	0.923706
2	N	A	M	M					A	4	0	shapes	N	7	False	132	(6.4148207929363501, -4.6304146766139453)	(-0.2328403752592596, -5.6417765256617818)	(7.7058419810975209, 5.5158598072852829)	(-4.7061956422044373, 0.12897228143347661)	1.0	slash	0.860878
3	M	B	B	N					M	4	0	shapes	M	7	True	132	(-7.5885675557785559, 6.6537364731268376)	(2.7889978702268383, 4.2669407985919126)	(2.8337103518777091, -7.6915248841497057)	(-3.6154913423349564, -5.5526555585199953)	1.0	z	1.08251
4	M	A	N	B					N	4	2	shapes	N	7	True	132	(-2.9685930472888504, -0.91527705025749828)	(5.2183447188076588, 7.2380287994130548)	(-7.729192904037693, 7.0030457167056852)	(5.8021631801572227, -5.2240213058806795)	1.0	z	0.772304
5	N	B	B	A	M	A	M	N	B	8	5	shapes	A	7	False	132	(3.1228438159582979, 0.27016745747240378)	(-1.7943254637737178, 7.3900119559591637)	(-5.3984371384595597, 2.0795174004327119)	(-3.2565281887808881, -5.4400774812784487)	1.0	slash	0.899817
6	M	A	A	N					N	4	2	shapes	A	7	False	132	(6.0126254661097711, -5.5790337794071441)	(-7.2948177360619457, -5.6651173822643655)	(0.65769615974053153, 2.2541222828723058)	(-1.4962513506023365, 8.270115219031716)	1.0	slash	0.737476
7	N	B	A	A	M	N	B	M	N	8	0	shapes	N	7	True	132	(-4.9865361975937699, -8.1946782594528944)	(-1.8325845415763631, 0.19551208179840174)	(8.5726321458390586, 5.7661029990366952)	(7.7292956756647833, -4.6871150715743619)	1.0	slash	0.829071
8	N	B	M	A					M	4	2	shapes	M	7	True	132	(7.1395767928037746, -3.1432556182473181)	(-7.2934668185683655, -7.7538246392159325)	(-4.8638819110699245, 2.5632545905730826)	(1.2659116278774825, 0.41044123672791244)	1.0	slash	0.606074
9	N	B	N	M					B	4	1	shapes	B	7	True	132	(3.3534804211638036, -4.2258992386337839)	(8.4288018312736845, 5.1557397436903347)	(-1.3589539257299208, 0.32951092486696787)	(-1.5615316495555138, -5.882558762033554)	1.0	z	0.862972
10	M	B	M	N	B	A	A	N	B	8	4	shapes	B	7	True	132	(-2.194305846478545, 0.050011338985399334)	(2.3885528723844125, -4.2117637612765)	(-6.099028709409124, 4.1247440099814394)	(3.923750687966626, 8.2267243319894092)	1.0	slash	0.838588
11	N	A	M	N	B	M	B	A	N	8	1	shapes	A	7	False	132	(0.59576130823147899, -1.5040880399584253)	(-0.92244000157472694, 5.5748491585868845)	(-3.0077090416167138, -7.9695566151628245)	(-5.6158018915800554, -3.1206403649477865)	1.0	slash	0.866225
12	M	B	N	A	B	N	A	M	A	8	6	shapes	A	7	True	132	(7.1199351496083523, 7.9126926607406958)	(-3.0851562412560289, -8.4551978873692306)	(-4.6261842071990786, -3.1988521118531636)	(-5.7311321274619385, 3.8925613178480578)	1.0	slash	1.02326
13	N	A	A	B	B	N	M	M	B	8	4	shapes	B	7	True	132	(-8.0313077387559026, 5.4389592839802887)	(-4.6270647836320995, -0.20293747545588481)	(6.7636646144994224, 1.4076034562314845)	(1.5461156188404228, 0.89780746121506461)	1.0	slash	0.675247
14	N	B	N	M	A	A	M	B	M	8	1	shapes	B	7	False	132	(-0.067438123219035973, 4.9401612996998487)	(-2.7906944680503392, -2.6928573257617048)	(-8.1745595087139993, -4.8730177281753795)	(4.8303230673735342, 0.51809477251467584)	1.0	slash	0.910295
15	M	A	M	B					M	4	2	shapes	M	7	True	132	(-1.6843719906539327, -1.9202394990632117)	(-2.5752108796888225, 3.9433254959343884)	(4.6378821053153292, 7.9802911484190311)	(4.1703036631487223, -2.6637376550909062)	1.0	slash	0.928904
16	N	B	B	N	M	A	A	M	M	8	1	shapes	B	7	False	132	(-8.1720030044253296, -0.75948406417085756)	(-3.7332562862109722, 6.804518426848805)	(-8.3693664256113784, -6.3227305055736389)	(1.6099803611078425, 5.7447494610219962)	1.0	slash	0.960225
17	M	B	B	A					B	4	2	shapes	B	7	True	132	(0.97744145817260986, -0.85761839254890582)	(4.5081326069880703, 6.2155611270153237)	(-5.6529864669543564, -3.4238268723811522)	(-6.3912888124700791, 3.772983684630443)	1.0	z	0.969321
18	M	A	M	A	N	N	B	B	A	8	1	shapes	A	7	True	132	(2.0349448528744638, -8.5943167551110449)	(3.8676571241999849, 2.7156301860279104)	(-1.125691580255312, -4.5144476665735338)	(-4.2742300257447869, 0.82379490929144517)	1.0	z	0.93782
19	N	B	B	A	A	M	N	M	B	8	3	shapes	A	7	False	132	(1.2349605751773378, 8.2036540221659848)	(3.8376183569332945, -0.0066311114119006476)	(8.1040652718089632, -3.9628937512194424)	(-0.2456780478362397, 1.7977255630384157)	1.0	z	1.01696
20	M	A	B	A					N	4	3	shapes	A	7	False	132	(-4.6085083049107665, 5.7903946580675321)	(4.3340300417372521, -4.3524521381574885)	(-7.0474012755814979, -2.082551414382424)	(6.4981708673072589, 4.021282638596448)	1.0	slash	0.88667
21	M	A	M	A					A	4	2	shapes	M	7	False	132	(-0.54051141757484089, -4.8581754001690607)	(3.1954865127182632, -8.1190070810853872)	(3.3924659576250171, 3.5631414758262778)	(-0.35670911912328584, 1.7240599230443383)	1.0	slash	0.830001
22	M	A	B	B	A	N	M	N	M	8	2	shapes	B	7	False	132	(5.5129081427268893, 1.2278370079674001)	(-1.149996946123605, 5.5044317817856161)	(-8.4205036572723078, 2.9082207914608684)	(5.7285195451435982, 7.836529837405493)	1.0	slash	0.748865
23	M	B	A	M					A	4	0	shapes	M	7	False	132	(-2.0341921814373896, 1.1838282468816637)	(-5.8552473192053203, -5.8190254869077647)	(4.9117287576568849, -7.5077564837882376)	(0.81979836807882656, 5.537491527413275)	1.0	slash	0.813728
24	N	A	M	B					A	4	3	shapes	B	7	False	132	(3.0005752017327634, 6.817859362579572)	(-7.9419613752435305, 2.6156543417778835)	(-1.3882631229393834, -8.6130034481559878)	(6.3817599799459011, -4.7254994076507835)	1.0	slash	0.86693
25	M	A	N	A	M	N	B	B	N	8	5	shapes	N	7	True	132	(-1.8877399891084954, -8.0772112164726728)	(8.081852699384104, 7.3525391131588229)	(-0.55596609219207416, 0.10202406474503078)	(4.1326680876026032, 6.124293697368568)	1.0	slash	0.60842
26	N	A	N	A					B	4	0	shapes	N	7	False	132	(4.9322501185905843, -6.3907701176257374)	(-2.7819238717143255, -1.086622984903352)	(1.0766472288768103, 0.34442073575664978)	(-6.7919706561410429, 7.1806125574206821)	1.0	slash	0.622631
27	N	A	B	N	B	A	M	M	A	8	1	shapes	A	7	True	132	(-3.91250176306285, -0.38029612443693139)	(-4.4144038601711593, -6.6285980849197674)	(6.7806918217520575, 5.233058529177228)	(4.4943815179393987, -4.8598991448410453)	1.0	slash	1.02213
28	N	B	N	A					N	4	0	shapes	N	7	True	132	(3.6253082379375847, -5.6281793446412411)	(-5.8452192415553625, 3.9087615802977194)	(4.8068769664526698, 6.076094918663534)	(-5.0315721537830118, -4.459296361904979)	1.0	z	1.05229
29	N	B	B	A	A	N	M	M	M	8	2	shapes	B	7	False	132	(3.5518251622520083, -2.080546422403132)	(-3.3018886430560723, 0.58985804927303676)	(-5.1039786675025258, 5.5004112574998647)	(2.7647621274397078, 7.7675315396011904)	1.0	slash	0.787871
30	M	B	A	N	A	B	N	M	B	8	3	shapes	N	7	False	132	(6.5661616543633929, -0.25184391632737047)	(-1.2081712850592234, 3.5580153333282976)	(1.0205524112373627, -0.14989143154049245)	(6.9350348984894712, 6.7290762807839322)	1.0	slash	2.1129
31	N	A	M	M					B	4	1	shapes	A	7	False	132	(6.814092683015275, -4.0320950366668917)	(-4.3868796441743241, 7.8551947226509036)	(-1.0474952438859129, -5.3039258204218775)	(6.798473896370778, 3.6085778801992401)	1.0	z	1.20452
32	N	A	A	N	M	M	B	B	M	8	4	shapes	M	7	True	132	(4.6507939229153301, -6.8813465962641391)	(5.8750697701549566, 3.5547717291122076)	(0.201525538499844, -7.2182647042295986)	(-4.7818196326402376, -1.5934636322239655)	1.0	z	0.750206
1	N	B	B	M	M	A	A	N	N	8	4	shapes	M	8	False	132	(1.982308783859926, -4.8757551209352545)	(6.984294962969674, 1.229199200874092)	(6.9626463043450482, -8.0953746323369753)	(-4.6262761593607324, 2.1803601022802308)	1.0	slash	1.44436
2	N	B	N	M	B	A	M	A	N	8	4	shapes	B	8	False	132	(1.4600196097277216, -5.0929555383737952)	(-7.5269957927238487, 8.6644106437392132)	(-2.3452138852020772, 7.4876326104924864)	(3.4514640302686033, -0.92410363360070136)	1.0	slash	0.859379
3	N	B	N	B					N	4	0	shapes	N	8	True	132	(-8.7277411335130548, 8.0937057969142394)	(7.849206041468392, -5.3355027001004425)	(6.3432838627179979, 7.7405184756588312)	(-6.2974956871547025, -8.3295540883239347)	1.0	slash	1.64808
4	M	A	B	B					B	4	2	shapes	B	8	True	132	(6.6851740154950345, -8.068723327935583)	(4.2789747333013359, 0.77535868892668525)	(-8.3124538481398513, -1.0660929769471732)	(-6.9949938257908908, 7.4100312080399142)	1.0	z	0.743071
5	M	A	B	B					A	4	1	shapes	A	8	True	132	(7.3048144943229651, -2.0766747070282578)	(-3.2530285851613767, -4.8868201614942315)	(-5.4085372869941457, 8.2535341114203611)	(2.6342521114600199, 7.448240244525163)	1.0	z	1.06996
6	M	A	N	M					M	4	3	shapes	M	8	True	132	(6.2393586926575662, 1.4499408377025649)	(-8.1034719253403242, 4.9565677270606443)	(6.1227387689546209, -4.49327014314213)	(-2.0259937814297446, -4.625226988536701)	1.0	z	0.776597
7	N	A	B	A	N	B	M	M	M	8	7	shapes	M	8	True	132	(5.8175729336765976, -4.2747184727998029)	(-4.0702457698834484, 4.7176547246870619)	(-0.25406526330385226, -4.3891959538863894)	(-3.7391707480408458, -0.0077261844071419006)	1.0	z	0.805354
8	M	A	A	M					A	4	3	shapes	M	8	False	132	(-0.03237851679624093, -6.9419532248743732)	(-4.3509386362132609, 3.4210604885401867)	(5.8082658000370646, -0.6215967230111108)	(4.806170900982691, 8.0194863071506752)	1.0	slash	1.18313
9	M	B	A	B	A	M	N	N	M	8	5	shapes	M	8	True	132	(8.5067797077207459, 5.8137091669765795)	(3.5349321665344604, -8.009820407491107)	(-4.014326693930176, -6.4233536166705401)	(-0.37504357317224013, 4.4231890451386846)	1.0	slash	1.1627
10	M	A	N	B	A	M	B	N	N	8	2	shapes	N	8	True	132	(6.6209871061949759, -6.9545879030205491)	(-6.9919627920059968, 5.8982688203091644)	(5.3325663567086643, 8.2111740974273211)	(1.136721076477972, -2.5505895651764661)	1.0	slash	1.35374
11	M	A	A	N					A	4	1	shapes	A	8	True	132	(0.25955771003005701, -0.33172086549231494)	(-0.84113966436240961, 6.3148302906531324)	(-0.27518752814821745, -8.4633194977480724)	(4.7946271502859741, 1.0108297201628567)	1.0	z	0.842518
12	N	A	M	B	B	A	M	N	M	8	2	shapes	M	8	True	132	(-4.2956011842369097, -5.6904255879143193)	(2.9279294068949451, 4.1261004165198418)	(-2.7796534113800435, -1.5050012716538204)	(7.6019011264650693, 5.5740312376893932)	1.0	z	2.99022
13	M	B	A	N					N	4	0	shapes	M	8	False	132	(-3.6957993905627458, -6.4286577024292244)	(8.1887333909107234, 1.7440299939758166)	(-4.6898103426216773, 2.4091811001338979)	(6.2407135535543663, -3.596221570811271)	1.0	slash	1.50517
14	N	B	M	M	A	B	A	N	B	8	4	shapes	A	8	False	132	(7.3447614031767436, 6.8949842173297391)	(-7.1433955941581235, 3.5545868259428932)	(-6.6271817028939717, -5.3309093544434329)	(8.5195114606832014, 1.5363840673530387)	1.0	z	1.09475
15	N	B	B	N	M	M	A	A	A	8	2	shapes	B	8	False	132	(2.0205146964672576, 3.7940652899212886)	(6.602832696748175, -2.4500904897859215)	(-2.6277714568147257, -3.4372911227117466)	(-8.0411972961307328, -5.2101214620874128)	1.0	slash	1.07041
16	N	B	B	N					A	4	2	shapes	B	8	False	132	(2.130989527641006, -0.89370801135894329)	(-0.0059177511589680876, 7.2859315614762927)	(-7.5725435521450501, -6.8525012995085239)	(4.5474968085098411, 4.2375956865665501)	1.0	z	1.13784
17	N	A	N	M					A	4	1	shapes	A	8	True	132	(-7.8551690305847348, -1.1547472635494254)	(6.0919922092555083, 8.2844777726900389)	(4.9443322233144258, -2.1343787707804767)	(-3.3741045492060113, 4.2036880495911682)	1.0	slash	0.736253
18	N	B	B	A	M	M	A	N	A	8	3	shapes	A	8	True	132	(6.8199407831040055, 5.1998825271118054)	(-6.1359233309799617, -3.3112439733980903)	(4.3894350811695002, -6.8139019824586535)	(-0.61101319439135793, -6.4614625523445355)	1.0	z	2.37059
19	M	B	B	M	N	N	A	A	N	8	5	shapes	N	8	True	132	(-7.6017968194475882, 8.677729768588712)	(-6.6336437748052246, -1.5870178884749357)	(-0.40808213303279928, 7.4822348549031368)	(2.5451461537846995, -5.385640641407802)	1.0	z	1.23672
20	M	A	A	M					A	4	1	shapes	A	8	True	132	(-4.6508511109258341, -0.90636822034436459)	(4.4258905130797306, 8.438070591056654)	(6.1641983411663777, -4.9175259610505684)	(-0.26307817119375443, 3.1673950982832597)	1.0	z	0.990236
21	M	A	M	A					B	4	2	shapes	M	8	False	132	(-2.6456372165798125, -2.5418472159879535)	(7.4596418799936721, -4.8672780359556933)	(-5.2815963195407072, 7.8721144845239621)	(3.3860331429847506, 0.65738524681086474)	1.0	slash	0.905968
22	M	A	A	N	N	B	M	B	A	8	6	shapes	M	8	False	132	(8.4749487755685458, 5.5904368504162161)	(-6.7736424653547154, -4.3790393142727497)	(-0.41816014490518327, -1.3320405526417396)	(6.8772992115194107, -3.3684715178506996)	1.0	slash	0.83816
23	M	A	B	B					B	4	1	shapes	A	8	False	132	(0.32431514263695504, -5.3046909173428896)	(-7.1224242183899671, 4.0943827081008308)	(8.057410497053457, 1.3173823074392779)	(-6.3815561781845735, -4.4693102404326197)	1.0	slash	1.0375
24	N	A	A	B					A	4	2	shapes	A	8	True	132	(-5.6651980905310957, 2.7618961210813122)	(2.9186846931620316, -6.9650864848740897)	(-6.7730684813879503, -4.8499035475748418)	(6.4419819982255504, 7.0452733371466021)	1.0	z	1.78496
25	N	B	A	A	M	N	B	M	N	8	5	shapes	N	8	True	132	(-2.4523916477909804, -4.4618654945688423)	(-8.7325669683537637, -7.0854301342403057)	(6.575213720018132, -8.690863562763413)	(4.0266819835408008, -4.0731805113589648)	1.0	z	0.854916
26	N	A	A	M					N	4	2	shapes	A	8	False	132	(3.7992483798296632, 1.2930514083537581)	(-6.1534767795369234, 1.9922169465706929)	(-6.1115533111184686, -8.6025885350430809)	(8.6703901268409105, -3.8899403125069059)	1.0	slash	0.780156
27	M	B	N	N	M	B	A	A	N	8	4	shapes	M	8	False	132	(8.5798671316461856, -3.7890643146751888)	(8.7186754375382804, 5.856298323157894)	(2.8617007337068472, -0.98612010934999539)	(-3.4203362915817221, 1.7162551708942306)	1.0	slash	1.99395
28	M	B	B	N					M	4	3	shapes	N	8	False	132	(-1.8979340429161953, -0.19803458735780133)	(6.0231499757926876, 0.2766077349534779)	(-5.7720941472333065, 7.9468463430096143)	(5.3905576452977204, -5.2407112592491698)	1.0	slash	0.812245
29	N	A	N	M	A	B	M	B	M	8	0	shapes	N	8	False	132	(-0.1915638260229624, -3.3959966754445352)	(2.8477031773772836, 4.2775821168824546)	(-7.6636896806113182, -6.950464363502336)	(-2.3258744903757478, 2.0589438266475337)	1.0	z	1.12296
30	M	A	B	N	A	N	M	B	B	8	5	shapes	N	8	False	132	(5.8421759178291275, -0.5484916868321541)	(2.3980297266601269, 8.2230107891136015)	(-5.4282164995679754, 3.2565398635772915)	(1.1847192028465177, -2.9852463243006566)	1.0	slash	1.2393
31	M	B	M	A					M	4	1	shapes	B	8	False	132	(1.4621974850665094, -5.6310187231910582)	(4.9633719287099378, 1.9531492038476479)	(-0.3014912318921148, -0.7341616467826757)	(-2.8192270458467892, 2.5396457506747243)	1.0	slash	0.646487
32	M	A	M	N	B	A	B	N	N	8	3	shapes	N	8	True	132	(7.1005040912478492, 5.5319901395684195)	(8.5741756959037652, -1.4706425543234136)	(-3.7707563438601204, 7.0062600106362698)	(0.3844910190448978, -6.1344346955872293)	1.0	slash	1.13606
