TrialNumber	stim0	stim1	stim2	stim3	stim4	stim5	stim6	stim7	stim.probe	ttl.stims	corr.num	trial.type	stim.corr	block	match	Subject	stim.pos0	stim.pos1	stim.pos2	stim.pos3	ran	resp	RT
1	M	B	N	A	N	B	A	M	B	8	1	shapes	B	Practice	True	133	(6.3266809253117415, -8.5069659816253811)	(3.3844959048224652, -1.199426199891561)	(-6.7468468235795225, -6.4229223043383783)	(-7.3639286517527331, 5.9744385505244235)	1.0	slash	2.72919
2	M	B	B	A					M	4	2	shapes	B	Practice	False	133	(-2.5907544805161598, 5.0162078349407349)	(8.6793424728387016, 7.6591178387254146)	(2.4188748850178747, -5.520643465600191)	(-6.5514851632980218, -3.40177492948657)	1.0	slash	2.36968
3	M	B	A	M	B	A	N	N	A	8	6	shapes	N	Practice	False	133	(5.3554086752665011, -3.9679382844227016)	(2.9061732933973161, 5.911187674308751)	(2.5150931400006833, -7.5578601835190975)	(-5.81113715822692, -6.5936264753143892)	1.0	slash	1.41777
4	N	B	A	B					A	4	2	shapes	A	Practice	True	133	(1.9700518490879482, 6.0820396100927478)	(-7.577626406010749, -2.795695877261922)	(5.4233689317540446, -1.1811414153941557)	(-7.6134303400464942, 6.6951363862724591)	1.0	z	1.99159
5	N	A	N	A					B	4	3	shapes	A	Practice	False	133	(-5.6797445359335139, 5.820409046706061)	(0.36464537021591603, -6.8348454834297856)	(-8.2493351974869711, -5.5604955054561351)	(2.0834241077882414, 7.6890776625262731)	1.0	z	2.67517
6	N	B	B	N	A	A	M	M	B	8	2	shapes	B	Practice	True	133	(8.4950757861827313, -5.7592974980201843)	(0.15880323281929698, -0.28026607803731807)	(-7.20040047046, 8.6926928112605921)	(-8.592287689058173, -3.432488790449562)	1.0	z	3.31818
7	N	A	N	M					M	4	3	shapes	M	Practice	True	133	(8.5200590626996515, 1.5027340386305976)	(3.9205466701129694, -7.593757454242489)	(-3.807659459295027, -2.2161020401040732)	(-0.71053401904086044, 4.1236356056367462)	1.0	z	1.56842
8	M	B	N	M	A	N	A	B	A	8	1	shapes	B	Practice	False	133	(-6.6348138021227019, 5.4058858711536644)	(2.6357575084249518, 6.1789064040436941)	(7.6160630230742967, 1.3175073011709255)	(-4.0707894156706379, 2.0055557886256459)	1.0	z	1.24711
1	M	A	M	A					B	4	0	shapes	M	0	False	133	(-0.34125077913882684, 8.7160171650632456)	(3.6693945886557664, -5.7974255965924897)	(7.5145758223677639, 8.7436347245082828)	(-8.2202561488947197, -6.3010752100923142)	1.0	slash	2.35296
2	M	A	A	N					A	4	1	shapes	A	0	True	133	(-6.0428401811124406, 1.2212360225456447)	(3.0953049586140242, -7.2266690387350643)	(5.8630350326947287, 7.2091408836985273)	(-6.6500100150541401, -8.4401602969938825)	1.0	z	1.94637
3	M	A	M	A	N	B	N	B	N	8	6	shapes	N	0	True	133	(-8.2930503324622009, -5.2272898771898717)	(-2.7440086412183806, 1.4945710868372313)	(4.2588688111045165, 3.7605419638796711)	(5.77302012602693, -1.9749197840326556)	1.0	z	5.80778
4	N	B	M	N	A	B	M	A	B	8	5	shapes	B	0	True	133	(6.3390432863535437, 1.9771646499014786)	(-2.9981002818263969, 7.4281802487124615)	(-7.24604935972833, -0.16700572265670388)	(3.6730471176716506, 6.6472451388647276)	1.0	z	2.02544
5	N	B	B	M	M	A	N	A	N	8	6	shapes	N	0	True	133	(-8.3151729590495975, -2.9553416919316193)	(3.3971571870944679, 5.2163856585613271)	(0.097942727727513557, 1.2753960139369269)	(3.3396216198850048, -8.5068841239325632)	1.0	z	1.51452
6	M	B	N	N	B	A	M	A	M	8	4	shapes	B	0	False	133	(1.3252614136837284, 0.062747470270778649)	(-6.569323445148612, 3.0930225930168334)	(7.3050178805756047, -4.7637055042705123)	(7.3298306425422552, 5.932216096161568)	1.0	slash	1.73415
7	M	A	A	N					A	4	1	shapes	A	0	True	133	(-6.5571423586853506, -2.1709870161028508)	(6.9649285096090967, -3.1423251217327408)	(-7.0877959830661972, 5.9310004088915225)	(5.7643690511227224, 5.3425586042317477)	1.0	z	1.14212
8	M	B	A	N	A	B	N	M	M	8	1	shapes	B	0	False	133	(-7.1721762487210832, -5.1085948810562645)	(3.7622532732274241, -1.7397649509501347)	(5.3448736759229831, -8.0883830761865596)	(-2.8622398968891156, -0.76146380912800193)	1.0	slash	1.42129
9	N	B	B	N					M	4	3	shapes	N	0	False	133	(7.2598713780558946, -3.6684604055754875)	(-7.8573594810755001, 1.2027413908957385)	(6.5933034893148488, 7.2683823786469794)	(-1.5512433049295282, -4.1836667588685845)	1.0	slash	4.13867
10	N	B	B	M	N	M	A	A	B	8	7	shapes	A	0	False	133	(2.0880797745722894, 7.7958169124363863)	(-1.3286138642750585, -0.31531850752053003)	(4.9540658562198523, -7.3285358814287243)	(-3.4458723894258592, -7.5752238531190423)	1.0	z	1.48271
11	M	B	M	A					N	4	1	shapes	B	0	False	133	(2.3262362193273241, 0.44596702919418085)	(-7.5923110453436751, -0.70031253699900731)	(5.3925880939701329, -6.5445942590579795)	(-5.5304026510437234, 8.4986076014615612)	1.0	slash	1.27481
12	M	B	B	M					A	4	1	shapes	B	0	False	133	(3.3400557982250483, 2.7609855498585674)	(4.7983384011580217, -3.2052799413161441)	(-3.6150703435914764, -3.3573257242939061)	(-7.8974731810598104, 1.8092999469612003)	1.0	slash	2.23991
13	N	A	N	A					A	4	1	shapes	A	0	True	133	(2.8009900429766788, 4.8562475698126821)	(3.2731048098766102, -3.8351096231755317)	(-6.0448767774369863, 7.567225511831591)	(-8.4487426755269084, -3.4647993489315718)	1.0	z	1.08961
14	N	A	A	M	M	N	B	B	A	8	1	shapes	A	0	True	133	(1.6338607531842175, -8.0376983570922604)	(-0.88061937614843533, 1.4025715499495508)	(4.1445513029257111, 3.4160175931054031)	(-3.6795358675754199, 7.5442646666676367)	1.0	slash	2.42646
15	N	A	A	N	B	M	B	M	N	8	1	shapes	A	0	False	133	(-2.6831031668845817, -2.1786905858075896)	(-0.78219421937760814, 3.3186636172800394)	(3.4396942678961651, 1.2031027435296391)	(8.0031186019167677, -2.8785255949299451)	1.0	slash	1.44082
16	N	A	A	B	M	M	B	N	A	8	0	shapes	N	0	False	133	(-4.3181424367446164, 5.6740323153058281)	(-8.640148699581669, -3.7689948731872747)	(-3.403652331275083, -0.81617672493479088)	(5.2345951665924844, -5.0508393194148127)	1.0	z	1.8598
17	N	B	N	M					B	4	2	shapes	N	0	False	133	(-4.5377788589100714, 3.0595336455165079)	(-2.0765482715040235, -3.2327805221544299)	(8.2968750466858339, -3.8439800575144716)	(4.9291307816439378, 7.8931783968106473)	1.0	slash	1.16195
18	N	A	N	A					B	4	2	shapes	N	0	False	133	(2.0648309695873586, -3.7652300689514648)	(-4.9497856037462817, 1.9454797666897132)	(-3.865572467887076, -4.6999689281775465)	(7.8240819697349941, 6.7260795523025454)	1.0	slash	1.78945
19	N	A	A	M					N	4	0	shapes	N	0	True	133	(7.2735555782350758, -7.5477218002995601)	(0.0088547927590827413, 0.08967308014840647)	(-8.0218351237014893, 7.6335282780425473)	(-5.9325326497202067, -2.5345239536752207)	1.0	slash	1.52892
20	M	B	M	B	A	A	N	N	A	8	2	shapes	M	0	False	133	(-8.496527409020457, -6.2097534902723037)	(-8.4539273989634669, -0.13256066836334846)	(-6.1133192266123473, 8.3256210354781821)	(4.3097916479223546, -8.1373734790575334)	1.0	z	1.36009
21	N	B	A	A					B	4	1	shapes	B	0	True	133	(6.8425991095545271, -1.0070284322043008)	(-2.0894144364605101, -6.7540992217600975)	(-0.93587882136892997, 1.0407971098743207)	(4.2131498489481398, 3.1995825095117265)	1.0	z	1.33405
22	N	A	N	B					N	4	0	shapes	N	0	True	133	(8.3681879832049155, 5.4832388639087508)	(-1.0650813641707746, -5.8878250433211257)	(-5.4175862160962094, 8.1208060492409047)	(5.5490458740162154, -3.2196376562016624)	1.0	slash	1.79788
23	M	A	A	N					M	4	2	shapes	A	0	False	133	(-4.5464348965311716, -2.9960406390732883)	(7.9784010102464791, -6.1755963308774922)	(-8.2436995237650024, 4.1059030485934986)	(0.90914138239030962, 4.8969033924889693)	1.0	slash	1.2474
24	M	A	A	B	B	M	N	N	B	8	0	shapes	M	0	False	133	(-4.2614336592077571, 7.32320161655419)	(-0.93848198704000296, 1.9765267847028518)	(7.2173036474977259, 4.0146354162058966)	(4.589477196720253, 7.202219314086646)	1.0	slash	1.28901
25	N	B	M	B	A	M	A	N	A	8	6	shapes	A	0	True	133	(-5.2448111311040435, 5.5989414711557366)	(1.7957618700450801, 1.7423129113768763)	(3.0982404928667098, -2.1054638907767433)	(8.293414927469577, 4.8270898176043744)	1.0	z	1.86609
26	M	B	A	N	A	N	B	M	M	8	0	shapes	M	0	True	133	(-3.1973510214021417, 5.7101744521134545)	(0.28105129469137324, 2.8650881557055712)	(4.144345316197743, 5.4114963064542128)	(3.8186004288022382, -1.6220038287348357)	1.0	z	1.48817
27	N	B	A	M					M	4	3	shapes	M	0	True	133	(-8.2024123264232731, -7.3061822632619204)	(0.13483838057997133, -8.1034266469307425)	(7.6662661359695861, 4.9607967155409565)	(-3.4751233881857599, 4.1399436257554481)	1.0	slash	1.36585
28	N	A	A	B					N	4	0	shapes	N	0	True	133	(5.1093274402902509, 7.8403348239305259)	(-5.8642527936349707, 2.0912702202022224)	(0.62100229289400666, -3.3702615390989799)	(-1.7323464691999364, -8.2121920144841436)	1.0	z	1.27936
29	N	B	B	A					N	4	2	shapes	B	0	False	133	(-2.4826623369351903, -4.8586883700243764)	(3.2040806334988226, 3.9280811150832022)	(-0.8438780461425246, 3.5863401509179553)	(8.5595864459618873, -3.2627120702568702)	1.0	slash	0.913088
30	M	B	N	A	M	A	N	B	M	8	0	shapes	M	0	True	133	(-0.4052470060494695, 0.66024514616485419)	(7.7234911652187819, 8.3027971152720426)	(-6.9953797230310988, -7.997680515221111)	(-5.8402507076890995, -3.6087008406284786)	1.0	slash	2.76513
31	M	A	M	B	B	A	N	N	M	8	2	shapes	M	0	True	133	(7.4581975354364971, 4.1262941024585444)	(6.9516964419357432, -8.3262388215376877)	(-7.1081429030375478, 0.12370006563150859)	(1.706432232013773, 6.5026512647630916)	1.0	slash	2.14169
32	M	A	M	A	B	N	N	B	N	8	2	shapes	M	0	False	133	(1.7230922773123787, -0.59878908714368073)	(-3.5653166599787651, 3.830924640006856)	(5.3284737772625324, -8.7212043167584437)	(7.2696514971667412, 2.6019273497329429)	1.0	z	1.22927
1	M	A	N	A	B	M	N	B	B	8	0	shapes	M	1	False	133	(4.4598945252141675, -0.6736499199431023)	(7.5772142883551687, 6.2763213458712777)	(-4.4562045216095107, -0.5650804425296716)	(-8.5893951069690893, 5.1381115066906897)	1.0	slash	1.07477
2	N	A	B	A					N	4	3	shapes	A	1	False	133	(1.2592802397138616, -3.4578185217487274)	(-4.8789814430634042, -8.5288279329472072)	(-2.890916158496486, 3.8749831549447205)	(6.6300795451424079, 6.4901211346856904)	1.0	slash	1.47894
3	M	A	B	A	B	M	N	N	A	8	6	shapes	N	1	False	133	(-4.9035560084115764, 7.4195743370919338)	(3.2514427591718942, -3.9439397116004331)	(6.2106590397998414, 6.2171828446323971)	(-7.449358698838771, -1.2846430003421263)	1.0	z	1.0309
4	M	B	M	B					B	4	0	shapes	M	1	False	133	(2.7648976517539872, -7.416293332298757)	(-8.4139361560506121, 3.1523806978132392)	(-4.4446791648429587, -8.5388167479254253)	(5.4737795949613055, 3.977458956193578)	1.0	slash	0.91411
5	N	B	A	M					B	4	3	shapes	M	1	False	133	(7.0115200144484113, -3.3003233643433596)	(-0.90448082075457137, -0.6532704361461672)	(0.4940895026275971, 4.6948628607377731)	(-3.6268339624952803, 5.9566070259649511)	1.0	slash	0.809881
6	N	B	B	N					M	4	0	shapes	N	1	False	133	(-0.84567998021692059, 5.4768233292538788)	(-1.0896165291443971, -5.2507945701056453)	(4.5209115754483253, -2.5861896346689841)	(2.4069100880869687, 1.6054350348131621)	1.0	z	2.0895
7	N	B	A	M	M	B	N	A	A	8	0	shapes	N	1	False	133	(2.5099455303703486, 4.1376063085913355)	(-1.1961570885106569, 7.5077287905549035)	(3.9752766522485725, -5.861690919565377)	(-4.1064428038043612, -6.1264746506358039)	1.0	slash	1.09825
8	N	B	M	A	A	N	B	M	M	8	1	shapes	B	1	False	133	(6.0280283111704609, 0.48822554727175849)	(-5.3458324826486514, 2.0274589526508446)	(8.3000200013584795, -6.5430123975382379)	(-2.5212474724963752, -1.5329821367403174)	1.0	z	1.01874
9	M	A	B	B					A	4	1	shapes	A	1	True	133	(-3.572758604390196, -3.0630340419934186)	(-0.52934935005138684, 1.0696997459297553)	(2.0722235245641123, 8.226732628700951)	(3.2920438334341036, -1.1372512820782026)	1.0	z	1.00828
10	N	B	B	A	A	M	N	M	M	8	5	shapes	M	1	True	133	(-0.47256618151756413, -0.88227146892720487)	(-8.1412393048069962, 5.7455147042889294)	(8.4452586873806474, 1.9560699197260725)	(8.0143351804833109, -2.3102934398698913)	1.0	z	1.29756
11	N	A	N	A	M	B	M	B	M	8	4	shapes	M	1	True	133	(-2.6730810044231728, 2.2771375094106237)	(-7.0106525797781787, 3.9567171505066892)	(6.6852035062682713, 7.1614878521258216)	(-5.3646375032953628, -6.0799531619290761)	1.0	slash	1.12893
12	M	B	B	N	A	M	N	A	M	8	0	shapes	M	1	True	133	(-4.3264995664472332, -4.0582181165996571)	(7.9495424787778965, -6.7076591151447236)	(0.83036779766676716, 0.23989021231536256)	(5.1499125192052553, -2.4181531091671644)	1.0	slash	0.906599
13	M	B	N	A					M	4	0	shapes	M	1	True	133	(0.013103813284025989, 7.5092911320091993)	(-2.3953913871863577, 1.2744976706246511)	(7.0809348063487452, -0.98355309076561337)	(-2.0977273419491107, -4.1030793221979334)	1.0	z	0.818218
14	M	A	A	N					M	4	0	shapes	M	1	True	133	(2.1977332075697014, 2.8659178885586005)	(6.7314961925256291, -4.9267035311714151)	(-2.3559601016047766, -3.2109046364508611)	(-5.6826057704329314, 6.9295580468328541)	1.0	z	0.94275
15	M	B	B	A	M	N	N	A	A	8	7	shapes	A	1	True	133	(-7.2999384600441379, -4.9763113585770373)	(0.74550803086881956, -1.4248068521701329)	(6.8145812087286242, 4.0844307041720178)	(6.3725882659420385, -0.24250175422853992)	1.0	z	0.87014
16	M	A	A	M					B	4	1	shapes	A	1	False	133	(-1.2875377166802613, 7.1638273628873392)	(3.1882556704606966, 3.1367288730793899)	(6.8695538626031691, -1.2869571842661589)	(-1.5198991174519385, -5.9541070756441972)	1.0	slash	0.989905
17	N	A	A	N					N	4	0	shapes	N	1	True	133	(7.8685659339466554, -4.3865493013272685)	(3.9666177364695532, 2.1187883690368459)	(-5.1441209836218977, -0.61887188610016075)	(-0.81736938981426999, 2.917846880679221)	1.0	slash	1.03951
18	N	B	B	A					B	4	1	shapes	B	1	True	133	(-3.1640125002685195, -8.6483435710280201)	(-2.5401958010226675, 5.5260053979613328)	(7.2249530868741161, 7.4510573172978347)	(3.6754069444541706, -1.1755934943114825)	1.0	z	0.73903
19	N	A	A	B	M	N	B	M	M	8	7	shapes	M	1	True	133	(1.8904395753613468, 1.5236178977738835)	(-8.3399406663368936, 2.8302367711302363)	(1.7526298605702966, 8.3177345494482431)	(-2.5342217263764617, -7.8771098276312355)	1.0	slash	1.01885
20	N	A	N	B					B	4	3	shapes	B	1	True	133	(0.093860629156138131, 6.8363995126951611)	(6.7216639898459345, -3.1318640277919529)	(-7.0224955647814236, -7.5031640229265877)	(-0.58969508753383515, 2.2308344187981017)	1.0	z	0.621902
21	N	B	B	N					M	4	1	shapes	B	1	False	133	(2.2055824860992814, -7.8808687591260016)	(0.25635397661502424, 7.5576046871081459)	(-1.9651075376354541, -6.9503733329668007)	(-7.7497278006517742, 1.9614681291866329)	1.0	slash	1.55392
22	N	A	B	A					B	4	1	shapes	A	1	False	133	(-3.8750640173986302, 8.2763078213023036)	(1.8648242341556251, -4.3143280064459173)	(6.4845542223968522, 5.3150048137584243)	(-0.39859945893617166, -0.46130167016964663)	1.0	slash	0.859473
23	M	B	B	A					A	4	1	shapes	B	1	False	133	(2.8720215494073642, 3.8628896375114525)	(1.6576987430722436, -1.3636701292653459)	(-7.7176316771882059, -2.1005054783768546)	(-2.1683857220330545, 6.1107529111946857)	1.0	slash	1.64916
24	M	A	B	A					A	4	3	shapes	A	1	True	133	(-6.2665685736447472, 5.9808769016123531)	(4.1934151438182052, 4.8438549209061534)	(-1.4726541369788908, -2.4503606786678267)	(0.43170905007078808, -7.3868410874649744)	1.0	slash	1.57489
25	N	A	B	M	B	N	A	M	M	8	4	shapes	B	1	False	133	(0.55221726547812011, 6.9073875469175974)	(-2.2007628551371612, -7.7939293611499538)	(6.1742529669987967, 3.4806769051747573)	(-7.4013550278693847, 8.3661698004756815)	1.0	slash	1.20579
26	N	A	M	A	M	N	B	B	N	8	1	shapes	A	1	False	133	(-6.4121247266971846, 4.1373499678144174)	(-1.2104695898147924, -6.237565516283226)	(1.7367353608995284, -2.0408619474647365)	(3.3963773600206206, 6.1928846365576398)	1.0	slash	0.824093
27	M	B	N	M	N	B	A	A	N	8	4	shapes	N	1	True	133	(-6.5637492828910373, 5.88823041163492)	(2.0760307515156136, -6.0831542406894625)	(1.9959080570390526, 5.5620221357582533)	(6.1898587443071573, -4.6892373591664027)	1.0	slash	0.965668
28	N	B	M	M	B	A	A	N	M	8	3	shapes	M	1	True	133	(-5.9812730377875152, 2.4578977423783819)	(-4.1619574611289263, -1.8235473466606997)	(0.73259303962802669, 1.3304621158299863)	(-8.2709736910833236, -5.4706093309870178)	1.0	z	0.799488
29	N	B	M	A	B	N	M	A	N	8	7	shapes	A	1	False	133	(4.5817127552073611, -0.73382366048212866)	(-1.9159253996346344, 8.6189531135327684)	(-8.612473393392218, -5.2192520404224343)	(2.3544188343791355, -6.8233986188612015)	1.0	slash	1.20309
30	M	B	M	B	A	N	A	N	M	8	2	shapes	M	1	True	133	(5.7690767788752328, 7.3843787003551036)	(-2.4931314370637763, -7.7543829281414762)	(-6.1055583789665917, 4.7262589749627075)	(6.6182674118229254, -5.9006391274245864)	1.0	z	0.708577
31	N	B	A	M					M	4	3	shapes	M	1	True	133	(-6.8339049742945868, -3.9667721559712916)	(-0.64663521524859569, 2.9415148226746854)	(8.2137274248255352, 4.2519321777528454)	(4.2523294551622808, -6.0342900311985153)	1.0	z	0.889473
32	N	A	M	M	A	N	B	B	N	8	1	shapes	A	1	False	133	(5.1046141320615472, 3.4518676146991165)	(4.6298927192557819, 7.9165750525029246)	(-8.3558282596099662, 8.1246652915784381)	(2.6551170137382805, -7.7151095806224692)	1.0	slash	1.4043
1	N	A	M	M	N	B	A	B	N	8	2	shapes	M	2	False	133	(7.7165338650264843, 0.1850966548193469)	(-2.9626390127093067, -3.6080979927137911)	(-3.7652041453976315, 3.5346506588225104)	(2.621653592025238, -0.70519895403553434)	1.0	slash	0.844986
2	N	B	M	M					N	4	0	shapes	N	2	True	133	(-7.2453045576305968, -0.68765583851589795)	(-2.1954440766947076, 6.9370451744719528)	(7.7352045658450841, -7.5299020083956707)	(6.0490024292569782, 2.3514037556184206)	1.0	z	0.725008
3	M	A	A	N					N	4	3	shapes	N	2	True	133	(-4.5931274643399567, -6.1933698128848143)	(1.4277091335154424, -0.63830494153232387)	(8.5829198462492933, 1.6373695842944915)	(-5.5399247587183913, 6.049902049227704)	1.0	z	0.646899
4	N	A	M	N	M	A	B	B	M	8	1	shapes	A	2	False	133	(4.3943277099730818, 4.336563075730135)	(-3.7663457217699765, 7.5712547327587671)	(1.4870350840054254, -4.2412950791949466)	(-0.26812768503832984, -8.3658883934652994)	1.0	slash	0.896376
5	N	B	M	B					M	4	0	shapes	N	2	False	133	(6.2498915481305453, -1.9331738390545494)	(-1.7421615838338811, 3.2521883963562601)	(-6.6847516813827017, -0.73001027388375306)	(7.0194249838657807, 6.3719090162629843)	1.0	z	1.34592
6	M	B	B	N	A	A	N	M	B	8	1	shapes	B	2	True	133	(-7.8272656301806451, 3.1154842431682805)	(5.2544883572692722, 5.782661821130878)	(-8.532563618077706, -4.1452228614035684)	(-0.96810007497018624, 5.7396444157440669)	1.0	slash	0.951123
7	N	B	M	N	B	A	A	M	M	8	2	shapes	M	2	True	133	(-0.80124960958917679, 3.5242624088787693)	(-6.4886133058524376, 6.3141462541745295)	(6.8589018847185113, 8.1334365369861459)	(8.4286151172181256, -4.9347021502052968)	1.0	slash	0.9438
8	N	B	B	A	A	N	M	M	M	8	4	shapes	A	2	False	133	(-6.8277609798940739, -7.6251411349021412)	(5.2325758405195888, -3.5785168873576776)	(-4.5204473231008633, 0.11380175176855722)	(-8.2579364345634279, -1.7432933636396841)	1.0	slash	0.655
9	M	B	B	A	M	N	N	A	A	8	2	shapes	B	2	False	133	(-1.9398529858253832, 3.553572273683006)	(-8.3190389268274725, 3.457868579859829)	(5.4401395294565074, -2.8496796590260782)	(7.4520241494669719, -7.5313658376894681)	1.0	slash	0.598773
10	N	B	A	M	M	N	B	A	A	8	2	shapes	A	2	True	133	(-6.2633100135724575, 8.6034051944746537)	(5.833574109169934, 6.7080357950837506)	(-6.2930670652996259, -6.7438140827029711)	(8.1140249950982799, -3.3925423783363868)	1.0	z	0.650309
11	N	B	N	B	M	M	A	A	A	8	7	shapes	A	2	True	133	(6.3415587842478143, 2.142082857071042)	(5.9179272625897408, 7.5385205096880306)	(-5.1026600677386913, -0.83738810099032257)	(-5.2603937035552963, 6.6678987570145978)	1.0	slash	0.739486
12	M	B	N	N					N	4	1	shapes	B	2	False	133	(4.6801710803711014, -2.3494818298076225)	(-5.0861054625803739, -4.8102707809441982)	(8.5624559445624726, 5.7881007795925203)	(-2.3610852063112215, 8.5730786889408854)	1.0	slash	0.745616
13	N	A	M	B	A	B	M	N	B	8	5	shapes	B	2	True	133	(2.4310413824021744, -5.7932282905544419)	(-7.0853180664568018, 5.1295319639360155)	(-6.2510430610930801, -3.6744177560377347)	(5.0015238185058255, 4.4418557293084948)	1.0	slash	0.646794
14	M	B	A	M	A	B	N	N	A	8	5	shapes	B	2	False	133	(-5.3109895637717184, -5.5144197023456929)	(1.9990536284048019, -0.28207707643099056)	(6.4248828822502411, -0.097339652859387726)	(2.0423547899313057, 6.3736930820995195)	1.0	z	0.840373
15	M	B	B	N					N	4	2	shapes	B	2	False	133	(-3.6804804384035386, -1.3060833357630068)	(-5.8329581590942032, 7.9911318418518817)	(3.4610426210571035, 8.6293669280111658)	(5.4412899469909064, -7.7788109309594953)	1.0	slash	0.614607
16	M	A	N	A					N	4	3	shapes	A	2	False	133	(-2.060193756312219, -5.675802780016201)	(6.527040144964797, -8.4250070290138339)	(-8.209279658261595, 5.455105016650176)	(7.1923855910929397, 7.0491574562453323)	1.0	slash	0.66815
17	M	A	M	B					M	4	2	shapes	M	2	True	133	(7.3496236954115091, -7.1340921896927583)	(2.3725348759431384, 7.6250035898276209)	(-1.6575487739977088, -7.9539819100539058)	(-4.9975380045944728, 5.4989211024401001)	1.0	z	0.735813
18	M	B	B	N					M	4	0	shapes	M	2	True	133	(-8.6112758977430932, -3.9258432955175868)	(8.2487966169667999, 0.084327269318572817)	(5.0917605790000735, -3.5535039021493757)	(-3.2447406659981803, 6.4387502208907517)	1.0	z	0.519621
19	N	B	N	B	A	M	A	M	B	8	3	shapes	B	2	True	133	(-7.1826088005742488, -4.7940096132165078)	(7.8390733863757447, 7.7171521421831351)	(-3.3640648794745145, 4.088502571820916)	(2.5714441139872228, 4.2957717189983313)	1.0	slash	0.666759
20	M	A	A	N	M	B	N	B	M	8	5	shapes	B	2	False	133	(-7.8878218865791903, -7.7092696526523836)	(6.5356309835675273, 0.086291741866446614)	(8.4259958309169178, -4.4776520594904419)	(-1.27098913636517, -5.8813951828410271)	1.0	slash	0.888914
21	M	B	M	B					M	4	2	shapes	M	2	True	133	(2.0221677201932806, -5.6537750956188528)	(-2.290533198264999, -6.6485349223667392)	(-3.2348864488554598, 3.6462664047842104)	(1.8207240129054298, 0.72374307985686315)	1.0	z	1.12851
22	M	B	M	B					A	4	0	shapes	M	2	False	133	(2.8219738588181347, 0.50811262487813913)	(-6.5557510577622438, 1.4752096875360117)	(-8.0705151259275816, -4.4038402785560899)	(8.4307464719726397, -4.4512205833196123)	1.0	slash	1.63021
23	M	B	M	B					N	4	3	shapes	B	2	False	133	(1.1262360238829761, -6.800698081991861)	(-8.4990586628756759, -1.0563935918987832)	(4.0924377804243708, 4.6348392163566476)	(-3.9014014299061106, 5.4545150390108521)	1.0	slash	0.673932
24	N	B	M	A	M	B	A	N	A	8	5	shapes	B	2	False	133	(1.5795802030652837, -1.5803221916784684)	(6.6303771976254708, 4.336971050034089)	(-2.234881351082139, 7.2488787684544533)	(-2.9611842209836823, -7.2770395058510884)	1.0	z	0.67741
25	N	B	M	B					M	4	0	shapes	N	2	False	133	(8.5601088587535052, -6.1652944589909415)	(1.9130953194872475, 6.4668423562679376)	(-6.3242203867723781, -4.5311518314399599)	(-3.9559733959505392, 5.429149096875852)	1.0	z	0.801237
26	N	B	B	A					B	4	1	shapes	B	2	True	133	(0.77889013637883941, 7.214354140692615)	(-8.1543837857354387, -1.062651673638336)	(-1.865409352758391, 1.7384496289382998)	(5.4458233457464313, -6.0339473494187423)	1.0	z	0.690816
27	N	B	B	N	M	M	A	A	B	8	1	shapes	B	2	True	133	(-6.7709985933135624, -2.3588266656614367)	(-4.2449250003117509, 6.8314042505273136)	(3.3745729171837038, -2.2566250121737994)	(-3.043894765467213, -8.0792407372903359)	1.0	z	0.690476
28	M	A	N	N					M	4	0	shapes	M	2	True	133	(-6.9324546795125812, 1.9226040331299288)	(-2.3054464047431527, -4.9750191854711119)	(6.8361974694193979, 1.7858056032485798)	(0.25914063590657221, -1.2876773599460529)	1.0	z	0.632122
29	N	B	B	A	A	N	M	M	A	8	4	shapes	A	2	True	133	(-1.1588359075996397, 3.3683315403726457)	(8.4482489284168061, -3.0380187346875154)	(-7.4387723350249413, 5.00470164371173)	(-6.5241380390987276, -6.7800798178350599)	1.0	z	0.811562
30	M	A	N	B	B	A	M	N	B	8	2	shapes	N	2	False	133	(7.5640761273251655, -7.9428226937452635)	(-2.9279996960755543, 0.23621569211107563)	(-5.4974193405460081, 8.3554121379321735)	(1.016976501823402, -4.6928550389772132)	1.0	slash	0.697966
31	N	B	A	M					B	4	1	shapes	B	2	True	133	(-1.4874529262779124, -3.2481178384291054)	(7.1470401753682502, -5.0720086475580155)	(0.36403722765827418, 1.0799860683896618)	(-1.5827564998175321, 7.987581874218602)	1.0	slash	0.70497
32	M	A	N	M					N	4	3	shapes	M	2	False	133	(3.0738282240695192, -5.101433821197487)	(4.0055202328590358, 0.27656866618312037)	(-6.9697699798776656, 0.99003014466647166)	(-5.1988553312372421, -4.3793665279136853)	1.0	z	1.47045
1	M	B	N	B					M	4	0	shapes	M	3	True	133	(-1.2726810371312123, 0.43137598623961004)	(6.6171390500780412, 4.7794583228199485)	(-7.4225616303698576, -0.71963490898483151)	(2.9328462114850886, -8.3816100347488529)	1.0	slash	1.16614
2	N	B	M	M	B	A	A	N	M	8	3	shapes	M	3	True	133	(-4.2788941893659853, -1.2387906630055605)	(-7.3851956485210337, -8.3185269676199738)	(3.6749381627099922, 7.2763395745830195)	(-1.853932493375865, 3.6320874862068564)	1.0	slash	0.791031
3	M	A	A	B					B	4	3	shapes	B	3	True	133	(6.1812117289873214, 8.3184053392047481)	(0.45032194267336045, -6.7140733408928428)	(-7.6764471287204055, 0.27945723351596641)	(-3.8812301830376388, -2.2924927819320526)	1.0	z	0.827626
4	N	B	A	A	N	M	M	B	N	8	2	shapes	A	3	False	133	(0.00033670746691250031, -6.0315781536803454)	(7.7221519243260452, -0.53599829348230976)	(-3.3219260014660668, 6.2698572911376811)	(-4.2711727352128124, -8.0896873445352959)	1.0	slash	1.3365
5	N	A	N	A	B	M	M	B	A	8	7	shapes	B	3	False	133	(-1.7087121727730317, -0.50434134116204454)	(6.5590578608605288, -0.6980247115577658)	(-0.4412355131431287, 7.7452784538551356)	(-7.2606449287769115, -7.2256717657818488)	1.0	slash	1.1049
6	N	B	M	B					A	4	2	shapes	M	3	False	133	(-0.88457571907148491, 4.027167354859774)	(4.1222940497529859, 6.5335608592668422)	(-7.5252853422932482, -1.1065413364690757)	(6.9729886994780657, -7.9068427142321687)	1.0	slash	0.798101
7	N	A	A	N					A	4	2	shapes	A	3	True	133	(8.2993720645617515, -0.81726063650729674)	(2.6958306764147846, 4.76814831091699)	(-7.8526726365580579, -5.2017823020448688)	(-3.6619351184822069, 5.6921059067972521)	1.0	z	0.566034
8	M	A	A	M					B	4	2	shapes	A	3	False	133	(-4.6039274043663161, 0.36977929907621565)	(7.7778557614804669, -5.6919262655877843)	(-7.0230371179557824, -4.500638994015647)	(1.5832838791546067, 8.6536244350831417)	1.0	slash	0.861491
9	M	B	M	B					M	4	0	shapes	M	3	True	133	(-8.1310111501562687, 8.4017606467665509)	(5.6032742284741008, -2.1668949347977833)	(-8.1337275977911041, -6.1745540608715066)	(4.084403962621046, 5.0789900827957926)	1.0	z	0.857316
10	M	B	N	B	N	A	A	M	A	8	1	shapes	B	3	False	133	(6.009919371023722, -3.3907772903051434)	(0.66693389944226489, 5.6417816918841748)	(-5.6814442318782685, 7.5603390902403582)	(-8.5284491412246748, -8.2926843648194595)	1.0	slash	0.966496
11	M	A	B	B					M	4	1	shapes	A	3	False	133	(3.1326920517897889, -4.5447287985439635)	(3.2733138549765872, 1.7459545776537606)	(-4.3934655407074672, -5.0893145246934406)	(-7.5966501832363376, 8.5681157098157961)	1.0	slash	0.565966
12	N	B	M	B	M	N	A	A	A	8	6	shapes	A	3	True	133	(-3.3101745596032774, 4.7818688391199284)	(-4.0806674563703753, -3.0611904578541456)	(-8.0811066407363583, -4.5476469614055341)	(3.7780671964844554, 1.8927466558178043)	1.0	slash	1.18375
13	M	A	N	N	A	M	B	B	B	8	4	shapes	A	3	False	133	(-8.5949678822735756, -1.4812887457919706)	(4.1121403390655935, -2.0095609161811172)	(5.1177767358014847, -5.9147727163320454)	(-2.3199373994743571, 3.7611604711920243)	1.0	z	0.80601
14	M	A	N	N					A	4	0	shapes	M	3	False	133	(0.025643247097416833, -3.9169999576673646)	(5.543636305191427, 3.8276053534346115)	(-2.6636856525523216, 4.4478843369573173)	(-2.5805732976646514, -0.24508236764908631)	1.0	slash	0.639557
15	N	B	M	A	A	N	B	M	M	8	5	shapes	N	3	False	133	(5.6865532292226426, -4.6670958333773518)	(-4.0080887245992125, 6.2387785497858825)	(6.3367414787986327, 6.7882685467297126)	(2.0118187603857773, 3.770488798281491)	1.0	z	0.674843
16	N	A	M	M					A	4	1	shapes	A	3	True	133	(-0.96830294033654418, -1.2087079972007073)	(1.4933237855025734, 5.9492872839212154)	(8.224638582361699, -1.1901470910720553)	(-6.7025648190985159, 6.8940389266331561)	1.0	z	0.926969
17	M	A	A	B	N	B	M	N	M	8	7	shapes	N	3	False	133	(4.9230773912656414, -0.91955191556716898)	(7.7509145379459206, 2.4959244592088901)	(-8.6090424743049461, -6.6336242880268301)	(6.3875932299619311, -6.7385621024223852)	1.0	z	0.896028
18	N	B	M	A					N	4	3	shapes	A	3	False	133	(2.4271641910684849, 4.1913233774819254)	(-8.5722977415723189, 7.8006764649183573)	(-4.1514251977122596, -2.6102876269540669)	(7.6739636938922295, -6.8474957304758828)	1.0	slash	0.76843
19	M	B	B	A	N	N	A	M	B	8	1	shapes	B	3	True	133	(3.1086149901630389, -8.1668956019836507)	(2.4037880853136873, -1.2478850445662228)	(-2.870524936883756, 0.51872404826644214)	(-1.1691566464338834, 6.8336689077245882)	1.0	z	1.01027
20	M	B	B	M	A	A	N	N	N	8	6	shapes	N	3	True	133	(-2.9283132895533637, -5.7589668344624076)	(0.37364023364137289, -1.1117277378549613)	(-5.9391270077616003, 5.0891961050109469)	(-0.12293328566846284, 4.7191938670654956)	1.0	z	1.0194
21	N	B	B	M					N	4	0	shapes	N	3	True	133	(-4.8291947953758765, 7.4127546692609236)	(-8.5528999138173276, -4.1964292531122638)	(5.4723714559206336, -1.5022579493436421)	(3.1209392615244216, 8.5369156275499058)	1.0	slash	1.00723
22	M	A	A	M					A	4	1	shapes	A	3	True	133	(-1.5236266864595907, 1.1689268009034528)	(-8.717584707743999, -4.5936144048300376)	(3.6448169784553528, -0.64769723057923834)	(7.8969202263450455, 8.1415373091823504)	1.0	z	0.662845
23	N	B	M	M					B	4	0	shapes	N	3	False	133	(8.1653950535092044, -7.2295549347585064)	(-1.9329336848192105, 1.2777613867979802)	(4.200581574458063, 5.7671351762401706)	(-7.1417930326915764, -2.3351449465213054)	1.0	slash	0.738409
24	N	B	N	A	A	B	M	M	A	8	5	shapes	B	3	False	133	(-5.7427506543904379, -7.5220748290762485)	(-1.0441568552448608, -0.99806451205049029)	(-6.3539293942568396, 0.40167149143488245)	(4.8612574232797616, -8.2418109285130097)	1.0	z	1.36158
25	N	B	M	N					B	4	3	shapes	N	3	False	133	(4.7929067064969537, 1.6024298317933958)	(4.9639425451775328, -7.9845913968038094)	(-6.7120644883770826, 3.2556196962728698)	(-6.3239347645294863, -1.5092230942774414)	1.0	slash	0.658082
26	N	A	M	N	A	M	B	B	B	8	6	shapes	B	3	True	133	(-8.0973549496211668, 0.24137178962784311)	(4.4521670260883415, 3.800805182185746)	(-0.79864328091801884, 2.6131398916656892)	(7.8739225887637971, 8.2265496254365225)	1.0	z	1.66125
27	M	A	N	A					M	4	0	shapes	M	3	True	133	(-8.5836951189461388, -5.0785364996475391)	(5.5672976275204267, 7.172640137832575)	(-3.7450208972036405, 1.7296353348383349)	(2.4232921912561221, -5.5814801978509863)	1.0	z	0.9051
28	M	A	M	B	B	A	N	N	M	8	2	shapes	M	3	True	133	(0.8817863582180685, 0.54408420707510707)	(4.8576101359325783, 5.1132664044097336)	(-5.6065106496709802, -1.7286215403388061)	(-6.6088035730058117, 5.6544902333357996)	1.0	z	0.710582
29	N	B	N	B	A	M	M	A	A	8	7	shapes	A	3	True	133	(7.2445584532789553, 2.1234388385634215)	(3.7100862216653798, -6.0748334867586795)	(-6.6399036605557837, -6.3039949758250469)	(-7.4367326857333671, 0.091594997338049211)	1.0	z	0.884387
30	N	B	A	A	B	M	M	N	A	8	2	shapes	A	3	True	133	(2.4440268703303349, -3.9940328904215976)	(-6.4184122330495299, -3.5751444848133884)	(4.7017988791291749, 8.3564240210610912)	(1.4266239371227396, -8.1448973673628622)	1.0	z	0.749832
31	N	A	B	A	N	M	B	M	A	8	6	shapes	B	3	False	133	(-5.4703586011946586, 5.9680350621226808)	(4.0148777545928311, -0.82357939889707321)	(-2.5574333133515168, -6.2702992252667951)	(-1.31014177152898, -0.072154637972658975)	1.0	z	0.659468
32	M	A	B	B					M	4	2	shapes	B	3	False	133	(-2.2452618416102901, 6.4371340648660915)	(7.8346350566999341, 4.4209992830294347)	(6.8739872263262658, -5.3086374983346198)	(-1.3154466788636139, -3.9146351357836853)	1.0	z	1.42463
1	N	A	A	M					N	4	1	shapes	A	4	False	133	(6.8581088329260709, 4.7623598507162512)	(6.3538862700059031, -4.5038630808941473)	(-8.5391350261396539, 6.5209308826036096)	(-6.4805670253103251, -7.3026978345669891)	1.0	slash	0.620524
2	M	A	A	B					M	4	0	shapes	M	4	True	133	(5.2958664734386396, -5.6846752650764536)	(-8.23690479111686, 4.7340622476540002)	(-2.1347560833744232, -4.4488642676179335)	(1.5936620852990036, 1.6578784149156949)	1.0	z	0.664466
3	M	B	A	A					N	4	1	shapes	B	4	False	133	(4.828696823613198, 2.2091775991065852)	(-4.284586044515204, 1.0950985081382569)	(-3.5593499273910343, -7.7817916769100037)	(4.7161654093976715, -8.3709213050878954)	1.0	slash	0.771929
4	M	B	M	B	N	N	A	A	B	8	3	shapes	B	4	True	133	(1.3750748836792557, -5.7227510715221177)	(5.8888698842415756, -8.3056428402143681)	(8.0516390518371281, 7.1979011169605087)	(-4.7222910467307084, 3.616564777938363)	1.0	z	0.8279
5	M	A	A	B					B	4	1	shapes	A	4	False	133	(-0.63110295222566926, 6.5528793052005927)	(2.6052079762323839, -0.75203701205278772)	(-2.6641131061988732, -4.5325565339670515)	(5.6653812933376066, 4.2504897674088085)	1.0	slash	0.621422
6	N	B	B	N	M	A	A	M	N	8	3	shapes	N	4	True	133	(-8.4209575074372331, -6.3395492948414152)	(6.2975953023351749, -8.4299174416534051)	(4.2557799011015014, 4.4260274380295854)	(1.9612044136910516, -7.7087827036446059)	1.0	slash	0.796478
7	N	A	B	A	M	M	N	B	A	8	2	shapes	B	4	False	133	(-5.7099776442118229, 4.5960055631244447)	(1.2941699634903721, -3.010537830112213)	(5.2969322479708385, 6.6778604599355429)	(-5.0840357544212713, -0.44291259785225812)	1.0	z	0.85903
8	N	A	N	A	M	M	B	B	M	8	4	shapes	M	4	True	133	(1.8486836453427866, -4.5393833532098613)	(-1.1802495697095869, 5.9719463367762167)	(7.043541855261493, -3.4560167710917744)	(8.5068930077756377, 4.1027321752599928)	1.0	z	0.889693
9	M	A	A	M	N	N	B	B	A	8	6	shapes	B	4	False	133	(-5.7056305329104822, 3.7700796776125802)	(5.4608771239240248, -3.0522165936159293)	(-3.359667898205922, -7.3519770546573504)	(6.5280056470324119, 8.2355631594788434)	1.0	z	0.617528
10	M	A	M	B					M	4	3	shapes	B	4	False	133	(6.4011212685805479, -4.9305536338914457)	(0.28793973096557401, 2.9929490276464001)	(-0.84945179550241789, 7.7773538953426531)	(-6.5104989341351658, -5.7433661525683242)	1.0	slash	0.571664
11	M	A	M	N	B	B	N	A	B	8	1	shapes	A	4	False	133	(-5.6932285426832596, 6.1995032856741155)	(8.6074379797164404, -2.9520940514609233)	(-3.324358613837096, -4.702578729935559)	(-7.6488421014734378, -8.146080981959738)	1.0	z	0.827008
12	N	A	B	B					A	4	1	shapes	A	4	True	133	(-3.5812213763447973, 3.2798211272853663)	(-2.6097031946244487, -2.2445739334539869)	(1.1657841547200487, -0.643290288174585)	(7.8637885603183939, 6.2974366908473129)	1.0	z	0.599176
13	M	A	B	A	B	N	N	M	M	8	4	shapes	B	4	False	133	(2.4031419093386877, 1.1838410710268157)	(5.5757654068471521, 6.7903873951976763)	(4.9484852706349134, -2.4600917272315392)	(-1.9544221443060392, 7.9262071722918392)	1.0	slash	0.746237
14	N	A	A	M					N	4	3	shapes	M	4	False	133	(5.7191146934908623, 7.6026014481246094)	(1.0905322065040544, -2.9801746759571826)	(-3.9573798619021581, -0.66396860827301474)	(-8.2649791267542074, 2.9818935578438026)	1.0	slash	0.750432
15	M	B	A	B					B	4	0	shapes	M	4	False	133	(-1.0032875416949842, -0.42223567286152175)	(3.1853626453429094, 1.83942522657855)	(7.0285082691855294, -4.0211483595980342)	(-6.2825803710191899, 4.0261824290694808)	1.0	slash	0.632254
16	N	B	B	A	M	N	A	M	N	8	4	shapes	M	4	False	133	(-6.0400630553151871, -5.0580493941892879)	(-5.44848039311929, 6.5759519828842059)	(5.7519638401231976, -7.011164762287482)	(-5.80109012238783, 0.59531131373296198)	1.0	z	0.810926
17	M	B	B	M					B	4	2	shapes	B	4	True	133	(8.1095051425760118, -3.741577784851037)	(-2.4524381465916063, -1.6650156385431281)	(3.4632723500050986, 2.3633250905668284)	(-3.1128701785295148, 4.3460789925466337)	1.0	z	0.777384
18	N	A	M	B					N	4	3	shapes	B	4	False	133	(-6.8185871314726221, -2.748093978382764)	(4.706523160833374, -1.5545682598657171)	(-3.8693094211958909, 1.6325324780033093)	(5.6037079451402416, 4.5083655361559281)	1.0	slash	1.09908
19	M	B	A	B	N	N	M	A	A	8	3	shapes	B	4	False	133	(-7.5575620883696821, -6.0786902931263977)	(-7.5759179030066521, 4.5316506908225946)	(6.1774597272685288, -8.5507428904464682)	(-1.7289418667677587, 0.92995346476389251)	1.0	slash	0.930776
20	N	B	N	M	A	A	B	M	B	8	1	shapes	B	4	True	133	(8.5181655615269065, -4.751949958574329)	(0.28644649999407967, 3.8480539817591328)	(-3.3338006013280346, -6.6795221165679006)	(-4.5852773672106855, 5.0131677696246921)	1.0	slash	0.771654
21	M	A	B	M					B	4	1	shapes	A	4	False	133	(6.7039477302399497, -7.0277401379158615)	(0.62537069414417701, 5.9345663521299326)	(-2.3403353958376467, -0.30106790606969192)	(-7.0630497063997471, 5.9806996851052325)	1.0	z	0.622244
22	N	B	M	B					B	4	1	shapes	B	4	True	133	(-8.5313315175144417, -1.7135849218505292)	(-0.64077365204921755, 8.6926068799983653)	(6.4782758951579922, 0.92036372536553124)	(3.6140464721883916, -2.6987723540670583)	1.0	z	0.621543
23	N	B	A	M					N	4	0	shapes	N	4	True	133	(-5.3428247036546441, 5.1254375667580856)	(6.5649346126539072, 5.5001802302180298)	(-2.8775603612573821, -0.93772196006616504)	(5.6521985179932219, -5.3628178650590659)	1.0	z	0.591218
24	N	B	N	B	M	M	A	A	A	8	6	shapes	A	4	True	133	(1.5237404323998369, -3.5951386079533636)	(-8.1084788090450992, 1.9117028246631822)	(-3.018574564456717, 3.0941069286489356)	(-3.9526535868981414, -5.4535694479150774)	1.0	z	0.724857
25	N	A	M	A	B	N	M	B	A	8	0	shapes	N	4	False	133	(2.4272405409076292, 2.5067158093585906)	(6.9885173958754496, 6.0177419345557244)	(-7.9894131367267285, -0.93866231027680858)	(-4.0531965640276253, 8.2751742670106374)	1.0	slash	0.910641
26	M	B	A	N	M	B	N	A	A	8	6	shapes	N	4	False	133	(-5.0336825151110585, -4.7265030556151491)	(-1.8909132725585351, -1.7957242429336295)	(2.0765256344111229, -5.2903632693114462)	(-6.9937399038156389, 7.8829425043059587)	1.0	slash	0.692064
27	M	A	A	N	B	N	B	M	M	8	0	shapes	M	4	True	133	(4.4808710378731007, 3.6795820794918246)	(-2.6618561831831951, -2.6173782757943984)	(-0.013633642228462861, 5.9343657567518004)	(-6.7688664642866891, 1.8181706606449843)	1.0	z	0.907962
28	M	A	A	B	B	M	N	N	N	8	7	shapes	N	4	True	133	(-2.1824437185097851, 6.3768233658479545)	(5.9277903140741532, -4.2460974603033366)	(-4.9127501712019939, -7.2195195103727485)	(-3.3534335792537293, 1.2209564299004789)	1.0	z	0.632936
29	M	A	N	A					A	4	1	shapes	A	4	True	133	(3.2797817280194774, -7.6482248912040038)	(6.9801342117872398, 3.8917317828898792)	(-8.0240554415564578, 4.0230751051716922)	(-6.4582413968905055, -7.8269919911658015)	1.0	z	0.755197
30	N	A	M	M					M	4	3	shapes	M	4	True	133	(-4.1669545192004058, -0.55168077128743498)	(4.2707670828333413, -5.4829813606188189)	(7.0773469248629262, 4.1536465485022855)	(-6.2882663663444145, 7.2393827625318075)	1.0	z	0.636712
31	N	B	M	M	N	B	A	A	A	8	6	shapes	A	4	True	133	(2.3565151311347439, 5.2311803019739891)	(8.600637434924213, 3.7415140326972267)	(-7.7092913474122495, -4.7353555012878967)	(-7.0225906471051811, 2.6155159168325728)	1.0	z	0.67998
32	N	B	N	B					B	4	3	shapes	B	4	True	133	(8.1301655904728598, 8.6361873317280029)	(-3.3257783961239076, -6.912729539687585)	(-4.3153087049255126, 6.4243828103339293)	(8.7452352230160209, -4.2801926110643516)	1.0	z	0.730057
1	N	B	M	A	N	M	A	B	M	8	2	shapes	M	5	True	133	(-8.081205802150718, -3.706814301767853)	(0.13435307379612382, -6.0408147954475506)	(-1.178269293607257, -0.58372804691178359)	(6.7635433212970852, 6.9893482899717352)	1.0	z	0.647917
2	M	B	B	A	A	N	M	N	B	8	2	shapes	B	5	True	133	(5.2930018265650727, -4.2584131559418097)	(-8.6528346379028083, 5.4057145000189966)	(-2.1856030153141237, 4.6550696447152387)	(0.45743533808836645, 8.5533087531830212)	1.0	z	0.880695
3	N	A	M	B	M	A	N	B	B	8	7	shapes	B	5	True	133	(-7.2539588398435608, -7.6915891031914931)	(1.3045915804699746, -0.93736441671418547)	(-5.271226793230249, 6.1075230889070262)	(-7.6510074231891503, -2.3958506938316209)	1.0	z	0.674386
4	M	A	B	M	A	N	B	N	N	8	3	shapes	M	5	False	133	(8.1982089998016257, -8.1126390165080302)	(-8.6003632775134342, -1.9319544428833133)	(-2.7607918431755207, -6.9412111951837323)	(-6.529992715723397, 3.1462036988647153)	1.0	slash	0.84688
5	M	A	N	N	M	B	A	B	B	8	7	shapes	B	5	True	133	(7.7112720767885641, -3.9870142122522054)	(6.2821097312865444, 8.5772840543599109)	(-5.0056276803964064, -1.4068884546661335)	(0.49259868571206233, 1.9461555733658429)	1.0	slash	1.00977
6	N	A	B	N	M	M	B	A	A	8	4	shapes	M	5	False	133	(-5.2073079503589668, 6.6329894065790498)	(7.291608096194981, 0.13232534100833071)	(3.2071953646426721, -0.59467884273939831)	(4.1472276142207338, -8.5337014741557073)	1.0	z	0.837376
7	M	A	N	A					N	4	3	shapes	A	5	False	133	(0.10677615039057287, -0.54861892700060366)	(7.7451931563594165, 3.6876866280840215)	(-5.2446098625641486, 3.5844045701385276)	(-3.2931724767565953, -7.1914282235339027)	1.0	slash	0.771627
8	M	B	N	B					A	4	0	shapes	M	5	False	133	(-5.3992911795786203, -5.2663481886704249)	(3.5805098890251941, -4.6887168523796712)	(-4.1298052816100164, 0.17345245444743362)	(6.7906854329131541, 8.67769281286024)	1.0	slash	0.79537
9	M	A	N	A					M	4	1	shapes	A	5	False	133	(2.3815699275481172, -2.6330426354486596)	(0.80565464856390356, 2.8276126485823401)	(-2.8879057428615678, 0.46009858600016074)	(-7.9624946875585936, -2.2071243028018914)	1.0	slash	0.667208
10	M	B	M	B					A	4	3	shapes	B	5	False	133	(-0.00036849740231126304, -4.0963862043729282)	(0.70945779261354502, 5.981045611060301)	(4.8112307008566546, -7.2894064029133716)	(-5.675890773938125, 4.8256079912484839)	1.0	z	0.648569
11	M	B	B	A					B	4	1	shapes	B	5	True	133	(-4.1421423923060017, -8.2596760331843946)	(0.66909580560712101, -4.7805799730337064)	(-7.0319769799957008, 6.1837349679112901)	(2.8223564234155205, 3.634002884669453)	1.0	slash	1.27837
12	N	A	M	A	N	M	B	B	M	8	1	shapes	A	5	False	133	(-8.0043988116388931, 2.4175076763203798)	(3.2293018413252916, -8.2739514631248827)	(-3.5443903290640977, -3.7397034419592394)	(-2.0412402708429633, 4.6754432108354198)	1.0	slash	0.903867
13	M	B	M	N	N	A	B	A	B	8	0	shapes	M	5	False	133	(-2.3620884143823142, -7.1874650224185963)	(5.7806955385693968, 3.7550528853716525)	(1.9855855393164052, -3.8462581093758459)	(-6.4318282607444264, -7.2731697630161829)	1.0	slash	0.667493
14	M	B	A	M					M	4	0	shapes	M	5	True	133	(-3.009025680930991, 1.2616586988766123)	(-0.35958424967972569, -3.691678725625235)	(6.0569170702882129, -6.3287623265554007)	(4.6469810222616523, 2.7626402842817583)	1.0	z	0.614501
15	N	A	A	M	B	N	B	M	N	8	1	shapes	A	5	False	133	(4.8418323758990383, 6.1144082644366495)	(-3.5521043010188613, 5.6068362642822329)	(2.0739276952267183, -0.51036280122326616)	(-5.0428672590902446, -5.0656830364791325)	1.0	slash	0.678135
16	N	A	N	B					N	4	1	shapes	A	5	False	133	(-6.0881598030105479, 8.2546154729466537)	(0.50621809503187976, -0.034460197433643813)	(7.3597530255358841, 3.6305101147221936)	(-1.8490305600342323, -7.5087682710358363)	1.0	slash	0.584563
17	M	B	A	N	A	N	M	B	N	8	5	shapes	N	5	True	133	(-0.53260798871974302, 6.924749490462494)	(-1.0304411235154003, -7.3715396714611039)	(-6.8013837701038433, -5.2328820999171937)	(2.4795372410232606, 2.3883626006058734)	1.0	slash	0.670144
18	M	B	M	N	B	N	A	A	M	8	2	shapes	M	5	True	133	(7.5053684758412125, -1.1767258917955195)	(6.1672605540299177, -5.8443399071402222)	(-3.5674769176575589, 5.5446817606899153)	(-6.2699349900770978, -7.7902536960635169)	1.0	z	0.733413
19	M	B	B	N	N	M	A	A	M	8	3	shapes	N	5	False	133	(-5.1930378048043426, 3.0361407625378156)	(4.0116624010969666, -5.7613033520772685)	(-1.9552263370074439, -5.9287162616893294)	(-2.5548255834861386, 8.3431536019850014)	1.0	z	0.698874
20	M	A	A	M					A	4	1	shapes	A	5	True	133	(-4.0593456313914844, -3.5840466976929894)	(-4.6570744187496551, 0.88872100768960571)	(1.8159052102422422, -4.080102035000821)	(4.1697885345603236, 7.6766618277962095)	1.0	z	0.53529
21	N	B	B	M					M	4	3	shapes	M	5	True	133	(-3.3059353051631248, 5.9530727678419417)	(4.8453719442697896, 5.4626473099434758)	(4.8005251524420753, -5.6952218498855594)	(-6.3278888536092301, -7.16429653691974)	1.0	z	0.606847
22	N	B	A	N					N	4	1	shapes	B	5	False	133	(5.0689174798203975, -1.20884427682567)	(0.017035371639364527, 2.940941089300539)	(-7.645515016285775, 5.0939198519144764)	(-2.532782017832079, -2.3998363703742669)	1.0	slash	0.596675
23	N	B	B	N					N	4	1	shapes	B	5	False	133	(-6.7383456837343418, -5.8642521267809613)	(7.5512469393166697, 1.6186480498262998)	(5.211561967986956, -7.4779588372180523)	(-8.6557480943841245, 8.3854860638063542)	1.0	slash	0.78822
24	N	B	B	A					A	4	0	shapes	N	5	False	133	(-8.5113440876026196, 0.97059317626552044)	(1.4501083563359565, -4.7810376114713895)	(-7.3425860344439045, -8.0453534014544807)	(6.1725971818194143, 7.0292878577089937)	1.0	slash	0.580044
25	N	A	B	B	A	M	M	N	B	8	6	shapes	M	5	False	133	(-1.0339168082369659, -0.016281493279668879)	(-1.2575593271053167, -5.6974920059469305)	(3.4514134339979652, 1.8738033998878461)	(6.948127061249048, 7.0302319797195274)	1.0	slash	0.61703
26	N	B	N	B	M	M	A	A	M	8	4	shapes	M	5	True	133	(-5.9704451944569277, -5.5187440455511174)	(6.2062401287168392, -8.0816092227061223)	(5.4846897499596299, 3.9679047463375809)	(1.8694710523296187, -8.4604836956772616)	1.0	slash	0.878715
27	M	B	A	A					B	4	1	shapes	B	5	True	133	(3.0021482826261749, -7.8713881728591346)	(8.1570313122837099, 7.0714387721572169)	(-0.6857104636881477, -0.30038880520568334)	(-7.8365752735931178, 4.9699221766300994)	1.0	z	0.654875
28	M	B	N	N					N	4	2	shapes	N	5	True	133	(-7.8841723410254687, 0.10937474860830321)	(4.5764711986900153, 5.8850253466213331)	(-5.7084422801850101, -6.5354612822746017)	(4.6967596748792175, -7.1749767948982859)	1.0	slash	0.636586
29	M	B	B	A	N	A	N	M	N	8	0	shapes	M	5	False	133	(-7.431165023161995, -8.1100052524576469)	(-6.27200745570787, 3.5580283647778703)	(0.91216556202181209, 2.8088248920260064)	(2.7805196004666577, -3.1234199798477249)	1.0	z	0.568129
30	N	B	A	N					N	4	0	shapes	N	5	True	133	(8.4916291496750738, -6.191478453704983)	(-7.6986027715992265, 3.638518326491317)	(-3.0270410677403445, -3.2619920750491911)	(4.6786356978971728, 5.9948873310571944)	1.0	slash	0.741915
31	M	A	A	B	M	B	N	N	A	8	2	shapes	A	5	True	133	(5.6073008940301179, 2.9528300896627435)	(-7.6494362663115956, 3.6453926316054908)	(4.970450263054671, 8.6677411638838038)	(-0.012203526300124778, -1.5695399727666137)	1.0	z	0.835088
32	N	B	A	M					N	4	0	shapes	N	5	True	133	(-0.37680182719430633, 0.91298434772613213)	(5.3005070117919484, 6.6532689747073714)	(-2.6441360822850468, -5.3816244505210342)	(6.8739472816226961, -8.0554290580426304)	1.0	slash	1.28515
1	N	A	A	N	B	M	B	M	N	8	0	shapes	N	6	True	133	(7.6997850210296619, 6.3343514734849311)	(2.7234719866797015, 4.781307933898395)	(-4.311360073459495, -2.3371206252520675)	(4.3413977615509101, -1.871734923879977)	1.0	z	0.838162
2	M	A	M	B	N	N	B	A	N	8	3	shapes	B	6	False	133	(2.1236826361935002, 6.3003667541805122)	(4.6392755773535477, -1.9448805773914479)	(-2.8786455548622563, -4.55625085797345)	(8.226614526367225, -4.1145093144856295)	1.0	slash	0.933775
3	N	A	N	M					N	4	0	shapes	N	6	True	133	(-7.3119782171584671, -3.4903443982092215)	(-0.50003211373613965, 7.4266807843043026)	(7.5293330465043233, -2.5780467298084107)	(0.13131277588210999, 0.48200932714520839)	1.0	z	1.44406
4	M	B	N	A	N	B	M	A	M	8	0	shapes	M	6	True	133	(4.7696565190531839, -2.1534250271209698)	(0.48356060972483661, -8.249531559540058)	(7.5712906309718058, 4.247430587015339)	(-4.6358798526099445, -6.6462388389253899)	1.0	z	0.880095
5	N	A	M	N					M	4	2	shapes	M	6	True	133	(-7.7367691400277954, -3.9435969566312785)	(-8.012037659340109, 6.8512538752607419)	(1.406955125903993, 1.3597325504464219)	(1.5365487284183832, -6.104641530505571)	1.0	z	0.763312
6	N	A	B	M					A	4	2	shapes	B	6	False	133	(-4.8573259943902816, 8.020784385030197)	(-5.1423591225615644, -5.4271017903464482)	(4.0994873265012508, -7.9157038986396238)	(1.5998247807631074, 3.9967709425097109)	1.0	z	0.767074
7	M	B	M	A	A	B	N	N	M	8	2	shapes	M	6	True	133	(0.14147042130098875, 6.5847804881804546)	(-3.3854442337141926, -7.4551291018009573)	(3.2396217961164524, -6.1749418027387737)	(7.098537945054872, -3.7586127349474454)	1.0	z	1.3202
8	N	A	N	M	M	B	A	B	A	8	6	shapes	A	6	True	133	(-1.4064021661758019, 4.9451675670986575)	(-7.3351908610306324, -5.165414999613712)	(-8.6420697833885427, 0.012435430957754789)	(7.7379312428229241, -3.8088981376390301)	1.0	slash	0.963646
9	N	B	A	B	M	M	A	N	N	8	4	shapes	M	6	False	133	(-4.3005025718343921, -0.94326074908871149)	(1.029266665686702, 8.6294486870478231)	(8.4449973037211024, 4.6893326018805848)	(8.1231591299874211, -2.885119307388103)	1.0	z	0.68545
10	N	A	B	M					A	4	1	shapes	A	6	True	133	(0.19482463503283043, 0.25958154095724773)	(-5.2316249723859363, 7.0142516479258656)	(-8.0798908072440501, -3.4341592176950479)	(6.1297886019465366, -0.95516875779185195)	1.0	z	0.629483
11	M	A	N	N	B	B	A	M	B	8	3	shapes	N	6	False	133	(-8.114799225690799, 2.2212532187039713)	(2.3940289901207237, 0.52661113815824478)	(3.6996585142067335, -5.021445617517557)	(-1.205851658916167, -2.2345708217337394)	1.0	slash	0.971141
12	N	B	N	B					M	4	1	shapes	B	6	False	133	(-3.4051509381340006, -7.9066244029619908)	(-1.5081466980733875, 0.023989763474114412)	(3.1592014557031707, 2.2875095917075488)	(2.9124122423587213, -2.6265452291892428)	1.0	slash	0.626809
13	M	A	B	A					N	4	1	shapes	A	6	False	133	(-2.9551990680659497, 6.9354193297842315)	(-2.2667972328923467, -1.184299013228439)	(2.1126972493812168, 7.0456701392761687)	(7.2358676260021255, -4.453205200419645)	1.0	slash	0.645975
14	M	A	M	A	B	N	N	B	A	8	1	shapes	A	6	True	133	(0.013968542614406942, 5.0143119135111807)	(-6.9307132052571019, -6.3902515019707682)	(-2.4935114170015122, -3.4986758782176004)	(-7.3732493050306598, 4.9123486340953963)	1.0	z	0.616739
15	M	B	N	N	M	B	A	A	B	8	4	shapes	M	6	False	133	(-7.7703399081740026, -5.15233147167545)	(-1.1094727411690419, 0.93054075269783887)	(-5.3657127379915206, -1.4053079125870278)	(-2.2190725396135313, 4.956548785555297)	1.0	slash	0.639363
16	M	A	N	M					N	4	1	shapes	A	6	False	133	(5.8168522530193112, 1.2591575759592377)	(7.4422376594033679, -3.56779944374113)	(-3.0273045687121458, -1.7724848225209824)	(-7.6879459885671864, 2.6195786412820308)	1.0	slash	0.511469
17	M	A	M	A					M	4	0	shapes	M	6	True	133	(-0.36983854014540896, -6.7950190944507121)	(-1.35329661041159, 7.1698742666880673)	(5.0397314384440985, -4.4169663999478015)	(3.5746085434299246, 2.7358062002413757)	1.0	z	0.77731
18	M	A	A	N	N	M	B	B	A	8	4	shapes	N	6	False	133	(-7.7085297087740257, 1.373725556789168)	(0.1138988432550665, -0.85717380817530664)	(-5.7119153297575975, -7.6641426655596856)	(6.1393920892748373, 5.9120870689306635)	1.0	slash	0.672282
19	M	B	M	B					N	4	1	shapes	B	6	False	133	(7.6286834793855576, -7.8815427303402315)	(6.3231582464901184, 4.4530507448011978)	(-7.344388981972946, 1.3990904772942834)	(-0.79833612224149597, -5.1450005789085598)	1.0	slash	0.57392
20	N	A	N	A					M	4	2	shapes	N	6	False	133	(-3.9333084927557902, 4.8164905459263814)	(8.5213642612875766, -5.5463124931932066)	(4.4488363593468208, 5.2798344069885452)	(-8.5822373175240738, -3.0296421530825706)	1.0	slash	0.639854
21	M	A	N	A					M	4	0	shapes	M	6	True	133	(8.2377228764677568, 6.103828061425931)	(-5.4507886783650612, -7.2518052472269625)	(-3.6891432112784663, 2.0995285646515782)	(1.6615883901977266, -3.1945409245116156)	1.0	z	0.609723
22	N	A	N	A	B	M	M	B	N	8	2	shapes	N	6	True	133	(7.6895497790615757, 4.2792994841545884)	(-1.5058540991335025, 7.0302978045175166)	(6.9647153007260059, -3.4909201738697764)	(-5.6857756936921184, -7.5742653278341709)	1.0	slash	0.817027
23	N	B	M	B					N	4	0	shapes	N	6	True	133	(0.23087830172508284, 3.8882011598893609)	(-8.132017163252371, -7.9661371918227752)	(-4.1134979972962222, 0.77011621576432709)	(7.9088523980330763, -3.7617410451735562)	1.0	z	0.958949
24	M	B	B	N	M	N	A	A	M	8	0	shapes	M	6	True	133	(4.4106443601171073, -6.9252923253894716)	(-7.3237293145697491, 3.7694111860166348)	(6.9528746859223247, -3.5706958314765735)	(0.24660450473043305, 1.2200125465495297)	1.0	slash	0.682824
25	N	A	A	M	M	B	N	B	A	8	5	shapes	B	6	False	133	(-1.6126847059703495, -2.0155160143976367)	(6.2481098938680457, -8.5804902219205896)	(7.1749135646936555, -4.1180873725281222)	(-1.4695840612672919, 5.1999808823403662)	1.0	z	0.644338
26	N	B	A	B					M	4	3	shapes	B	6	False	133	(-6.0475317454140525, 7.1895793502792547)	(5.3188902246535399, 1.3698208951624853)	(-7.8107520719895591, -5.1670634264904667)	(1.0439811321972563, -6.5674406847251898)	1.0	slash	0.670227
27	M	A	N	N	M	B	A	B	N	8	4	shapes	M	6	False	133	(-1.9637935243299509, 8.7160479424318424)	(-0.3070140662847578, 2.376416870228784)	(2.2957009034729339, -6.052977101252047)	(5.0471573477231448, -2.4622230959852534)	1.0	z	0.581707
28	M	B	A	M					N	4	2	shapes	A	6	False	133	(4.3642140449922877, -6.8765429816171952)	(-3.5281987829614119, -5.4869524794343487)	(-8.0422510617820002, 6.549096760642291)	(3.6524698726908955, 4.6247422351476288)	1.0	slash	0.619335
29	N	B	N	A					N	4	0	shapes	N	6	True	133	(-2.3930163942686109, -5.9229077380878881)	(-3.1272337939999932, 4.852527502080564)	(4.2486852375475372, -2.8754922096197637)	(2.7274977295405556, 8.4529144653097958)	1.0	z	0.897119
30	M	B	M	B	N	N	A	A	N	8	2	shapes	M	6	False	133	(-6.7238959009429653, 8.2455979072381353)	(-6.8033426389244305, -1.5834105496933422)	(-8.1123556800207339, -6.1521635813755191)	(6.0462651804277723, -1.6612903648380364)	1.0	z	0.896115
31	N	B	A	M					M	4	3	shapes	M	6	True	133	(8.1947626972251975, 2.4972479844860427)	(-2.7998951534875047, 2.2780260972109847)	(1.5618279478838293, -3.7338992934328035)	(-7.6550230290326162, -8.6438043338763961)	1.0	z	0.551798
32	N	B	B	A	N	A	M	M	B	8	1	shapes	B	6	True	133	(6.1226234067073015, 1.0376642200713437)	(-3.6625428941486504, -1.7785610349427152)	(-5.1885578644565999, -6.4230257156770367)	(5.9866227496998388, -3.2092516346034223)	1.0	z	0.715502
1	N	A	B	B	M	A	N	M	B	8	4	shapes	M	7	False	133	(0.04937284925502361, -4.8263399085483032)	(-8.3441644405274449, 2.6821230458334799)	(7.2534343536028025, 8.6506180275035831)	(1.0562850672000117, 8.2477709715941572)	1.0	slash	0.564852
2	N	B	B	M					A	4	1	shapes	B	7	False	133	(-2.8005228012674266, 5.4535463978649243)	(8.3892420677063484, -3.5038927263114212)	(1.9334230645766386, 6.4455019960744941)	(-1.2660726086917657, -0.64117741916234827)	1.0	z	0.672696
3	N	B	A	A	B	N	M	M	N	8	6	shapes	M	7	False	133	(-6.917163400907187, -4.7612211978065631)	(-2.9610131697003821, -1.2123922111766028)	(4.536521067653613, -2.7606090671085868)	(4.360513234582978, -6.8770676857773498)	1.0	z	0.644374
4	M	B	A	B	M	A	N	N	A	8	6	shapes	N	7	False	133	(3.854607922319861, -4.0215521934305709)	(-6.4430577557096118, 7.9098334641241514)	(3.790159153266158, 5.2724699933390973)	(-5.3707657243228013, -6.8352469704977477)	1.0	slash	1.05291
5	M	A	N	M					A	4	0	shapes	M	7	False	133	(-2.0547772382248306, 2.8456503773528041)	(4.9610506456814782, -7.9712198671673731)	(-7.0113578320498098, -0.62513920315082849)	(7.0736443015995327, 7.1890643774525831)	1.0	slash	0.649615
6	M	B	B	A	A	N	M	N	A	8	4	shapes	A	7	True	133	(5.5573205180462022, 4.5257348836956233)	(1.2235253704238005, 8.2042624633257688)	(-8.3114551083874186, -1.7878950737824688)	(-5.0700985398299645, -4.5575454016608195)	1.0	z	0.661209
7	M	A	B	N	M	A	N	B	A	8	5	shapes	A	7	True	133	(-2.7237781649587802, 4.7515652805882809)	(-7.3860844664820196, 2.8230535989222911)	(1.9851428798185164, 4.3125984091140328)	(7.5200281605299004, -0.8878452947201767)	1.0	z	0.571129
8	M	B	M	N	A	A	N	B	B	8	3	shapes	N	7	False	133	(-3.8565299627859995, -3.7182585801233179)	(-8.1754435878625316, 5.8939214382323311)	(1.3587134200633191, -3.0091771745771805)	(-0.73941363645633196, 3.3513412405162502)	1.0	slash	0.930734
9	N	B	M	M					M	4	3	shapes	M	7	True	133	(7.8182465047045362, -0.069122376534224372)	(-4.6557463025091881, 0.61723938787523025)	(2.8328770466237589, 0.65940023984043705)	(-2.0759768899795299, -8.6357723333216061)	1.0	slash	1.23874
10	M	A	A	B	N	M	N	B	N	8	4	shapes	N	7	True	133	(0.16101159603967474, -0.2269105784687202)	(-3.7413890279280393, -4.5606472278972303)	(-1.1657414339600898, 6.3464528269437022)	(4.5723720549232532, 3.8322670413816606)	1.0	z	0.80804
11	M	A	N	M					N	4	1	shapes	A	7	False	133	(-7.3482723176385889, 5.285340188415633)	(6.1397222433190688, 4.7510324950756964)	(4.2220557813213446, -6.9932102389159656)	(-0.17767507425821627, -2.8679733162730479)	1.0	slash	0.632195
12	M	A	B	A	N	M	B	N	A	8	3	shapes	A	7	True	133	(3.0707410163047353, 4.3375907008645793)	(1.1456598993575575, -8.5177334049089204)	(-3.6446270735708133, -7.082162578480748)	(-7.0990265269216746, 2.9930813845081374)	1.0	z	0.699444
13	M	A	N	N					A	4	0	shapes	M	7	False	133	(4.363410131137659, -2.162750006019774)	(0.83871563949894679, 6.6514959648627361)	(-0.32823649764739748, -4.4065780714710439)	(-5.530302864477493, 0.87566763422902127)	1.0	slash	0.593553
14	N	B	M	B	M	A	A	N	N	8	7	shapes	N	7	True	133	(5.7370467310485402, 3.1655066522190083)	(-1.148701898968838, 5.2730277557003049)	(3.5877644308247003, -0.99873019485194714)	(-1.5607467983247796, -4.0630744119523214)	1.0	z	0.678564
15	M	A	N	M					N	4	2	shapes	N	7	True	133	(-6.8681086692292226, 2.4357502209210757)	(7.9600391310478678, -0.90220531756833733)	(2.653670890823296, 5.2443130053686957)	(-0.66173363694156428, -7.2400226077638763)	1.0	z	0.734831
16	M	A	N	A					M	4	0	shapes	M	7	True	133	(-3.608497258036869, -2.54199178010344)	(1.6886661528814209, -2.6720467516602024)	(-1.5688824603355913, 8.0524467974014264)	(3.6572915258776764, 1.5865999705306688)	1.0	z	0.548534
17	N	B	B	M					B	4	0	shapes	N	7	False	133	(-5.1323484003537807, 3.9382572415282482)	(4.4817276820094705, 1.6811944491059787)	(2.5207444635674428, -8.6993781350652242)	(-1.4141610509270137, -1.5274554827479898)	1.0	slash	0.76568
18	N	B	M	M	N	B	A	A	N	8	1	shapes	B	7	False	133	(0.57454725335605694, 6.7606837251023872)	(8.3235839160059157, -5.5499263943521537)	(-5.2248766378588059, 7.8027013096820248)	(-1.666287024889102, -3.0924095290464129)	1.0	slash	0.627386
19	M	B	A	B	N	M	N	A	A	8	7	shapes	A	7	True	133	(2.2334881676758034, -7.7469466506868994)	(-1.3662621939039639, 7.4918652631381732)	(7.8333179994285409, -6.9711152734849442)	(7.1596292549194676, 3.0926131081082993)	1.0	z	0.578639
20	N	A	M	N					N	4	2	shapes	M	7	False	133	(5.7968361663588386, -8.7102067962391665)	(-2.4801332491364949, 2.0664113604232153)	(3.2660639523429627, 6.886916353814998)	(-7.4105292015332456, -3.4346191441639542)	1.0	slash	0.621738
21	N	B	M	M	N	A	B	A	B	8	1	shapes	B	7	True	133	(-1.5195219064721082, -7.9675160079121152)	(5.8170227036255806, -1.449972783722143)	(-6.9817720833598376, 7.7562434203893176)	(-7.2670424170090424, -2.130315610859455)	1.0	z	1.07717
22	M	B	N	M					M	4	1	shapes	B	7	False	133	(5.0777708442502689, 5.7003671060157828)	(-1.2368387124797442, -5.8899608556128333)	(-4.1837596222407036, 1.4269668999804175)	(6.0618197716010194, -6.5730280150685534)	1.0	slash	0.635706
23	N	B	N	M					N	4	0	shapes	N	7	True	133	(-0.5932881219635906, 7.4765497304764956)	(8.2878811511102093, 7.0207567381644242)	(1.4656962325304903, -5.0783457396535301)	(-8.1868963189079516, -5.9540499605729753)	1.0	z	0.917791
24	N	B	B	A	A	N	M	M	B	8	2	shapes	B	7	True	133	(4.7897219749077564, -6.9197395067023422)	(-6.0329272154972324, -2.8878916311046012)	(-0.85350583129004143, -0.7611000431330206)	(-4.1650934223897877, 6.9409870907909177)	1.0	z	1.4365
25	M	A	A	M					M	4	3	shapes	M	7	True	133	(-1.83130933859508, 6.6700593233063046)	(-1.2171406782457872, -4.1202954341408233)	(4.5129337971230505, 4.7204299668362992)	(8.2839631233841402, -6.5941148603035513)	1.0	z	0.756479
26	M	B	N	A					M	4	0	shapes	M	7	True	133	(-0.10104794425140007, 1.9415319768682835)	(-7.8108815644249541, -4.3921702854066718)	(4.5286889883986792, -0.51125929502219591)	(4.7605576050380645, 8.4563912901858664)	1.0	z	1.06421
27	M	B	A	B					M	4	1	shapes	B	7	False	133	(-2.9599897967890803, 4.5168501680995714)	(6.0449205401245685, 1.0195539347857459)	(7.410960642665767, -3.6614282658558919)	(-5.6337130217650442, -6.8337214156165231)	1.0	slash	0.646531
28	M	B	A	A	M	B	N	N	N	8	1	shapes	B	7	False	133	(0.24566951898852452, -5.8662044021316309)	(0.9029680234668831, 6.6946404848166452)	(-4.375352711130466, -5.930014118990206)	(-2.9647674789626803, 1.9365764767400542)	1.0	slash	0.791653
29	N	B	A	M	M	N	B	A	B	8	2	shapes	A	7	False	133	(-5.0983745079871792, 3.9619649361375995)	(4.3834537916291119, -6.9616499405798606)	(7.8083058994321632, 2.1267880088091289)	(1.0704831526233498, 7.8323497704388814)	1.0	z	0.812305
30	M	A	B	B					M	4	0	shapes	M	7	True	133	(0.89992604695721745, -6.8382803071750091)	(-7.2751806349688142, 4.5164174301031217)	(-5.8689842665775807, -8.650018587890715)	(1.5484685858759804, 5.7137078045115679)	1.0	z	0.867747
31	M	B	B	M					M	4	0	shapes	M	7	True	133	(2.090646956646788, 5.6169181093056473)	(8.5184066131432026, -8.5611258928944931)	(-7.0517184742603565, -7.4793312277079558)	(-6.8014113598493262, 6.3373983392585771)	1.0	z	0.879295
32	N	B	N	A	M	B	A	M	N	8	1	shapes	B	7	False	133	(8.0989927238662709, -1.3009862803792069)	(-1.1080095122886373, 4.9807291401443425)	(-6.9241506174903549, -7.4281863796535976)	(0.65060017290783989, -7.8325123616525412)	1.0	slash	0.530048
1	N	A	A	N	M	M	B	B	A	8	6	shapes	B	8	False	133	(-8.7143256437148651, -3.6384152244473009)	(2.775608162408167, -8.2376661530796476)	(-3.2589841402884163, -3.6182628079438306)	(6.1243348892225704, 7.2179407073974229)	1.0	z	0.738737
2	M	A	M	N	N	B	B	A	B	8	6	shapes	B	8	True	133	(-0.72292563581169667, -2.8795973797932071)	(1.3726559622113115, 0.80161371329309894)	(0.13032145677033391, 4.6981938165866204)	(-4.6076353372450924, -0.89791431535525756)	1.0	z	0.633552
3	M	B	A	B					N	4	3	shapes	B	8	False	133	(4.751891953702712, 5.778957862203125)	(-0.36399744920200838, 3.3936491590391444)	(4.9082651501997034, -1.7314377239155254)	(-2.5819396226800269, -1.3291363522086126)	1.0	slash	0.708748
4	N	A	N	B					N	4	0	shapes	N	8	True	133	(6.7552612029270076, -5.2332514073367111)	(3.6097277320584702, 2.2040225751708551)	(-4.1278558915574202, 6.7018818988706954)	(-4.3605030635745106, -6.7354566572440913)	1.0	z	0.987525
5	N	B	B	A	M	N	A	M	M	8	6	shapes	A	8	False	133	(-7.9179529035362686, -0.50749212174833502)	(2.9114789122582696, -0.62092025925231908)	(-0.11871904161359126, 4.0829953037174853)	(-8.2083165494697123, -7.0862624441078657)	1.0	slash	0.567794
6	N	B	B	N	M	M	A	A	M	8	5	shapes	M	8	True	133	(4.7609981906920851, 1.6348408878789336)	(6.1468723407504591, -3.0075768630014403)	(-2.6033025478371989, -6.4680648185456668)	(2.0643205299729157, -8.4348426951462763)	1.0	z	0.728244
7	M	B	M	N					N	4	3	shapes	N	8	True	133	(-4.3230912935468879, 3.2577293330982808)	(3.3922408679263416, -4.2245384924999847)	(-8.0795525940217541, -6.1383679082666838)	(7.9218362723620679, 1.7325407255287981)	1.0	z	0.68839
8	M	A	M	B	A	N	N	B	B	8	3	shapes	B	8	True	133	(3.4486703810059574, -0.92614658727621801)	(-8.058461833432629, -6.9992470544903895)	(-3.1074955711393857, -4.5609243323299191)	(-6.2237582824346127, 0.47740086230823842)	1.0	z	0.521545
9	M	A	N	B					B	4	2	shapes	N	8	False	133	(-3.9186520199353989, 7.9552976849686488)	(8.6667562253388581, -8.1854139902722522)	(-3.1463838767140269, -1.6785033528155706)	(1.7976591059296805, 3.4664742382986802)	1.0	slash	0.657786
10	M	A	A	M					M	4	0	shapes	M	8	True	133	(2.503890467078449, -5.7263310754155619)	(5.1425567551135725, 5.8578419289317125)	(-6.3063183554598563, 6.5438131832867033)	(-8.388586484378969, -1.6517867187121045)	1.0	z	0.680102
11	N	A	B	A					A	4	0	shapes	N	8	False	133	(7.0720353040282049, 8.2524316430088653)	(-4.7391134125434409, 4.721929004392841)	(-3.2651305466606688, -3.8445774048991241)	(1.4993533540024906, -4.1530214864016024)	1.0	slash	0.669013
12	N	B	M	M	A	B	A	N	M	8	5	shapes	B	8	False	133	(-5.5587674529419129, 4.550663466751045)	(3.312812727660738, -6.1390103813241366)	(2.5369382324076035, 2.4246660068141317)	(7.2367130487269282, -2.2565072633466885)	1.0	slash	0.906314
13	M	A	A	M	B	B	N	N	A	8	1	shapes	A	8	True	133	(-5.3228206945318215, 4.8804069459765334)	(4.5773276152726243, 5.947350192677499)	(1.7533994738988365, -6.0760627243346166)	(-8.5826570026961715, -8.4123899263924624)	1.0	z	0.998532
14	M	B	N	N	A	M	A	B	B	8	2	shapes	N	8	False	133	(2.5822738186636478, -2.0408878561997845)	(3.7836005223393947, -6.7176088172445869)	(0.67923456084239398, 3.0158801352067037)	(4.7414178062682311, 2.9750850330842322)	1.0	slash	0.593462
15	M	B	N	M					M	4	3	shapes	M	8	True	133	(-0.065122041873271641, -5.2038218998916985)	(0.66950062083770234, -0.63053975407319918)	(-2.6964644673896911, 7.2191548104791732)	(3.8642158240816311, 8.2306063617304908)	1.0	z	0.803777
16	M	B	M	A	B	A	N	N	B	8	2	shapes	M	8	False	133	(4.5882779692794973, 4.7146720903185226)	(-2.2783937445008426, 7.5814567983256929)	(6.8089497133204819, 0.33758358140659084)	(-6.3815880981995905, -4.3470905183175734)	1.0	slash	0.661475
17	N	B	A	A					M	4	0	shapes	N	8	False	133	(-0.061132106405192843, -8.381478080732613)	(3.3472828134244583, -2.4538797026438406)	(0.63172056690519085, 4.4867880640715452)	(-8.1453360939586243, 7.9940180083104657)	1.0	slash	0.617026
18	M	B	M	B					N	4	1	shapes	B	8	False	133	(-7.3978218923061387, -6.6759033558875807)	(4.5073943066571776, 4.6654588333348332)	(-6.9740982187661835, 7.8226653650243456)	(3.2238814875759321, -2.3870630021201826)	1.0	slash	0.550681
19	M	B	N	A					A	4	3	shapes	A	8	True	133	(-4.0036856456922205, -4.1934366800790563)	(6.1658037180904053, -2.5988027661397108)	(-7.3426390405746247, 6.5435535093002493)	(3.7204134199008827, 4.5628958426364594)	1.0	z	0.586003
20	N	B	M	M					A	4	3	shapes	M	8	False	133	(4.7704239378719056, -7.0778451835658931)	(-0.8733536838077125, -3.3525992785889773)	(0.0059499693166760181, 1.4659914474053917)	(-6.1107463346369517, 2.0889683537714809)	1.0	slash	0.780771
21	N	B	N	M	B	A	M	A	A	8	2	shapes	N	8	False	133	(-5.5655155123851525, 1.2478746326720476)	(2.574059732264903, 7.5492951689397927)	(7.7736450600759071, 6.8946849254297931)	(-8.4270359786360629, -4.4906250034912993)	1.0	slash	0.723716
22	N	B	M	A					B	4	1	shapes	B	8	True	133	(7.8171377130054154, -4.9137422389304923)	(0.39777749684548702, 5.9745569713587585)	(-7.1884775950709905, -7.130826090729502)	(-6.2711392228924776, 8.2866669433248106)	1.0	z	0.650847
23	M	A	A	N	B	B	N	M	B	8	4	shapes	B	8	True	133	(3.8644017870343106, -7.5391078485500334)	(-4.0881824150929678, -7.6318994641639968)	(3.7589956908259392, 6.2710297977729699)	(-6.9795498049232112, -2.8591360897480431)	1.0	z	0.782798
24	M	A	N	B	N	B	A	M	M	8	7	shapes	M	8	True	133	(-5.2422509271581106, 2.500875426207104)	(6.6502742004121309, 8.5797910867773517)	(-7.9786122482515767, 8.5637311233430253)	(-1.5068251569630702, -5.456461652774415)	1.0	z	0.804074
25	M	A	A	N					N	4	3	shapes	N	8	True	133	(1.3020220219455663, 1.1611138335183462)	(-6.0831506103792199, -4.9694443450308574)	(4.5759847703516936, -8.2424935397524912)	(-6.5262291489830684, 6.2035246744178405)	1.0	z	0.854304
26	N	A	M	B	A	N	M	B	A	8	2	shapes	M	8	False	133	(6.4813518370331273, 1.168315884540478)	(8.2894599465510339, 8.6494662608180803)	(4.5944632645357952, -7.2433734984688725)	(8.6181886908027927, -8.0768547962061383)	1.0	slash	0.725194
27	M	A	N	A					B	4	2	shapes	N	8	False	133	(1.6228484720458063, 1.7512447575814747)	(4.9823546109325179, -6.4584522190925657)	(-6.901569827829471, -7.5327169618069707)	(-3.9866720149594261, 1.2411681886785768)	1.0	z	0.757635
28	N	A	B	A	M	M	B	N	A	8	2	shapes	B	8	False	133	(-2.2190041414750503, 0.41684762233978567)	(4.0111639901878995, 6.1134269333262985)	(8.4909219099186863, -7.0122152307621937)	(-6.9744517746115537, 1.7081043998127718)	1.0	z	0.720787
29	M	A	A	B	B	M	N	N	A	8	2	shapes	A	8	True	133	(3.5994822785941984, -8.6392215408548392)	(-6.5952641746754912, 6.6705058705529403)	(0.76292940779338458, 4.1098546944074705)	(6.4188559133751326, 1.6102688561299381)	1.0	z	0.755382
30	M	A	N	B					M	4	1	shapes	A	8	False	133	(1.6748516400198081, -2.2395874913764322)	(6.4716789709602338, 2.9461179577055745)	(-5.3941560866613907, -5.2041392140018408)	(-4.2578278693949576, 6.1777066059486856)	1.0	slash	0.556539
31	M	A	B	M	N	A	B	N	A	8	5	shapes	A	8	True	133	(7.5254250949357981, 2.8181711849508488)	(-1.1756022425011006, -4.0949496205405982)	(-3.4206506267574106, 1.0043292499131891)	(0.41699619264019105, 5.3439176429749828)	1.0	z	0.912261
32	M	A	M	A					A	4	3	shapes	A	8	True	133	(4.0107369374849, -3.7977102140280365)	(-3.9063267135383279, -6.6264276266564934)	(3.8684330889557135, 6.025119403235589)	(-1.5593528380046546, 1.8476784426435184)	1.0	z	0.673904
