TrialNumber	stim0	stim1	stim2	stim3	stim4	stim5	stim6	stim7	stim.probe	ttl.stims	corr.num	trial.type	stim.corr	block	match	Subject	stim.pos0	stim.pos1	stim.pos2	stim.pos3	ran	resp	RT
1	M	B	B	N	A	N	A	M	M	8	2	shapes	B	Practice	False	134	(7.9694132084883904, -1.0878568032663569)	(-8.0281086210426764, -3.9373783283867727)	(-6.372050998960006, 1.0217484153173295)	(-6.4612382925412017, 8.6016254145865361)	1.0	slash	3.45412
2	N	A	B	M					A	4	1	shapes	A	Practice	True	134	(-3.6885438834423754, 4.3766765059421076)	(-2.1533011257476895, -3.8153288307021151)	(2.8756657008476623, 0.30659110734202777)	(8.3771718901129191, -4.8474433441381244)	1.0	z	5.62881
3	M	A	M	B	A	N	B	N	B	8	6	shapes	B	Practice	True	134	(0.85951567930447759, -3.6710251242527798)	(-7.5408603101702782, -4.6718742947266652)	(-5.9088975144431721, 5.4118614208821789)	(8.5932063769055063, 7.1494933935357583)	1.0	z	7.0509
4	M	A	M	A					B	4	3	shapes	A	Practice	False	134	(-2.6803652284682471, 6.1057748506602767)	(-2.259114464998623, -4.0289216785041679)	(5.5979352347916134, -5.3874377168522543)	(7.8257976506677451, 1.9615535036007099)	1.0	z	5.93558
5	N	A	B	M	M	B	A	N	B	8	4	shapes	M	Practice	False	134	(-2.3472369633567105, -0.88704308180578817)	(4.0242061469135901, 3.6491927256529042)	(-2.3646739832659582, -5.9879644195061301)	(4.0409537849675079, -0.66042304556941467)	1.0	slash	4.28672
6	N	B	M	B					A	4	2	shapes	M	Practice	False	134	(-7.7688615014927986, 0.80621089998837014)	(6.6977311735901441, -3.92715014816861)	(1.0892335783261906, 3.6326770476046555)	(-4.7347730023589731, -8.1254912164123816)	1.0	slash	1.52809
7	N	A	M	N					A	4	1	shapes	A	Practice	True	134	(-3.7621845688826596, -7.5507597262618882)	(-7.7387824291261458, 2.4929395341444422)	(0.91099399178720653, -7.3256051029052882)	(7.5157625210063941, 1.8994871588027653)	1.0	z	6.04008
8	N	B	N	M	A	A	B	M	B	8	6	shapes	B	Practice	True	134	(6.2574345392636506, 0.60914290914179325)	(-2.1625027238672807, -4.2827435737995794)	(-8.4909223896486186, 0.73489703654231775)	(2.6483218729452052, -1.8834104705886068)	1.0	z	6.20346
1	M	B	M	B					N	4	1	shapes	B	0	False	134	(1.4230343920924824, 4.0231220193555259)	(7.5687702314132252, -3.8709148497366268)	(-2.3384493136937348, 2.5360367377157065)	(-6.5785772737873174, -1.8509164514775103)	1.0	slash	2.04588
2	N	A	N	M					A	4	0	shapes	N	0	False	134	(4.708432361298625, 7.1245782701019049)	(-8.2717075145758958, 7.2628796281663703)	(-2.0321474106162212, -7.2378228590970606)	(7.6479433632492722, -7.3118115835038324)	1.0	slash	0.742993
3	N	A	A	N					A	4	2	shapes	A	0	True	134	(3.8242351957407834, -1.2989960750771532)	(-4.465381727596875, -1.2980987923921861)	(-1.9279909726027924, 7.2411680918969594)	(2.7942626289242227, 4.0741500871597136)	1.0	z	0.89078
4	M	A	N	M					B	4	1	shapes	A	0	False	134	(-1.6042270309731546, 4.7729774540869698)	(8.3964500314542896, -5.0710982606829145)	(4.7708647584185382, 7.3544381867563686)	(-7.465049230288809, -5.2040544702678559)	1.0	slash	2.11227
5	M	A	B	B					B	4	0	shapes	M	0	False	134	(-3.482717875886463, 4.718677686229988)	(7.76586222735164, -4.1086314658924152)	(-6.5354598420188026, -6.2322960595133985)	(3.5990827322963916, 4.6321936491852931)	1.0	slash	1.12445
6	M	B	B	M	N	N	A	A	N	8	4	shapes	N	0	True	134	(-6.5901480023553969, -5.4471083763295436)	(-3.4506462023400779, 7.1761567654618332)	(5.2934108764426888, -1.2183860682826566)	(-0.8004760326693896, -6.0747386642871728)	1.0	z	1.59212
7	N	B	N	B	A	M	M	A	M	8	6	shapes	M	0	True	134	(-6.2443994019231273, 0.8948837908224565)	(-1.6217230810324414, 0.74691311987244902)	(-0.42877428717707744, -6.5864280019197885)	(3.8148727217776894, -5.5693632044794761)	1.0	z	2.98152
8	N	A	A	B	B	M	M	N	A	8	1	shapes	A	0	True	134	(5.9065602335269141, 5.1126194679406716)	(-1.4427531095779855, 8.1568152405178047)	(-0.33966694908967909, 3.0829716463670067)	(3.1712103309834472, -4.8445395484958498)	1.0	z	1.48459
9	M	B	B	N	A	A	N	M	N	8	4	shapes	A	0	False	134	(7.7369859815424, -0.87334592328352834)	(-2.1516899532744898, 3.7058536171268681)	(6.5181486556664137, 7.4705164362600662)	(-2.1762291402162752, -1.5073436981664745)	1.0	slash	1.27221
10	M	B	M	A					N	4	0	shapes	M	0	False	134	(5.9397058079888509, -7.6737975957882565)	(0.94619374544882184, 6.1743091756029091)	(-3.6420239935629333, -7.0197302120339362)	(-3.6639328850289052, 1.2379773567994423)	1.0	z	2.44184
11	M	B	M	A	B	N	A	N	B	8	1	shapes	B	0	True	134	(-7.8237720584723789, 2.1129841893398247)	(7.0907161752049941, 0.41263105133296918)	(1.778257606316453, -0.096092160932549575)	(4.8550166775025385, -5.5388591758326378)	1.0	z	3.33179
12	M	A	M	N	B	N	B	A	M	8	0	shapes	M	0	True	134	(0.33294016813393768, 5.993413941399254)	(-8.546975323857346, -1.5830549857189098)	(7.7856587489044387, -2.3524444188320981)	(-0.093463588207441717, -6.8278384658653435)	1.0	slash	1.27936
13	N	B	M	A	A	N	M	B	N	8	2	shapes	M	0	False	134	(0.095437510169510631, -3.9953774868081906)	(0.90745931240012823, 1.1527335458564885)	(-6.9193339237249774, -7.2068058534779613)	(-1.4136198831414823, 6.5369246665011875)	1.0	slash	1.38704
14	N	A	M	N					M	4	2	shapes	M	0	True	134	(-1.2780423636039906, 5.6162985028385162)	(5.8802867585578174, -7.2045641868079304)	(-4.5122368510803357, -7.5079962084622291)	(5.4249291682039562, 3.8852337623944848)	1.0	z	0.918339
15	N	B	N	M	A	M	A	B	B	8	0	shapes	N	0	False	134	(7.9368798210225364, 1.1392932351185667)	(1.3326911116062092, -4.1905183139804842)	(-8.0182312359328378, 6.6175064345461774)	(7.7509880360977732, -5.8036971903078278)	1.0	slash	0.617556
16	N	A	B	B	M	M	A	N	N	8	7	shapes	N	0	True	134	(1.0673913542138607, 2.376719791349899)	(3.7397061923173265, 8.4782186891583038)	(5.4607470427919864, -3.6514848093858197)	(-8.4669783274205912, 7.9908844163468693)	1.0	z	1.37748
17	N	B	B	A	M	N	M	A	B	8	2	shapes	B	0	True	134	(8.1149588097893108, 2.162492749933504)	(-7.0146698953511564, 4.9757829511891938)	(-7.2542292824689802, -3.0686050747525977)	(4.387928994583902, 7.1663548653516198)	1.0	slash	1.86153
18	M	A	M	A	N	N	B	B	M	8	7	shapes	B	0	False	134	(-5.7244266491603444, -8.5540099685488915)	(-2.900752413143282, 5.8538547429709684)	(-4.5088956012594146, 0.24214777678171373)	(3.8939132980472131, 3.784195098933882)	1.0	slash	1.09028
19	M	A	N	A					M	4	0	shapes	M	0	True	134	(6.5663725169496843, 5.8147114808457907)	(-5.7124892984311932, -8.6298954019069196)	(-0.35995517802495591, 4.1025737985410107)	(3.3317982693577903, -0.098913549119423294)	1.0	z	0.770589
20	N	B	A	A					A	4	3	shapes	A	0	True	134	(5.6281598686694316, 8.2366205562799557)	(-1.0237875727952668, -8.6372722548197061)	(-1.8377746930499539, 0.89547412159733675)	(7.5812838597309593, -1.7985579799267315)	1.0	z	0.978404
21	M	A	A	B					M	4	2	shapes	A	0	False	134	(0.70910420650846895, 5.3652737525103724)	(2.1270249053579438, -0.11161081781732562)	(-4.888400964618846, -1.6333376560240191)	(-6.8968997953690501, 7.8285129793727677)	1.0	slash	0.78345
22	M	B	A	B					M	4	1	shapes	B	0	False	134	(6.6745340861939653, 6.8893721114675852)	(-5.2517557567235134, 3.4191361002328922)	(1.4777539919892106, -0.19110673957442792)	(-1.7532589961329217, -6.2582174847310963)	1.0	slash	0.947034
23	N	A	B	B	M	M	N	A	B	8	3	shapes	B	0	True	134	(2.0621886747386569, -1.6274629680325958)	(-8.6369186725585791, -7.7526985920181612)	(7.0056326625189023, -7.309316013141343)	(7.9056416134967371, 3.7311655113776627)	1.0	slash	3.12073
24	N	B	N	M					N	4	2	shapes	N	0	True	134	(-3.6970912239878988, -5.8596800014644606)	(4.8718648774934294, -4.7774639490565871)	(4.6640280328578303, 5.5358081947645577)	(-5.6861846984362963, 0.19840683495596423)	1.0	z	2.54594
25	M	A	B	N					B	4	0	shapes	M	0	False	134	(1.6746940595589077, 0.57697008477349776)	(-5.2261535276340956, 5.3530558188292012)	(8.6014251746178942, -6.1192059897754518)	(-6.3400014732960024, -6.5070257088292935)	1.0	slash	0.799492
26	M	B	N	B	N	M	A	A	N	8	6	shapes	A	0	False	134	(-0.53880173276370513, -0.23456296045567981)	(2.2804701568294643, 7.2577690600760114)	(3.0805075555809118, -2.0899348964724727)	(6.0999904036414421, 5.5094866802714542)	1.0	slash	1.52981
27	M	B	B	M	N	A	N	A	B	8	3	shapes	M	0	False	134	(6.8915434853969728, 4.6053988813501761)	(4.9035829834053359, -5.5690192794780753)	(-2.8902492579708721, 5.803666196487935)	(-7.2706721664435658, -6.0390950404953045)	1.0	z	1.22486
28	N	B	A	A	N	M	M	B	M	8	7	shapes	B	0	False	134	(3.8877589922394495, 5.0904355436634212)	(5.720254720029267, -0.4969007987989702)	(-4.7065934306480504, -0.52371194127570142)	(8.0605053666741888, 2.9317492738106186)	1.0	slash	2.47861
29	N	B	M	A	M	N	B	A	M	8	5	shapes	N	0	False	134	(-8.2934530139902911, 6.7407931523389912)	(-2.5298976841600442, -4.6894293891784038)	(4.8070987972317667, -0.023139351197110969)	(3.2608341296514709, 5.0102794693774371)	1.0	z	0.759941
30	N	B	B	M					N	4	0	shapes	N	0	True	134	(-2.1013797297612502, 3.5610715450198658)	(-8.0618296717369358, -0.52354997635797318)	(1.4173754063246609, -2.422770407805876)	(3.7303551956280199, 1.2389684367332272)	1.0	z	1.17776
31	M	A	B	M					B	4	2	shapes	B	0	True	134	(-2.8452869479723599, -0.37096659336022064)	(-4.6035111442962302, 4.1503765203621175)	(4.7923421641374606, -2.8880423683669427)	(2.4923322868624194, 8.1328370526250389)	1.0	z	0.927421
32	M	A	A	N					A	4	1	shapes	A	0	True	134	(-3.8634560528662609, -5.5439906217372261)	(8.0588968465488264, -6.2943098359069278)	(5.5764815472624498, 6.4423231238531837)	(-1.0923623193551082, 5.3993042395953221)	1.0	z	1.01697
1	M	B	N	A	N	A	B	M	B	8	4	shapes	N	1	False	134	(-3.1735909078191025, -4.2249280114595216)	(8.0154549830072561, 7.9192409279599616)	(0.67186418725371588, -0.053740573807047554)	(5.8006435373526841, 3.5976477408507552)	1.0	slash	0.750554
2	N	A	B	N					M	4	3	shapes	N	1	False	134	(-4.6333398478662131, -8.1330576228457421)	(-4.7586210570195728, 2.364451717464874)	(2.0409078404075593, 6.1931841701449333)	(0.29177254456087276, -7.2456887848100493)	1.0	z	0.874198
3	N	A	B	M	M	B	A	N	N	8	0	shapes	N	1	True	134	(-6.5459478504544624, 2.945123556695771)	(1.4091423282608737, -5.3140302982015282)	(4.49097914481227, 1.3115484724248869)	(1.547289017393453, 6.592714052120467)	1.0	z	1.75804
4	M	B	A	A					B	4	1	shapes	B	1	True	134	(-1.0719705906915067, -2.3543614865406219)	(6.1875841415895252, 4.1534764218049975)	(-1.1320440189916159, 8.4625889791709135)	(6.4866763349923335, -3.5857246275379939)	1.0	z	0.519165
5	N	B	B	M					B	4	2	shapes	B	1	True	134	(7.4297365560550439, -7.0937112812809309)	(8.089827913047241, 7.2626277495045706)	(-2.0349099557445065, 1.5305674352283258)	(-1.6221713680721681, -6.0351745879671803)	1.0	z	0.799721
6	N	A	N	M					M	4	1	shapes	A	1	False	134	(3.3851144229362706, -5.1454449472551751)	(1.587899625451243, 4.0161840494662258)	(-3.8863559996011876, 1.7884031329679928)	(-6.3326134026297733, -1.8416902868118035)	1.0	slash	0.825551
7	M	A	M	A					A	4	3	shapes	A	1	True	134	(-6.2403349431255837, -6.2348705258859241)	(1.2062605331664571, -3.1429012030765469)	(-1.5140374393901057, 4.1896054533243312)	(0.99205202054465857, 8.3314716683528118)	1.0	z	1.37054
8	M	B	M	N					B	4	3	shapes	N	1	False	134	(4.4645812758751298, -8.3321318933450819)	(-7.6643625776491247, -2.287331466483991)	(7.4281768910834423, 6.9602719452874222)	(-1.2446834295042519, 0.96407806915418348)	1.0	slash	0.656157
9	M	B	A	B	M	N	N	A	B	8	1	shapes	B	1	True	134	(-3.9835018723203497, -1.0492380537895878)	(7.462639900084227, -3.3808967275201534)	(1.0497233476580856, -6.6090828635765266)	(-4.8621759055725953, 2.9424570244790846)	1.0	z	0.874274
10	M	A	B	B	M	N	N	A	A	8	7	shapes	A	1	True	134	(-2.9298423571444081, -4.9210383061899448)	(-8.477615398174807, 7.8305613266138288)	(-1.7124307735277693, 5.7491598736701768)	(2.2148053331887905, -5.4873313821452383)	1.0	z	1.88302
11	M	B	B	M					B	4	3	shapes	M	1	False	134	(-8.2854293282956633, -4.585562788115312)	(-0.65628097140775843, 8.6935808118374531)	(5.1233933544661614, -1.4913999329936463)	(6.9132360457317255, 6.5359683548357506)	1.0	slash	0.618545
12	M	B	B	N	A	N	M	A	B	8	2	shapes	B	1	True	134	(-8.7305000286678265, 4.4468178475703599)	(2.6177641890396011, 6.437859044387622)	(-8.0939670182482182, -4.3636472422217798)	(-2.3233785425387135, -7.5701881824257988)	1.0	z	0.851051
13	M	B	A	B					N	4	2	shapes	A	1	False	134	(5.0981088731120998, -7.1725214244222801)	(2.3173002591520255, 5.5916129021788894)	(-7.2164578657353866, -8.4993149135312844)	(-3.386750796312298, 0.72154633112716304)	1.0	slash	0.840896
14	M	B	A	A	N	M	B	N	M	8	2	shapes	A	1	False	134	(1.2330521793906009, 5.0186507472514794)	(7.0616886520532081, 1.2615257204582022)	(5.3299325896858054, -7.7888039293940405)	(-6.0443984026974134, -3.2189138326612614)	1.0	slash	0.786586
15	N	B	B	M	N	A	M	A	B	8	7	shapes	A	1	False	134	(-6.2329952936450539, -1.7182560335205013)	(4.8387553571547972, 6.0969071863177309)	(3.6366938370381074, -2.4666812186061433)	(-1.8176112483869389, -2.0186577708105267)	1.0	z	0.695692
16	N	B	N	A	M	B	A	M	N	8	0	shapes	N	1	True	134	(1.8810883004666721, 2.3561269726970231)	(-7.2432037448092981, 4.4590208275262615)	(6.8327099364924848, -0.86571573152713466)	(-4.6944545180589135, -7.7842133452230931)	1.0	slash	2.24528
17	N	A	M	M	N	B	B	A	B	8	2	shapes	M	1	False	134	(3.4820366130663363, 1.1140847863944501)	(1.8944716119388474, -5.2411173579709907)	(4.0708834457946743, 5.1143352740406929)	(8.5302077599925958, -8.149384276581273)	1.0	slash	0.957434
18	M	A	A	B					A	4	2	shapes	A	1	True	134	(-5.2250066577298906, -8.3462881394646935)	(3.8973564398356455, -6.8987599667767983)	(-0.74373955693066485, 4.9357832345685804)	(4.3872273787789275, 0.36276444627823246)	1.0	z	1.11078
19	M	A	B	M	B	N	N	A	M	8	4	shapes	B	1	False	134	(1.7787910716504545, 4.2615723440309559)	(-6.4728199781198832, -3.9081584993684615)	(0.24426023123434071, -4.2646088864321623)	(7.4815139855462149, -7.730085119324805)	1.0	slash	1.41057
20	M	A	B	A	B	M	N	N	N	8	2	shapes	B	1	False	134	(8.0215391841679171, 4.7917023548691748)	(0.55078936445476501, -7.1551440745478754)	(-1.3949629710048921, 5.6727614613754884)	(0.63230436585930683, -3.0583677851836777)	1.0	slash	1.18561
21	N	B	M	B	N	A	A	M	B	8	2	shapes	M	1	False	134	(7.6811834850527489, -5.4019907405469603)	(-1.3640123579655219, -8.026269035161258)	(-8.6619475625771454, 1.5192778042999553)	(-3.4805448858355064, 2.3807571433613344)	1.0	slash	1.27921
22	N	B	A	B	M	M	A	N	A	8	2	shapes	A	1	True	134	(-7.1443237035552576, -4.8064672010987195)	(6.3791832662223289, -6.2857512941982048)	(-1.0476278673657404, -2.024165128211532)	(-4.8225413771646473, 3.720468261857043)	1.0	z	0.857033
23	N	B	N	A					N	4	2	shapes	N	1	True	134	(4.7689371213559859, -7.1870987757660156)	(-7.9449135691833641, -1.1251906335900363)	(7.072591544514939, 1.6260602735933958)	(-2.668472906440627, 1.9300320311991435)	1.0	z	0.806628
24	N	A	M	A					A	4	0	shapes	N	1	False	134	(-8.2817269425636049, -2.8847266269898739)	(2.5259806044148743, -3.2488189000133358)	(3.8862772387315196, 7.2558138304301991)	(-2.2013201751503226, 6.1239815966961295)	1.0	slash	0.814008
25	N	B	A	N					N	4	0	shapes	N	1	True	134	(5.4206317494440057, -2.2867960405895937)	(-0.30531913081817486, 4.5949134957809079)	(-7.0649756669719501, -3.0299705527403962)	(8.3195214322540849, 7.7051908009914136)	1.0	z	0.691997
26	M	A	M	N	B	A	N	B	N	8	7	shapes	B	1	False	134	(0.93047813893090847, -4.482420951935655)	(2.5805581313847092, 1.0124175227941414)	(-4.7768671076271261, 4.5810138848982191)	(7.665730427418886, -7.0664589037002994)	1.0	slash	0.853393
27	M	A	A	M					B	4	1	shapes	A	1	False	134	(-0.30258152330361554, 5.3839503048484065)	(-4.6272352585291916, -2.7654483548048914)	(5.6816288127095547, 1.4588780413617624)	(4.8961031429087498, -7.8027540398878834)	1.0	z	0.957171
28	M	B	A	N					B	4	1	shapes	B	1	True	134	(-8.2493955571539743, -0.27517509402125562)	(0.077830989945471885, 1.750653681415562)	(7.7133608207056987, -7.478298022674279)	(-7.4618742961912936, 6.3172266255002096)	1.0	z	0.724936
29	M	B	M	A					M	4	2	shapes	M	1	True	134	(3.3478436291208435, -6.7728702992880701)	(-2.7494954516105077, 4.0228294696523914)	(-8.0584899633459663, -3.5270226959513291)	(2.9610942991727605, 8.5313603807080653)	1.0	z	1.02236
30	M	A	N	A	M	B	N	B	M	8	0	shapes	M	1	True	134	(-4.3795836863996227, -1.3213632002080011)	(7.2008323426426486, 1.1213241826419633)	(8.6323430257616813, 8.4996014498993233)	(-1.4410898824524869, 8.6805229073622456)	1.0	slash	1.43072
31	M	B	B	A					A	4	2	shapes	B	1	False	134	(-7.3911326268199602, 1.9825424131451364)	(-7.7137257657850409, -2.7997767718335345)	(2.7735408543190836, 1.6495270997447236)	(5.9137731650964493, -8.6872583062992792)	1.0	slash	0.985669
32	M	A	A	B	B	M	N	N	N	8	6	shapes	N	1	True	134	(-1.3119705552207854, 5.4628981387500275)	(3.3124879368795508, 7.4666015323912589)	(5.512808667103533, 2.6566918837294384)	(-8.3349069249664076, 1.9570702675976754)	1.0	slash	1.17537
1	M	B	N	B	M	A	A	N	A	8	0	shapes	M	2	False	134	(7.6877823544856767, 2.387646840412911)	(-0.42159057755517004, -5.4809189422561815)	(1.9533771021921105, 4.8665744309874786)	(-4.0178821166908074, 0.77806275670266523)	1.0	slash	0.807614
2	M	B	M	B	N	A	N	A	B	8	1	shapes	B	2	True	134	(-6.0169625394689357, 4.9891598078524328)	(7.7547265047938971, -8.546178187755082)	(-7.2257961508908153, -5.3764642629130153)	(-4.1911307768110326, 8.7458464390871349)	1.0	z	1.23055
3	M	B	M	A					A	4	0	shapes	M	2	False	134	(-3.4756314773653401, 6.3585531243055318)	(1.1865390897361117, -7.3901111266597281)	(5.0534422926766549, 4.2525623872052183)	(-6.2066288999254873, -6.2092434146634305)	1.0	slash	0.634738
4	N	A	A	N	B	M	M	B	M	8	6	shapes	M	2	True	134	(7.5894270718619019, 0.17840890991895897)	(-2.398117483242233, 7.4859521968049556)	(-0.17385127473515816, -8.2711471122930806)	(-4.577004221788151, -4.5286117983459597)	1.0	z	0.870325
5	M	B	B	N	M	N	A	A	M	8	7	shapes	A	2	False	134	(-6.6006817847707033, 1.5252081690238466)	(-1.3404425650717391, 6.6949670232468659)	(4.4564790251820749, 6.4829767987610687)	(3.852024905299178, -1.4633745214827805)	1.0	slash	1.40213
6	N	B	M	N	A	A	B	M	A	8	2	shapes	M	2	False	134	(-3.6129306285371321, 0.75253456276900366)	(-5.0302549661392639, 8.3066301487167742)	(7.8904705620450777, 7.4092765849628215)	(5.2130761168821902, -5.5473120298558287)	1.0	slash	1.10175
7	N	A	A	M					A	4	1	shapes	A	2	True	134	(6.0674207560305504, -3.622085326105859)	(5.521641364240411, 5.5959914315239789)	(-7.9620751682792239, -5.4175544170466861)	(-3.8829669590406191, 7.9492100906421967)	1.0	z	0.866653
8	M	B	M	N	N	B	A	A	N	8	4	shapes	N	2	True	134	(-1.5072563534809218, -7.8605099833838237)	(5.42212781438921, 0.48783170206766613)	(-2.3404478083766787, 0.21696970497403356)	(-6.8650826000525047, -0.40216925399638548)	1.0	z	0.691023
9	M	B	M	A					B	4	1	shapes	B	2	True	134	(-5.3828856217915213, 1.841808430097311)	(4.7602323788867942, 4.9395864098825086)	(3.4368724210489177, -0.044694847947182481)	(-1.0018226732545674, -0.77022062238116895)	1.0	slash	1.47964
10	N	A	B	M					N	4	0	shapes	N	2	True	134	(5.5590084067446934, -0.63625390130079573)	(-5.8529337030235737, 0.89844412525516049)	(5.019771331120916, 4.3948454156951637)	(-1.2175931011474095, -2.7845156734260677)	1.0	slash	1.30571
11	N	A	M	N					M	4	1	shapes	A	2	False	134	(5.3216142742667412, 7.6531604065833179)	(-8.3926911528035326, -8.5228784159963844)	(-6.563329704346784, 7.8870639627483108)	(8.3191928738677845, -8.7131209389494675)	1.0	slash	0.861266
12	M	B	B	A	A	N	M	N	M	8	2	shapes	B	2	False	134	(-5.2145532394717309, 5.5659055478040926)	(0.73548284516541429, -1.2294263065027264)	(6.1303978865832534, -0.75147962430041026)	(-2.9496591414963005, -5.2456417850118893)	1.0	z	0.669268
13	N	A	N	A					M	4	2	shapes	N	2	False	134	(8.3464352531723165, 5.1681630393179372)	(-3.4889013266596942, 4.4657993126100024)	(5.6896697133849443, -4.9194780969966327)	(-1.0740425014893678, -4.0629958872799445)	1.0	z	1.12853
14	M	A	M	B					M	4	0	shapes	M	2	True	134	(-1.4336693178423294, 0.2354654827411693)	(5.4913320103852499, 0.087639466922469822)	(-8.140306463857824, -0.78180748314456494)	(5.9208922276257816, -5.6188558877840258)	1.0	slash	1.00864
15	N	B	N	B					A	4	1	shapes	B	2	False	134	(7.3307643699682927, 0.31239378169850696)	(-8.0484630518829547, -8.0121232728933585)	(-4.158661065617129, 6.4235184670967591)	(5.156341059741953, -5.7843267170502628)	1.0	z	0.919808
16	M	A	M	N					N	4	3	shapes	N	2	True	134	(7.8813255999989238, -0.42379374300936767)	(3.9118317311210031, 8.6076041973604518)	(-7.2829851497695222, -1.3880762911134745)	(-6.4495991950317562, 3.1525755752736639)	1.0	slash	0.80212
17	N	A	N	B	B	A	M	M	A	8	0	shapes	N	2	False	134	(3.7464764937217598, 5.9581187731556771)	(0.53629793492386391, -4.015091433596492)	(-2.3430227410908913, 3.729114012942512)	(-6.0312312170420057, 8.2137163429867357)	1.0	slash	0.711069
18	M	A	N	N	B	M	B	A	N	8	5	shapes	M	2	False	134	(-0.55472564897072196, -1.5871165225191284)	(-1.3797292150674085, 6.765963261260783)	(5.9609199561821171, -3.424286923141211)	(4.4886651063716023, 3.7204156756024904)	1.0	z	1.01098
19	N	B	M	A	N	M	B	A	M	8	6	shapes	B	2	False	134	(3.7342873424174705, -3.2982394988436976)	(7.4628798198636659, -0.61460211781697183)	(-2.6487878842807833, 3.8684826034921649)	(-7.5851785342751654, -8.2888091752511013)	1.0	slash	0.957148
20	M	A	B	N	B	A	N	M	M	8	7	shapes	M	2	True	134	(-5.9569267134301516, -5.0421002138316808)	(-1.4296165442894999, -1.6302880554098778)	(-4.7260725215055199, 3.9494323351088756)	(3.2913385589833997, -1.4179221717834825)	1.0	z	1.03675
21	M	A	M	N					M	4	3	shapes	N	2	False	134	(4.5473437490601665, 1.8806194778626733)	(-1.7885293875407742, 7.7584431782439438)	(-6.8265689314990583, -0.81426546140277711)	(2.4576496472459528, -2.6841012183332253)	1.0	slash	2.86759
22	M	A	M	B					M	4	0	shapes	M	2	True	134	(3.5108358571528626, 2.7989209923114267)	(8.6112372410864104, -6.69988048766524)	(-2.0817342631585163, -7.6519797607369764)	(-8.2056580717659191, 8.430508911605088)	1.0	z	0.630841
23	M	B	M	N					B	4	2	shapes	M	2	False	134	(7.1249904364774395, 5.5008926352854104)	(-4.1955383026282069, 5.917662569340246)	(4.4999845890124774, -5.7345473123601449)	(-6.7655586113713966, -4.9512661289980526)	1.0	slash	0.963502
24	M	A	M	N	B	B	N	A	B	8	1	shapes	A	2	False	134	(4.2806241197102803, -5.3297794458596837)	(6.6355239478275063, 2.5742055000955339)	(-0.28984145316301735, 0.3553232093299119)	(-8.0671117307332114, 3.2232346726223007)	1.0	slash	1.6686
25	M	B	B	N	N	M	A	A	M	8	5	shapes	M	2	True	134	(-6.2529396422714161, 1.2273900110849727)	(-8.7357306900046368, 6.3023280829190096)	(7.3015333879631115, -1.2785482432166289)	(-8.2973430258571703, -5.5871368424670322)	1.0	z	0.650231
26	M	A	B	A	B	M	N	N	N	8	6	shapes	N	2	True	134	(-7.5383958605016606, -4.9288731740657274)	(5.9576256010826807, 2.9667475404986448)	(-3.6050539657240348, -4.0400002860641102)	(8.2509030036257727, -3.156077868641451)	1.0	z	1.17764
27	N	A	N	M					B	4	3	shapes	M	2	False	134	(2.751349911063306, 6.9124205004337593)	(8.3508192133805039, -8.2659642303927061)	(-2.5811106862141431, -3.6044217172805428)	(-7.3078860520157694, 8.3880566765333455)	1.0	z	3.1521
28	M	A	N	B					A	4	1	shapes	A	2	True	134	(-0.39392573597344693, 4.4952242423752917)	(-6.8870730838665626, -7.0008050153039019)	(6.4536665275727145, -8.4514028486167909)	(8.7052530765220091, 4.531266850006519)	1.0	z	0.888766
29	N	A	B	N	B	A	M	M	B	8	4	shapes	B	2	True	134	(-5.5559394264074928, -0.57998453672164807)	(-0.71600197362748652, 4.8973864564996887)	(-3.0446265031901802, -7.3269171862133105)	(5.6926081399218695, 0.67036769756091275)	1.0	slash	1.06912
30	M	A	M	A					N	4	2	shapes	M	2	False	134	(3.5222031405003857, 2.8448313405416013)	(-6.6525536797892961, 8.2188505672480829)	(2.6035779911042614, -2.1359522548124747)	(-4.5098215970957387, -8.4726177981466435)	1.0	slash	0.783867
31	N	A	B	B	M	N	M	A	N	8	0	shapes	N	2	True	134	(3.7518913943660177, -3.6093199867410259)	(0.20565889556494277, 1.3960738271829598)	(-4.5473060365213867, 0.67747132348402594)	(4.8743792850040784, -8.2018453576732586)	1.0	z	1.00852
32	M	B	A	B					B	4	3	shapes	B	2	True	134	(4.0735911537162774, 2.0484619425745088)	(2.4124773321102992, -5.6127997185788088)	(-4.5476623600604364, -2.7204390838717831)	(-6.3918811326997904, 6.557550476364062)	1.0	slash	1.47949
1	M	A	M	N	N	B	A	B	A	8	2	shapes	M	3	False	134	(-2.2397959020764118, 1.3805653487824259)	(0.32889937756018206, -3.1289503717880924)	(-6.1443237902372552, 5.9674947954069886)	(5.0325295499416196, -6.6723197490850144)	1.0	slash	1.61297
2	M	A	N	N	B	M	B	A	A	8	7	shapes	A	3	True	134	(-7.1115437091466172, -3.3958709015729438)	(-7.2102299690206895, 8.2160243697834474)	(-3.6919887365475228, 2.6218054824439569)	(5.8752674237456013, -6.352031153108368)	1.0	z	0.780715
3	N	A	M	N					B	4	3	shapes	N	3	False	134	(-1.1547849219438326, 4.3569175891001368)	(0.28213151519825175, -7.2699314733608178)	(-5.3938144035211852, -7.3977825281035434)	(6.5647841017805337, 6.070932121449129)	1.0	slash	0.77636
4	N	A	B	B	A	N	M	M	B	8	3	shapes	B	3	True	134	(8.692356973429689, 5.1871806805032747)	(3.5682863150548698, -0.89599398809077346)	(-0.037678878935322402, 1.7075954396948312)	(-7.4463018734682667, -2.9678934572085671)	1.0	z	3.85603
5	M	B	M	N					N	4	3	shapes	N	3	True	134	(-3.9122887391964927, -0.67205576235674158)	(0.03409949514760946, -5.1757224327040312)	(-2.0024801372729817, 4.2536222815865177)	(7.5349416363698758, 7.670908056482066)	1.0	slash	1.09514
6	M	A	N	N	B	M	A	B	B	8	4	shapes	B	3	True	134	(-3.3546316670586682, 5.1111678998842578)	(1.9043221208612238, 3.1762937810823288)	(6.4083708911964301, 5.986729531635719)	(1.0785102972918317, -2.5846998291716465)	1.0	z	0.881068
7	N	A	N	B					B	4	1	shapes	A	3	False	134	(7.3502113052601565, -6.4808889203046292)	(-3.9872166267483315, -7.7626640449898607)	(2.798080537308687, 7.4763779815060545)	(-3.5080025026699193, 0.1130896598712674)	1.0	z	0.882575
8	M	B	B	N	M	N	A	A	M	8	0	shapes	M	3	True	134	(4.2643589290501733, 4.3566428919793054)	(-1.9588825217560926, 0.13232783437667273)	(-7.981601142699529, -1.8818347875870716)	(7.1964445500486729, -0.57667959140578162)	1.0	z	1.17027
9	M	A	N	B	M	B	N	A	A	8	1	shapes	A	3	True	134	(-6.3345042072689139, -4.2119729229416105)	(6.337360390455828, 0.76141170779398593)	(4.5551025472660669, -7.8381582180706975)	(0.9868329031266132, 5.1457977129622634)	1.0	z	0.562892
10	M	A	M	A					B	4	2	shapes	M	3	False	134	(3.3981521723980226, 6.2461177180162846)	(-8.4412613250168818, 2.0596695234204834)	(-1.1184990099119236, -6.5652307766342268)	(4.8038110428154148, -6.8309122915635729)	1.0	slash	0.500145
11	N	A	N	M					N	4	0	shapes	N	3	True	134	(-1.6294276224330906, 6.2525569479137424)	(8.2564315503446579, 5.6654419656685508)	(3.9270645371054531, -5.9265217414031328)	(-6.6146202114817356, -2.0474644790328185)	1.0	z	1.7211
12	M	A	B	A					M	4	3	shapes	A	3	False	134	(-3.1031451404041404, -6.3815503549337436)	(-4.248203974044058, 6.6612916625286136)	(0.68862984052927168, 7.3097199083149995)	(2.8720850906824609, -5.9871780218353834)	1.0	slash	0.586818
13	M	A	M	N	N	A	B	B	B	8	7	shapes	B	3	True	134	(7.0123216513505575, 2.2374130201655085)	(1.1394013738057769, -2.8205025232764491)	(1.8405754236450935, 7.4865083160892567)	(1.9983907437830126, -6.762038011335429)	1.0	z	1.15241
14	N	B	A	A	N	B	M	M	A	8	6	shapes	M	3	False	134	(-8.2453544059491577, 4.6788996948590587)	(-7.3368928356454859, 8.6320873113493235)	(3.9980048722115757, -5.1848280897780494)	(7.1666634697091194, 3.4958834750834207)	1.0	slash	0.892142
15	M	A	M	N	B	A	N	B	N	8	7	shapes	B	3	False	134	(-0.017183767082178392, -2.031598177707675)	(1.1926098210448686, 2.4014620595241034)	(-7.2345776386842218, 0.1524565054828404)	(-7.2150324363102118, 5.4271851337489565)	1.0	z	1.44582
16	N	A	A	M					A	4	3	shapes	M	3	False	134	(-6.4327696483748316, -6.2482995414720568)	(2.5350929764762107, 4.5171901240427168)	(4.3994533168186667, -2.3147705380016319)	(-1.3757972669698884, 5.6101176786013482)	1.0	slash	0.773406
17	M	B	M	N	B	A	A	N	B	8	3	shapes	N	3	False	134	(-6.670881214003817, -2.2082627001473334)	(-1.3660436390973274, 2.3798447816375905)	(3.7398269225117957, -3.816501334795432)	(5.057724826748716, 1.2584029041469904)	1.0	slash	1.08513
18	N	B	A	N					N	4	3	shapes	N	3	True	134	(-5.5774242450912777, -5.9027605434844155)	(6.031789325275156, 6.7797124317265922)	(6.0094590087478021, -6.9699918711901692)	(-4.5697341299931331, 7.9940148140055243)	1.0	z	1.46251
19	M	B	N	A					A	4	3	shapes	A	3	True	134	(8.3760450201847192, 6.4630786126530584)	(-7.743303643865131, -6.5156872213644785)	(5.4465129351912385, -6.3994240695618538)	(-6.23079932161742, 0.0261053783465659)	1.0	slash	0.962941
20	N	A	A	B					B	4	3	shapes	B	3	True	134	(-0.32629959927241892, 0.16194696084587257)	(0.20814113088572306, -5.5991569914076766)	(8.6033143719754364, 0.95735653535000154)	(-7.6466318575113279, -3.6668929027999866)	1.0	z	1.45199
21	N	B	A	N					N	4	0	shapes	N	3	True	134	(0.88193757999064282, -6.2671367156624607)	(-2.5699743172690646, -2.5232427300273264)	(4.2956332823181747, 5.7521992836587312)	(-2.695801384490923, 3.6839474666010776)	1.0	z	0.7395
22	M	A	B	M					A	4	0	shapes	M	3	False	134	(-4.2322202911348459, 0.32608659142334062)	(6.0252759576310471, 7.5392225446650336)	(3.1816802367391848, -7.8718428409187773)	(-1.3790327507347389, -6.8853840861047484)	1.0	slash	0.805039
23	M	B	B	A	N	N	M	A	B	8	5	shapes	N	3	False	134	(8.2517274898205635, -5.2717647813219042)	(-6.4475272380427953, 7.875379009753452)	(2.9815648766226808, -2.2208765604381586)	(-1.8354455538347203, -5.0601784616619945)	1.0	slash	1.73557
24	M	A	N	N					M	4	1	shapes	A	3	False	134	(-4.7084836369581069, 0.15109268219686101)	(-5.5629127314818927, -7.053844396582468)	(0.35982542923232685, -5.2984588994662438)	(7.2060593249120934, 4.5331010829302212)	1.0	slash	1.21279
25	N	A	A	B	B	M	N	M	M	8	6	shapes	N	3	False	134	(-4.4897334765961805, -4.9883108321205203)	(1.312741718112207, 1.4548450368324808)	(5.9284779650968815, -0.43277830264235817)	(-7.5649602339951683, -8.6314039556452098)	1.0	z	2.03601
26	N	B	A	A	B	M	N	M	M	8	4	shapes	B	3	False	134	(5.0161079242561772, 0.066155242788088486)	(-0.64372278906694547, 6.9585869152919191)	(-2.9674375458673756, -8.5774599219566792)	(-8.2383948175229218, 0.10118276992642095)	1.0	slash	1.11163
27	M	B	A	N					M	4	3	shapes	N	3	False	134	(4.1854098267692983, 3.3051008008928289)	(8.424049669592474, -0.32054955153591358)	(-8.5362243491260443, -1.0303331107363976)	(-3.8761242397196902, 4.9546109317769957)	1.0	slash	1.05134
28	N	B	A	N	M	M	A	B	B	8	7	shapes	B	3	True	134	(7.2724766128963445, 6.3493496207245332)	(5.7965562771551138, -7.6400037073854046)	(-5.2833793000773008, 6.0659754249050177)	(5.611009973484272, 0.15798918016983698)	1.0	z	1.06894
29	M	B	A	B					B	4	1	shapes	B	3	True	134	(3.0406805812131346, -2.4837810516496566)	(-0.80027044601134101, 4.5338308340537115)	(-2.0407975505111331, -4.2046685013880944)	(4.1924919917253014, 4.9415610923157409)	1.0	z	1.76901
30	M	B	B	N					N	4	3	shapes	N	3	True	134	(-3.9560107935161808, 8.0193485773365971)	(5.8132283452912663, -5.9639900902896841)	(-8.2503230897960922, -6.8113123209588231)	(7.178590724292734, 1.0497403562233725)	1.0	z	0.614016
31	N	A	M	M	N	A	B	B	M	8	0	shapes	N	3	False	134	(0.96223663582935082, -6.2059745735869232)	(-1.1933156147451935, 4.5833103440211751)	(5.0237442356444983, 6.9196916107303004)	(-8.3521370099751575, -6.9142513716676346)	1.0	slash	2.68583
32	N	A	N	M	B	B	A	M	B	8	4	shapes	B	3	True	134	(4.0040155468197813, -4.4038369523983869)	(8.2170510613484495, -2.0494901671160921)	(2.2760776900165069, 1.6700783217888215)	(3.7943807301447006, 7.1682092711318148)	1.0	z	0.895432
1	N	A	A	M	N	B	M	B	M	8	4	shapes	N	4	False	134	(0.68616707247268316, 6.8512636475537949)	(-8.5058598789238662, 3.9180025905864326)	(-5.8050767106510888, -1.694619716407046)	(-1.5528167614592219, -6.8721805549676489)	1.0	slash	1.06692
2	M	B	N	B	M	A	N	A	B	8	2	shapes	N	4	False	134	(0.81425033469107966, -5.7557003852665272)	(8.585407174168914, 1.2407082658081539)	(-8.7249974961861501, -2.1204258738735176)	(-0.23860729874425779, 7.052535630246183)	1.0	slash	4.05643
3	M	A	M	A					M	4	0	shapes	M	4	True	134	(-8.0582949138640014, -4.4679083857357966)	(4.3301750713505847, -6.5465916284336805)	(-6.2042591605199586, 5.9028507080826902)	(4.7896738890464619, 2.0234854523235235)	1.0	z	1.08591
4	M	B	B	A					B	4	1	shapes	B	4	True	134	(-8.4181854767352036, -2.8148858698208841)	(4.8842116804158788, 3.3378110191284698)	(-1.5398547355481522, 5.3334846367786675)	(8.3592005252155523, -1.004852001630467)	1.0	slash	1.08816
5	N	A	M	M	B	N	B	A	B	8	4	shapes	B	4	True	134	(3.7800079754768756, 8.1468435157456121)	(3.0172753116585511, 0.79199839937309235)	(-3.5899754478550179, 6.0189054460893541)	(7.3579879655577116, -6.7280610473482838)	1.0	slash	1.31115
6	M	A	B	B					M	4	0	shapes	M	4	True	134	(-4.6208029455836597, 2.561618798830823)	(1.8229675904589779, 0.26361847497407531)	(-8.1955542704018054, -1.4444050889729079)	(8.4763624818926147, -2.526506751174999)	1.0	z	0.762703
7	M	B	M	N					A	4	3	shapes	N	4	False	134	(-1.5022367713938634, -2.825798885574236)	(-0.61174647105530866, 3.1626379825978148)	(6.8521783798547151, 5.196281410717777)	(5.3785616192552812, -3.336954337416655)	1.0	slash	1.2924
8	M	B	M	B					N	4	3	shapes	B	4	False	134	(6.6425889258279458, 2.6213868040598385)	(3.5375851096562361, -6.6501797334142339)	(-5.2379231041206431, -8.6520005577414452)	(-4.9732058642236252, 0.30868367299841637)	1.0	slash	0.866623
9	M	A	A	B	M	N	N	B	A	8	2	shapes	A	4	True	134	(-2.4834515252548535, 2.7691452150272564)	(5.5800942498369182, -4.6065797357135176)	(0.95885168796069742, 5.7732762799403208)	(-7.567098017397532, 6.8141060476719151)	1.0	slash	1.36771
10	N	B	N	A					M	4	1	shapes	B	4	False	134	(7.9817313639207512, 6.1921933894185148)	(3.8666540562080822, -0.45620288819515586)	(-8.5142968054185992, -2.2736707231396123)	(-5.1446616749942553, 7.630718208691377)	1.0	slash	0.767802
11	N	A	B	B					N	4	0	shapes	N	4	True	134	(-7.7101507427080076, -0.82571680396099723)	(0.928741697829496, -3.7751786618097283)	(-2.7046636199993674, 4.9834252447069733)	(3.951360004744318, 1.0801110319690359)	1.0	z	0.886974
12	M	B	B	M					A	4	0	shapes	M	4	False	134	(-1.2125216895655546, -3.3653694213730887)	(2.004185321491919, -8.634011905970258)	(8.2988349414865681, 7.5160867092791968)	(-3.9503466205313851, 6.828357149792895)	1.0	slash	0.66459
13	M	B	M	N					M	4	0	shapes	M	4	True	134	(-3.6622651159384478, 0.87888595909830158)	(-7.0577731483855564, -7.0850191603544168)	(1.9498738265706255, -7.5349870295432941)	(7.4967552614264257, 3.4596516442706111)	1.0	z	2.1504
14	M	B	N	N	B	A	M	A	B	8	2	shapes	N	4	False	134	(-3.4822865165885926, -0.4621344777015679)	(-6.7120096421075512, 6.2115265043591599)	(1.4101928913796566, 5.9760862585414056)	(-5.9732946860424541, -4.7259249099739842)	1.0	slash	0.883824
15	N	B	A	M	A	B	M	N	M	8	6	shapes	M	4	True	134	(-7.0700365192929535, 3.4615117610763093)	(-3.7423072165639644, -3.565656506284264)	(5.1271303831370254, 6.7632956000307605)	(6.5119281948806673, -5.5444431913562102)	1.0	slash	1.67555
16	M	A	A	B	M	N	N	B	B	8	3	shapes	B	4	True	134	(1.1988462749934339, 2.4657152460015599)	(-5.7923369948026657, 3.6023308479401539)	(6.8059153986471479, -5.486339081920236)	(4.3226070885212824, 6.7215158821354883)	1.0	z	1.01301
17	M	B	B	M	N	A	A	N	N	8	5	shapes	A	4	False	134	(3.1673027156950031, 2.1677015106153483)	(-3.2547064617188495, -6.4846801434279548)	(-8.0653015971478492, 1.9563391611950021)	(-7.9499263977217574, 7.9228452942872565)	1.0	slash	1.07928
18	N	A	A	N					M	4	0	shapes	N	4	False	134	(5.4872431980238066, -7.3548832270343105)	(-7.2452419389532574, -6.4137862665534424)	(6.4296885376504633, 1.5752732149572566)	(-8.0994627055965012, 1.1000509933183711)	1.0	z	1.00891
19	N	A	A	N	B	B	M	M	N	8	3	shapes	N	4	True	134	(8.0793532940005406, -6.7246484633846411)	(-5.3999496747081439, 3.9843322432134602)	(-3.1166148857223774, 7.3884256289983625)	(-6.2441913363497061, -8.5700708838735142)	1.0	slash	0.66447
20	N	B	M	N					A	4	1	shapes	B	4	False	134	(8.7012742613736194, 5.2593957367402524)	(7.6905693835447622, -2.3265074328948616)	(-8.2899860216938528, -0.2504797867684232)	(-4.3419445525502827, 1.877735133456234)	1.0	z	0.876038
21	M	B	A	M					B	4	2	shapes	A	4	False	134	(0.081128392876012256, 4.7891165857714064)	(3.8671099261959636, -1.2288701349902436)	(-0.71473741752660835, 0.78843421485041532)	(-7.7658698804839918, -2.4010105362616949)	1.0	z	2.21319
22	N	B	B	M					B	4	1	shapes	B	4	True	134	(-5.3748008153554885, 7.5266602953734285)	(7.3630702335249687, -6.6895760251741212)	(-0.95240892556612256, -4.1329086897601632)	(8.4029466743730623, 0.30632813144615412)	1.0	z	0.867543
23	N	A	A	N	M	M	B	B	A	8	6	shapes	B	4	False	134	(-8.5836866529929257, -0.81896427546682915)	(1.2574381092063618, -4.4729785618950118)	(-4.457075903099927, -6.5739898620960409)	(-5.2566056017285563, 2.1022120048877895)	1.0	slash	1.51878
24	M	A	B	N	N	B	M	A	N	8	3	shapes	N	4	True	134	(-0.34797811059015515, -3.6586818744234026)	(-4.6458489171425299, 3.3104402764882206)	(6.9069790363047492, -0.32504745313276828)	(5.1147705909849197, 8.0285259005285496)	1.0	slash	1.2641
25	N	A	N	A	B	M	M	B	A	8	7	shapes	B	4	False	134	(-6.2707181846003985, 5.2530948835636497)	(5.3337078362615369, -8.0330365290393715)	(0.52387844249775739, -2.0932391008833831)	(-0.08924699452578011, 4.6467164916687391)	1.0	z	1.2598
26	N	B	B	M	A	M	N	A	A	8	4	shapes	A	4	True	134	(5.9673746942196466, -2.7362639086968787)	(-5.8026536145131375, 3.0126944906922546)	(-7.9098112957040705, -2.3504042943495369)	(-0.36724724726125402, 8.0265218560681006)	1.0	z	5.15322
27	N	A	B	N	A	B	M	M	M	8	2	shapes	B	4	False	134	(-7.7954393648139142, -2.7116428057691611)	(6.8443737671837734, 4.7985456731142389)	(6.3575712961546227, -4.8126456227698213)	(-0.34931383969636087, 0.038094762126688053)	1.0	slash	1.18928
28	N	B	M	M					B	4	0	shapes	N	4	False	134	(5.0831790233848775, -0.44598647649484136)	(3.5022749303876068, 4.2953195897459384)	(-4.9637325597777551, 1.4619760343160664)	(-8.4337218545270538, -5.7219094399045858)	1.0	z	1.72825
29	N	A	N	A					A	4	1	shapes	A	4	True	134	(6.9542777608301556, -1.3808762733606121)	(-7.7172876938086015, -1.6589560503160339)	(8.1554572315607423, 6.8177916847398983)	(-1.1865919897214088, 6.4393631917657697)	1.0	z	0.877437
30	N	B	A	A					A	4	2	shapes	A	4	True	134	(-7.4668234699788618, -2.6479122407875639)	(7.3728856437644232, 5.4504797686734481)	(7.369044760136152, -2.194830533614728)	(-4.0676870074757625, 6.2201381751517815)	1.0	slash	1.50133
31	N	B	N	A	B	A	M	M	N	8	0	shapes	N	4	True	134	(-1.4787906957807886, -2.1862744269781125)	(3.3549987873130256, 2.9648802205244493)	(-5.1152519611419445, -4.096255959721379)	(0.27766377227575845, 8.199141395558474)	1.0	z	1.33315
32	N	A	B	N	B	M	M	A	N	8	2	shapes	B	4	False	134	(1.1564045626642603, 1.7492938339524198)	(8.7469595762610126, 4.8840650029576569)	(-7.2677616566059724, -6.6784869406361773)	(0.46272187334846748, -5.1349085176938463)	1.0	slash	0.806665
1	M	B	A	M	A	B	N	N	N	8	5	shapes	B	5	False	134	(-4.7330912204933391, 7.193961594983783)	(-1.3682563608749172, -7.3156043717020216)	(5.4366724410830951, -3.9044495671617652)	(6.9673010615025746, 3.0901905009004729)	1.0	z	0.972401
2	N	B	N	B	M	M	A	A	M	8	3	shapes	B	5	False	134	(-3.4859381474077749, 1.7990267362798473)	(-2.4249584237848225, -8.5166941938031542)	(-4.3106977087699798, 6.1005950504004769)	(5.1408240783481851, 8.6626511376676198)	1.0	slash	1.01189
3	M	A	A	N					A	4	1	shapes	A	5	True	134	(6.6446608166351311, 2.6769595638232033)	(1.2763179596986998, -6.4167287736044374)	(-0.88271171369473223, 6.0667275857420009)	(-3.4677882956048443, -6.1331935692352708)	1.0	slash	1.59546
4	M	B	N	B	M	N	A	A	B	8	7	shapes	A	5	False	134	(-3.4312844911772817, 7.1147805683533534)	(3.6536415589361368, -3.4190020431612167)	(-3.4521419800712163, -0.059246541653832807)	(6.8535423674485454, 0.63252935578116976)	1.0	z	1.69333
5	N	B	B	M					N	4	0	shapes	N	5	True	134	(6.201962534661142, 1.8115683717281676)	(-5.0528377173152101, 7.0163862879821863)	(7.1029023041247807, -2.9426723558024817)	(-8.5207655487958309, -8.6188103254199504)	1.0	slash	1.74468
6	N	B	N	A					M	4	1	shapes	B	5	False	134	(8.1118763098787774, 0.35240472013194157)	(-3.4751767190782514, 2.0832516884337871)	(4.0489308989674129, -6.2748124420174189)	(-7.6204480781724193, -3.197917269993396)	1.0	slash	0.668417
7	M	A	B	A	M	B	N	N	B	8	2	shapes	B	5	True	134	(-2.407442927299142, 6.6104318583261072)	(-2.3530066777026954, -3.8978416131449869)	(4.5722016514303974, -5.3841597635795475)	(7.0690611517077411, 7.8326749570240288)	1.0	z	1.55763
8	N	B	A	B					B	4	3	shapes	B	5	True	134	(7.0493599911298137, 1.0366477587315526)	(-5.5310066020919511, -3.4288827220951994)	(-7.3491362680823169, 8.3512816526342988)	(1.9540388088867804, -6.0863106206094955)	1.0	z	1.41217
9	M	A	A	B	N	N	M	B	M	8	4	shapes	N	5	False	134	(2.125301944420821, -3.0158006796785859)	(1.6357039655542494, -8.2965146383005326)	(6.5339459261241881, 1.0871923771085399)	(-5.3857819370826672, -7.2963785999699455)	1.0	slash	0.811118
10	M	B	B	A					B	4	2	shapes	B	5	True	134	(2.1890637139319793, 5.5954504211162579)	(-4.4551361400927885, -0.38930229666055638)	(-7.3130948825759177, 3.3761018187821641)	(3.3000291828455701, -6.9455391135120568)	1.0	z	0.872809
11	N	B	N	M					N	4	2	shapes	N	5	True	134	(-0.42354796727608957, 1.7984248558824341)	(7.0961969759257943, -4.6514658749159548)	(-7.4200577433323289, -0.074403978382683533)	(2.6610072658871484, 5.445485431742437)	1.0	slash	0.749129
12	M	B	A	M	N	A	N	B	B	8	7	shapes	B	5	True	134	(-1.9200007390627425, -2.181498877335982)	(5.7920200340279724, 2.0858998778637847)	(0.34107875900554774, -6.9214953287628145)	(8.2664752511273711, -6.8797235344031291)	1.0	z	1.79424
13	M	A	M	N					B	4	2	shapes	M	5	False	134	(-5.431483198629711, -7.2983033377656481)	(-6.2742532917027614, 3.4046307818943049)	(7.2131372036049637, 6.3936263484207121)	(4.0702539364968526, -2.7545064022065038)	1.0	z	3.90412
14	N	A	B	M					B	4	3	shapes	M	5	False	134	(-6.8897722680063795, 2.9218463393611671)	(-2.4921037255244256, -6.3433538820098532)	(1.2195778760513178, 6.3097256584008026)	(0.83851552222775005, -0.077930771285451783)	1.0	slash	0.88374
15	N	B	B	N	M	A	M	A	A	8	4	shapes	M	5	False	134	(-7.6687995847871999, -0.65469575408173064)	(7.4374688582200221, -2.1078388630239751)	(3.0751322390984157, 1.2743622192721435)	(4.1592590054547838, -8.28417043734202)	1.0	slash	0.566787
16	M	A	M	B	N	A	N	B	M	8	0	shapes	M	5	True	134	(-2.1215363964427905, -3.9142875549819811)	(5.5390046719984838, 6.3214321894392071)	(-6.9572520954805093, -6.0730132455395509)	(-6.7152941523779131, 1.7602184601231521)	1.0	z	0.630963
17	N	B	N	B					N	4	2	shapes	N	5	True	134	(8.2667887172897281, -3.5754643981143532)	(-8.4863913914478175, 4.4295417332762259)	(6.8320298679796032, 1.0514071283042519)	(-2.9883541224078796, -6.2430073726008271)	1.0	z	0.682841
18	N	A	A	B	N	B	M	M	B	8	5	shapes	B	5	True	134	(-1.6903226602967418, 7.7219704499455695)	(-5.4307246662941848, -2.5442404452605931)	(-2.8672079678827096, 2.9460698908527725)	(-0.56871607307530603, -3.2643634895687228)	1.0	z	1.39544
19	M	B	N	M					M	4	3	shapes	M	5	True	134	(-1.3361739290390116, 5.4095589014850489)	(1.1574560334705506, -4.5357449576752984)	(3.9953175986521359, 8.2899601866652937)	(-5.4403779532050178, -3.9058789922579873)	1.0	z	0.773451
20	M	A	B	M					A	4	1	shapes	A	5	True	134	(-4.3581832508940845, -6.3310907497078635)	(7.7194591385876414, -3.9930824980191355)	(-6.6407549158655135, 2.7790338723232964)	(0.52020941859759162, 4.2623918280727597)	1.0	slash	1.05169
21	N	A	M	N	M	A	B	B	B	8	7	shapes	B	5	True	134	(-2.9353914538661394, 4.609667451445814)	(3.6951826425764231, -5.0736199967114288)	(-8.3963008140834816, -8.5745060127339894)	(-6.9371233785657065, 7.9232785148550064)	1.0	z	0.722568
22	M	B	B	M					A	4	1	shapes	B	5	False	134	(-8.5352503364039176, 1.0346854083810602)	(-5.7896543254293249, -6.1574220787182945)	(4.8285298455138115, 7.4330594839056943)	(2.8675874816031808, -8.1362144029902677)	1.0	z	0.989019
23	M	A	A	B					A	4	0	shapes	M	5	False	134	(-4.6096788294294413, -8.179079967834582)	(1.4015351107834118, -0.40227014035601627)	(3.0533080164408233, 7.1271526811197639)	(-3.0723528508969782, 6.5161910963672032)	1.0	slash	0.59016
24	M	B	A	B	A	M	N	N	A	8	4	shapes	A	5	True	134	(-0.10395407533397538, 3.8034004275771771)	(-5.4469677982463569, 8.1949993312876686)	(-3.1652456726521212, -7.8724613576180777)	(-7.6865484509152973, -5.0610171690268597)	1.0	z	1.29925
25	M	A	M	B					B	4	1	shapes	A	5	False	134	(7.8424394132645148, 6.0049357433428625)	(6.1273807340557838, -2.3990153011025122)	(-8.2461896181044505, 1.6078031175135692)	(-6.19351383849326, -6.9476784557368632)	1.0	z	0.75949
26	M	B	M	B	A	N	A	N	N	8	2	shapes	M	5	False	134	(-1.4431723558417806, 0.23591614566958974)	(6.8518497819531561, -7.1184156180507383)	(-0.74490720819487954, 5.5432158516321604)	(-2.6858988707363256, -7.8051929666176711)	1.0	slash	0.650871
27	M	A	N	N					A	4	2	shapes	N	5	False	134	(1.4414025067992231, -6.0345281012894514)	(-2.8667876555034377, 8.747545755534059)	(6.9400107741509078, 5.7461042087900172)	(-8.2093707455187293, -1.8475602736105285)	1.0	slash	0.867302
28	N	A	B	B	A	N	M	M	N	8	0	shapes	N	5	True	134	(-0.51824326392631903, 1.924829047322822)	(-5.5049805161869259, 2.7284081297180318)	(2.3211881307264299, 4.8812866222984734)	(4.4982259165844738, 8.4555062345407812)	1.0	slash	0.824236
29	M	A	B	N	B	A	N	M	A	8	2	shapes	B	5	False	134	(-7.1703939324504651, 0.87731425448287048)	(2.0731484759955165, -4.1053368855086987)	(-7.0919331019004792, 8.6710517776218516)	(-5.6273155342017906, -3.6167412292328418)	1.0	z	0.879909
30	M	A	A	M					N	4	3	shapes	M	5	False	134	(-7.7619329434593878, 4.8597336589510416)	(3.6042113551041304, 4.9322072068108476)	(1.0771130464589085, -8.2763023973105057)	(-7.8323523525485523, -3.1280756968744372)	1.0	slash	0.607598
31	M	B	M	B	N	A	A	N	M	8	2	shapes	M	5	True	134	(-2.3873062555699081, -3.5646742899721318)	(1.565836739015813, 2.7975395515427284)	(8.6406404715730893, -2.7470785636235808)	(4.5008100112250684, -2.5658032310298458)	1.0	z	1.12181
32	N	B	B	M	N	M	A	A	M	8	4	shapes	N	5	False	134	(-3.9001351616975937, 1.9396927042895253)	(-2.0521258351339782, -2.2520697876131965)	(5.0990120338976119, 3.8601182814614283)	(-8.3688193178296721, 8.3295987999812837)	1.0	z	0.820793
1	M	A	B	B	M	N	A	N	B	8	7	shapes	N	6	False	134	(1.4109887845873281, 3.6313450785396402)	(3.0738220084819829, -7.2435748375444131)	(7.8015714525368445, -8.4230416501226273)	(-7.6767019003013548, 4.3313769938722686)	1.0	slash	2.60295
2	M	B	B	M					B	4	2	shapes	B	6	True	134	(-8.6157223282242725, 2.5057643081569214)	(1.107938047556571, 5.4981309935559413)	(-4.3674026876883278, -8.5714389032548439)	(0.52436117579539498, -0.28352780125288213)	1.0	z	1.80187
3	N	A	A	B	M	M	N	B	B	8	7	shapes	B	6	True	134	(0.13341906371610079, -4.1900355491295063)	(2.3748069704493648, 8.3616883041848737)	(-7.5616713727411122, -5.2811992257369234)	(-3.0713052008056954, 4.1548994285562344)	1.0	slash	1.04423
4	N	A	M	B					N	4	0	shapes	N	6	True	134	(8.1863674724805762, 3.5537863272536363)	(-2.8692652421824594, 0.35233346247454556)	(-8.4209406330476089, -2.4369700762885822)	(3.0578601997302695, -0.032983500240671759)	1.0	z	0.755401
5	M	A	A	M	B	B	N	N	B	8	4	shapes	B	6	True	134	(4.8385750746206551, -5.8890514156446159)	(-7.7592589682029596, -1.4288181854081277)	(0.49428310581969015, -4.4716582751658107)	(4.6329842293756691, 2.5152665706331074)	1.0	z	5.2233
6	M	A	B	B					N	4	2	shapes	B	6	False	134	(-1.3546193052767075, 3.8211591295858423)	(5.4797695334521794, -8.4084944537157984)	(0.83403804292118977, 8.5095779759159562)	(-6.2326636261311421, -3.7224325160341749)	1.0	slash	0.874655
7	N	A	B	A	N	M	M	B	N	8	4	shapes	N	6	True	134	(3.7108901415677931, 0.31858403711415129)	(5.1122733432857039, 8.5935765363471255)	(0.49660916399750654, -6.5039583379270809)	(-4.525466426850957, -4.0365751974326551)	1.0	z	0.638012
8	M	B	N	M					N	4	0	shapes	M	6	False	134	(5.6581432686815258, 7.0066302102300693)	(0.78072405425061575, -2.1454903865893451)	(-2.9940026099494217, 8.4083101494640289)	(-2.6985803139838023, -7.361329276453926)	1.0	z	0.760004
9	N	A	B	B	N	M	M	A	A	8	5	shapes	M	6	False	134	(-2.3502429335364603, -6.6830931385530841)	(-2.6826303207794631, 5.8482822165635255)	(-2.4694328108015444, -0.3589412069623048)	(-7.1869715728810988, 0.1182554381536054)	1.0	slash	0.619275
10	N	B	N	M					B	4	1	shapes	B	6	True	134	(5.474020095734021, 4.0796201927284912)	(-8.7089044972701206, 0.047008343153619236)	(-6.441491362859054, -4.7642610193419639)	(1.1375289422481583, -7.7603368000154376)	1.0	z	0.881277
11	N	B	M	M	A	A	N	B	B	8	5	shapes	A	6	False	134	(0.67718827011461435, -5.9988099756420148)	(-8.1297514506507476, -0.30126474842688822)	(8.4520946869489926, -6.0081904943715383)	(-1.3276511676527063, 4.7364969776424886)	1.0	slash	1.23453
12	N	B	A	M	N	B	A	M	A	8	2	shapes	A	6	True	134	(7.7706456537600062, -4.2478387246654927)	(3.1498904391283844, -6.3907559079968932)	(-4.7528149333739176, -7.7683358542467706)	(-2.5863885391999517, 4.3778978295004194)	1.0	slash	0.900623
13	N	B	A	A					B	4	2	shapes	A	6	False	134	(8.2173240125852658, 6.169328928120013)	(-7.2636594844879392, -0.54193333782261632)	(4.8058654776778162, -0.90687295607183227)	(-3.201207274550101, 1.053418352931125)	1.0	slash	0.895829
14	M	A	B	N					B	4	2	shapes	B	6	True	134	(3.5988461025841012, -7.3090740230391287)	(-5.3621135690850892, -5.010060642494703)	(1.764568079318618, 3.4132633637990022)	(-5.6548184722481016, 1.2691823466723609)	1.0	z	0.733448
15	N	A	N	M					M	4	0	shapes	N	6	False	134	(3.2266816985450575, 2.9270048256073942)	(-8.5413830027118092, 5.1553696712875396)	(-2.0449531435139692, -3.156476576823998)	(6.4398257581012857, -0.89783815882518336)	1.0	slash	2.54765
16	M	A	N	N					A	4	3	shapes	N	6	False	134	(7.2244572454342642, 6.021420491630268)	(-1.5257998192466342, -6.9495380461472971)	(2.3718965428741434, -3.9431578580311157)	(-6.271935923634361, 0.1970421111448335)	1.0	z	1.35863
17	N	B	N	B					N	4	3	shapes	B	6	False	134	(1.9327644949968974, 8.4300597971481466)	(5.4668809141204804, -0.61192091058368092)	(-2.6951231917596017, -0.29123719617872901)	(-6.2969419343788164, 2.4365524471522271)	1.0	slash	1.89617
18	M	B	A	B					B	4	1	shapes	B	6	True	134	(3.8973270768897699, 4.9262682078609519)	(-8.1599835440877815, 6.4172752281026959)	(-4.8012740829924478, -0.33456772938107804)	(1.150693076217129, -0.010856823008824179)	1.0	slash	1.11933
19	M	B	N	N	B	M	A	A	N	8	6	shapes	A	6	False	134	(1.3711793962456049, 5.2197952152641864)	(-6.6468468177345068, -7.8358268886630782)	(2.5086736142905117, -8.222422667090985)	(-5.2368418640575154, -1.5945541745911749)	1.0	slash	0.811402
20	N	B	B	A					M	4	0	shapes	N	6	False	134	(2.2217615822378374, -6.4592759739885262)	(-5.9837974472705913, -2.8983493788909929)	(-7.571610714078572, 3.2565243506551997)	(5.0149391401362706, 3.9661479260816943)	1.0	slash	2.17166
21	N	B	M	B	N	M	A	A	M	8	5	shapes	M	6	True	134	(-2.725151089529704, 6.3796117111100568)	(7.042883985976351, -5.9377381641572189)	(-6.4574686421713725, -5.9290607155859529)	(-5.6655820288105367, 1.3495585107364043)	1.0	z	0.778913
22	M	B	B	A	N	A	N	M	A	8	1	shapes	B	6	False	134	(6.3801503410220004, -2.8909106058007676)	(0.30977528051606384, -7.1134444894477173)	(-2.54206811120961, -0.57725077427642901)	(-0.53648313298258543, 5.2491074488554244)	1.0	slash	1.35428
23	M	B	A	M					A	4	2	shapes	A	6	True	134	(5.7140924118422838, 4.6480156968680753)	(2.3688994110435555, -8.093672143255457)	(-0.44958450598860011, -0.41970716243652184)	(-5.4804723033149676, 4.5149508490006429)	1.0	z	1.51624
24	N	B	M	A	N	B	A	M	M	8	7	shapes	M	6	True	134	(-1.1594357733242964, -0.42410693912569641)	(-4.4556340426781329, 1.9807197323080601)	(4.4132843835473743, 2.3243751187924531)	(-2.2535779471555557, 6.080593932473878)	1.0	z	1.36778
25	M	A	N	A	M	B	B	N	N	8	0	shapes	M	6	False	134	(-0.6014642165960602, 5.4447507212437927)	(-2.1744198893434499, -5.4175259222989407)	(5.0099287412243392, -7.3866955008582913)	(0.80707212336739254, -1.6145395620187735)	1.0	z	5.13509
26	M	A	A	M					M	4	3	shapes	M	6	True	134	(5.0606867674865725, 8.2154230725250734)	(-4.5843176734940378, 0.9795037285528263)	(-1.8834838295510394, -2.9618411008578684)	(8.5397162176046564, -6.4825963498645534)	1.0	z	0.862402
27	N	A	A	B	N	M	B	M	N	8	1	shapes	A	6	False	134	(3.4019849902791233, -7.8424881909369928)	(1.7720854664872405, 2.3634119770637145)	(-4.5603911571505478, -5.6272213757640692)	(4.3170862187581758, -2.5424745796977399)	1.0	slash	4.38798
28	M	B	M	N	N	A	A	B	B	8	7	shapes	B	6	True	134	(7.6173230374500669, -3.069720457944368)	(-6.2011045387838148, 0.74857036590008441)	(8.590827809663292, 7.9095227560350168)	(3.2146749036661149, -6.5027287737593547)	1.0	slash	0.897436
29	N	A	M	M					B	4	1	shapes	A	6	False	134	(-2.407109506694467, 4.1357295731701118)	(-3.3816002413121033, -1.5303804637552778)	(0.84523276206311415, -0.30653719403240487)	(7.5352363850322099, 8.7193416394937877)	1.0	z	1.15144
30	M	B	A	M					M	4	3	shapes	M	6	True	134	(2.2117257862157214, 5.6822839358237545)	(-8.1928515638755606, 5.0143233172333783)	(6.6780136955603844, -6.8504842999749407)	(-8.4663256546786787, -4.3280056733559089)	1.0	z	0.851306
31	M	B	N	A	A	M	B	N	B	8	7	shapes	N	6	False	134	(-6.9661972723563039, 5.4130196594196747)	(-1.476543212612583, 0.1677033827061063)	(-1.5543720889905757, -4.1406688420672282)	(6.0983973144818524, -4.8617614795330582)	1.0	slash	0.920269
32	N	B	M	B	M	N	A	A	B	8	3	shapes	B	6	True	134	(3.8402440364984862, 5.7995981582211726)	(1.2981798012318109, -8.2690332156090065)	(-0.20584426148680812, 2.8700397846593013)	(6.4289039207583638, -3.1884920388445792)	1.0	z	0.54594
1	N	A	M	A	N	B	M	B	M	8	2	shapes	M	7	True	134	(0.28610524867589326, -2.9142341813758925)	(3.429890570016326, -6.217048048698941)	(4.1529860114303325, 4.6030211098861642)	(-7.0426197651216649, 8.3482052834490617)	1.0	z	1.08399
2	M	A	B	B	N	A	N	M	N	8	5	shapes	A	7	False	134	(-2.862550254915341, -7.6694333986363254)	(5.9918067376753044, -8.6961104578766548)	(0.89247333268823681, -5.9439266370782313)	(-3.5615330172636828, 8.2632495175917242)	1.0	slash	0.747856
3	N	A	M	N	M	B	A	B	B	8	5	shapes	B	7	True	134	(-7.0670286908213749, 1.4799356634904228)	(1.0201764830221531, -1.6397118343149346)	(5.4727675611829874, -1.2944255070783131)	(-4.8737496280238259, -7.1893049793764892)	1.0	z	0.720998
4	M	A	A	M					B	4	1	shapes	A	7	False	134	(0.11955245889683042, -3.1107166800037822)	(1.8911179730406023, 2.1598795356630891)	(-3.1614674386041335, 3.6799899235128226)	(-8.1244869399829263, -2.2208357993719039)	1.0	z	0.481267
5	N	B	B	A	M	A	M	N	A	8	5	shapes	A	7	True	134	(1.7035321108444865, 2.4138741672710911)	(2.1403109553358792, -6.284230618984731)	(0.10771287659861351, -1.2899451150759349)	(-4.7320081922205128, -8.4703960308241069)	1.0	z	1.10055
6	M	A	M	N	N	A	B	B	N	8	2	shapes	M	7	False	134	(-5.6968228607387665, -2.7548461433322062)	(-6.8237226107768185, 5.8847612773920037)	(7.8173600752848422, -3.1157446561483981)	(-8.6550141660348796, -8.6587928082118282)	1.0	slash	0.769984
7	M	A	A	N					N	4	1	shapes	A	7	False	134	(3.8188760634724659, -4.1136258431037414)	(-2.9435105827982078, 2.5996316318435735)	(2.8842685962810464, 6.2651261016791011)	(-8.5300509423653956, -5.0520311162238407)	1.0	slash	0.834124
8	N	A	M	A					A	4	3	shapes	A	7	True	134	(-7.4166008714005365, 5.500941901223138)	(7.1641958571191378, 0.18383218082132835)	(-8.0146106416322453, -3.927683929272427)	(0.39566104591379059, -0.22098377769487954)	1.0	z	0.99523
9	N	A	N	M	M	A	B	B	N	8	1	shapes	A	7	False	134	(7.7197175486273615, 2.5682849521991784)	(0.715241366679086, -3.2035729961273507)	(6.6773983218323725, -6.3452097376881103)	(-6.5247253783356127, 8.4864847851928396)	1.0	slash	0.84871
10	N	B	B	M	A	A	N	M	B	8	2	shapes	B	7	True	134	(-8.2801532915809215, -2.2283441327318974)	(4.294468531231507, -0.068605539619536415)	(4.2832293721993153, 5.5199606263990209)	(-2.7886896034382831, -8.4265522717593022)	1.0	z	0.770424
11	M	B	M	N	B	A	N	A	B	8	1	shapes	B	7	True	134	(4.1584757342749903, 0.21253021957243057)	(-7.6599721717801312, -2.5943359745641938)	(-3.3559050220161328, -0.8183444464876688)	(2.5039472533494287, -4.9376634142111886)	1.0	z	1.42726
12	M	A	N	A	N	B	B	M	M	8	3	shapes	A	7	False	134	(6.8637580606454325, -4.519064101079719)	(-8.4438313451340576, -6.8238801452380295)	(2.0087950236961252, 0.58755424135429557)	(2.6760951631557184, -4.8032740106813812)	1.0	slash	0.893635
13	M	A	N	M					M	4	2	shapes	N	7	False	134	(-3.7546643034753382, 4.3031624371887602)	(7.2426984839928288, -1.0811824346562)	(-3.169312996348534, -0.19348388532119642)	(3.0782600794047212, 3.8069572535689087)	1.0	slash	2.96339
14	N	A	B	N					N	4	0	shapes	N	7	True	134	(-7.8980740114043844, -4.7149720522040628)	(-1.7823761336502573, 8.3781001854830137)	(8.6099535935818849, 8.3308865641082726)	(6.1400285215893291, -7.2359907698045145)	1.0	z	0.939052
15	N	B	N	A	M	M	A	B	M	8	0	shapes	N	7	False	134	(-5.7212186069480566, -2.857342482819214)	(-8.1661582501066778, 0.89253422449623088)	(0.25462411567621324, -7.0516299593482517)	(-8.6572274521117212, -5.9833493215951359)	1.0	z	0.648573
16	N	A	B	A	N	B	M	M	N	8	3	shapes	A	7	False	134	(-5.0701976601891996, -4.0988207164647026)	(1.2019259295962108, -2.6074776801255481)	(7.8987712625294719, 4.8760773251935401)	(3.8336696227076743, -5.9376480453438649)	1.0	slash	0.936157
17	M	A	N	A					N	4	2	shapes	N	7	True	134	(4.5164849347616016, 5.437803396197987)	(-2.1656153111668628, 6.1236054595753231)	(-1.3251144443939342, -0.21907031429698343)	(4.1637014474696006, -0.051092079434383209)	1.0	z	1.56629
18	N	B	A	A	B	N	M	M	A	8	3	shapes	A	7	True	134	(4.2033434605132651, -8.0519977922306669)	(-5.6519090097222771, -7.7595828692440749)	(-0.091548721015771051, 6.5887198618172107)	(7.939419102537336, 7.8572311980887015)	1.0	slash	1.27149
19	N	A	A	M					A	4	2	shapes	A	7	True	134	(-2.2238057802958835, -5.9159931073937519)	(-3.3632050640511366, 1.0452177260343234)	(7.2424396099201083, 2.4142779237527243)	(3.2679017899677891, -6.3181471350976848)	1.0	z	0.715423
20	M	B	M	A	N	N	B	A	B	8	4	shapes	N	7	False	134	(5.3910851619449627, 2.7845566816946263)	(4.6874119521950295, -3.025602776168534)	(-4.4063808740645332, 0.52909869167297252)	(1.0872550288702296, -5.5865029278334948)	1.0	z	1.08668
21	N	B	N	M					A	4	2	shapes	N	7	False	134	(-0.74171133603613626, -2.7530067186323324)	(-5.1766947060535227, 1.637448401770456)	(7.0062698265446386, 8.2362576737882733)	(5.1479705901715835, -4.4939011064179146)	1.0	slash	0.673481
22	M	B	M	N					A	4	2	shapes	M	7	False	134	(-4.0196133539640657, -1.2723718349673288)	(-1.637608505427103, 7.7811007185526293)	(5.4680986574570412, -0.81294516316128806)	(3.090274857301786, 7.5501624287502125)	1.0	slash	0.505432
23	N	A	B	N					N	4	3	shapes	N	7	True	134	(1.5284303508370627, -3.9014789411369728)	(-6.2596218033507007, 0.73104839041914005)	(1.2412847159222729, 3.0646881478201706)	(-5.5150212909959979, -7.5993430837151772)	1.0	z	1.10773
24	M	A	A	N	N	M	B	B	M	8	3	shapes	N	7	False	134	(2.3840157612542097, 2.4067397879343009)	(-3.9298081416240827, -3.5125593887376905)	(-7.111667480133665, 6.5752888763230413)	(5.4256551947871028, -8.177481569367762)	1.0	slash	0.857295
25	N	A	M	B					A	4	1	shapes	A	7	True	134	(1.1695612082658773, -7.7438256948576605)	(-5.0525216472043155, 6.8813157439760637)	(-4.5518293474241149, -2.803982549444699)	(8.2597532854953357, 1.9577815290743832)	1.0	z	0.870846
26	M	A	M	N	N	A	B	B	N	8	3	shapes	N	7	True	134	(-4.2383739328940102, 5.7113096180892562)	(1.6713628886697425, 4.0893872272982179)	(-3.0416432696783406, -1.6304399975778034)	(7.159974896640394, 0.33525829760372083)	1.0	z	1.20263
27	N	B	B	M					A	4	2	shapes	B	7	False	134	(-0.48219786602411574, -1.0110135863263237)	(-5.0615282896722249, 5.2761523457123225)	(8.5794411271143112, -5.1359714966607584)	(6.9272613915321877, 8.1557056471182214)	1.0	z	1.97084
28	N	B	M	N					B	4	1	shapes	B	7	True	134	(4.0502830423488749, -1.6583826666734112)	(-3.1313514600363117, -2.004908085612767)	(-3.8373334936603927, 7.8220059389987675)	(6.5734527714655648, 1.5640874788386032)	1.0	z	0.889332
29	N	B	A	M					A	4	2	shapes	A	7	True	134	(-2.1908062761401501, -6.5936759339797621)	(3.2236804147778635, -1.1667349920646153)	(-3.4631595575347625, 2.7172311114124881)	(8.6893264276263551, 2.1880310717323486)	1.0	z	0.746679
30	N	B	M	B					M	4	3	shapes	B	7	False	134	(2.2609646979916018, 3.2633877403515363)	(-1.4399123188901219, -2.2003152684443998)	(-3.2786869823239577, 5.9781734491047089)	(3.0378564380555684, -4.6459767130202128)	1.0	slash	0.7738
31	M	A	B	M	N	A	B	N	M	8	0	shapes	M	7	True	134	(-8.1026471808827019, -6.2190743228563514)	(0.86211072552546142, 2.7140689941415861)	(4.9588988530858771, -8.2305948191196219)	(6.7150116480086215, -4.3114775320154184)	1.0	z	1.46488
32	M	B	A	A					B	4	3	shapes	A	7	False	134	(-2.7233479042863564, -0.6554921193565999)	(8.5960223144875307, -3.4612655538951849)	(-0.74439386148224784, 5.7720118475236148)	(5.4409414819924962, 1.9392916157162539)	1.0	slash	0.858353
1	N	A	A	B					B	4	3	shapes	B	8	True	134	(-0.68898531734887669, 1.0523151093512233)	(7.2055850158125132, -0.77703303716339533)	(0.36811133131043938, 5.4512717192185995)	(-7.3497329524846373, -7.4156683241255488)	1.0	z	0.965888
2	M	B	A	M	N	A	B	N	N	8	5	shapes	A	8	False	134	(5.5716532138871422, -4.1763168001757816)	(-0.12500835929573384, -7.7207304275986699)	(-7.400600594071463, -1.4481812076574005)	(3.1822136383972399, 6.742820746348956)	1.0	slash	0.51196
3	N	A	A	B	M	M	B	N	N	8	4	shapes	M	8	False	134	(2.9533749761119044, -8.2881311624823741)	(-1.5819411885184982, -2.3390484165882235)	(-5.4331550148620291, -7.3018665035530885)	(8.2674125258495081, -5.5231334091137034)	1.0	z	0.883834
4	M	B	M	A					A	4	0	shapes	M	8	False	134	(-5.9877882007920515, 5.3368021082922219)	(2.6360519466654857, 7.8986047095570697)	(4.4824107164209792, -0.38082920698853329)	(-7.2288161805147855, -2.363235878811679)	1.0	slash	0.643053
5	N	A	A	M					A	4	2	shapes	A	8	True	134	(-0.2353822000692638, -2.9360155889333823)	(-6.5835171606116063, 1.9054813669052386)	(6.9380143122784546, -1.9535612681354433)	(2.652303776651781, 2.7621311093151562)	1.0	z	0.721047
6	M	A	B	A	M	N	B	N	N	8	6	shapes	B	8	False	134	(8.610306743956972, -5.7619231743029333)	(8.4394650139953029, 0.093177228851255123)	(1.131330779647751, -3.2762934398745021)	(5.2277496691124963, 4.7143357321045762)	1.0	slash	0.714069
7	N	B	A	A	M	M	N	B	M	8	4	shapes	M	8	True	134	(-5.9816700242674514, -3.7053050130408094)	(6.4216186946569174, -3.5845370071412628)	(0.20199477434754698, -7.3825334360331141)	(-2.1693626739033647, 4.3796557764764188)	1.0	z	0.820386
8	M	B	M	N	N	B	A	A	B	8	6	shapes	A	8	False	134	(4.7114648493873386, -6.6794950925398986)	(0.94805375280592408, 3.9111617381139361)	(-8.5780703679647914, 5.6136456627123597)	(2.1525198565367099, -0.50685705147797044)	1.0	z	1.8422
9	M	A	M	B					M	4	2	shapes	M	8	True	134	(-4.4660115414003263, 2.8785092256092284)	(6.1729537788036897, -8.0343677571545644)	(7.6887467449706115, 7.7168247648209132)	(-4.7360108056771901, -5.1880929824315896)	1.0	z	0.675228
10	N	A	B	A	M	N	B	M	M	8	4	shapes	M	8	True	134	(3.3444936756557233, 3.3684956626611129)	(7.4082613729099194, -8.3737709165196286)	(-1.8306011223526859, -3.1743545678717178)	(7.8319352907041058, 6.8375668609822018)	1.0	slash	0.606707
11	N	A	B	N					B	4	1	shapes	A	8	False	134	(8.2893859688355036, 4.6533393248921886)	(-2.2967401103692007, -1.4104428548741943)	(-0.55309376266932908, 2.3994781168804078)	(5.4505917470371568, -8.688333172023345)	1.0	slash	1.07776
12	N	A	A	N					N	4	0	shapes	N	8	True	134	(-0.91523477747883053, -1.1737106781506528)	(-1.3008948472086095, 3.0934527453478271)	(3.1501837849540575, -8.1187274786627039)	(8.0677645542478125, 1.2461751464550339)	1.0	z	1.03085
13	N	A	M	M					M	4	2	shapes	M	8	True	134	(-2.4449435232849304, 7.8185128947223745)	(-5.2071769957899425, -0.65238697787811617)	(6.5758696830693566, 3.2938242648399285)	(8.0374744250850867, -3.4685471042845526)	1.0	z	0.736223
14	M	B	B	M					A	4	1	shapes	B	8	False	134	(-4.5227460298429998, -7.1579741059453603)	(4.1802924566431354, -4.7287075206290474)	(-4.4821273007280027, 1.3361701689563574)	(8.1783855076978256, 2.6565797432089084)	1.0	z	0.773971
15	M	A	M	N	N	A	B	B	M	8	5	shapes	A	8	False	134	(0.19901041256961705, -7.3337226690396706)	(4.2490930978598129, -8.6788039183528429)	(-3.9801688604268826, -1.0849925221389425)	(3.4759411603250356, 2.1226045773079889)	1.0	slash	2.97368
16	N	A	A	N	B	B	M	M	A	8	2	shapes	A	8	True	134	(2.8301068815030543, -5.0373325141835377)	(-0.2490679532975264, 7.488864910060741)	(7.9142138426210593, 3.9796114652959265)	(5.2514750742336194, 7.9266247702212809)	1.0	slash	2.16921
17	N	A	B	A	N	B	M	M	B	8	2	shapes	B	8	True	134	(4.2245251435058826, -1.9821789992620964)	(-0.87443682919081756, 8.6978066222499208)	(1.495185682398283, -8.5322251016206927)	(5.1614545579589244, 7.6745871443040237)	1.0	z	0.973733
18	M	A	B	N	N	A	M	B	B	8	7	shapes	B	8	True	134	(-2.5904518678342789, -6.5950779391887115)	(-4.4475289484479994, 6.3763392606355325)	(-6.851133605639852, -1.1575556347674647)	(1.0599074089028218, -0.12398318020356847)	1.0	z	1.51823
19	N	A	A	B	M	B	N	M	A	8	2	shapes	A	8	True	134	(6.6940637923843536, -4.712528117464351)	(0.50157562392344168, -2.6075219749595968)	(-3.2755499112602777, -0.26645803586629846)	(5.6211999207675092, 4.0882500218846189)	1.0	slash	1.7917
20	M	B	B	A					M	4	2	shapes	B	8	False	134	(-5.6302168534117474, -4.6883798250157502)	(1.2894087541892905, -2.499474516560233)	(-3.2878624188711765, 6.4784467570994142)	(6.9067533470262745, 3.3255277124492437)	1.0	slash	3.10662
21	N	A	N	M					M	4	0	shapes	N	8	False	134	(2.4270547851332527, -6.6839675636074611)	(-3.583223341415561, 2.0057236782301171)	(7.0551451572813839, 6.5507061529881039)	(-7.4959147007995517, -7.7720524740310806)	1.0	slash	1.42229
22	M	B	A	A					M	4	1	shapes	B	8	False	134	(-2.715340205138876, -7.2556473448834211)	(-5.6710690973576652, 7.648495697431219)	(4.9372533489456725, -7.4632261799500679)	(4.9955271382095958, 5.2191252235057686)	1.0	slash	1.21178
23	M	B	N	M					B	4	1	shapes	B	8	True	134	(-8.0349327973884268, -1.9375606782168582)	(-2.3580039902215812, 0.69208360214561537)	(2.0763615040299062, 2.4593527891434217)	(0.13923472792744818, -8.0020215142672448)	1.0	z	1.07557
24	N	B	M	M					A	4	0	shapes	N	8	False	134	(-5.9369631286795119, 4.9609131706901373)	(0.56140941513633003, -7.4702678310780479)	(5.5340918522552922, 6.2391377572135944)	(-4.8856624421438752, -2.3250942467648601)	1.0	z	1.34143
25	N	A	M	B	A	M	N	B	M	8	6	shapes	N	8	False	134	(1.202002296563407, 6.2808588263700784)	(-8.6914304871726618, 1.974943406600314)	(7.6080388335519054, 5.9861601223373739)	(3.0198915626430001, -5.1888311230759054)	1.0	slash	0.582822
26	N	A	B	N	M	B	A	M	N	8	5	shapes	B	8	False	134	(4.201509516688251, 3.4335585160844815)	(5.9857442583274985, -2.6962869468090016)	(7.1362590748803054, 8.6972508483283875)	(-5.6652459421618886, 4.2499614534401715)	1.0	slash	1.12494
27	N	B	N	A					B	4	3	shapes	A	8	False	134	(-0.28857783891380606, 6.3028482332952684)	(0.39247555466347706, 0.85218537390051985)	(-0.89773595001911577, -3.6922495200616066)	(3.9866483924160292, -1.2686565060474315)	1.0	z	1.33506
28	N	A	N	A					A	4	3	shapes	A	8	True	134	(4.9126329063853085, -4.1609047682290798)	(-6.0862676899291444, 2.982212532334847)	(0.50334237326526221, 3.2134911168437537)	(-6.9790086322200322, -2.2827513704735836)	1.0	z	0.692252
29	M	A	N	B	A	B	M	N	M	8	0	shapes	M	8	True	134	(6.0539592833643816, -8.2014767912055309)	(-8.3710494958033159, 4.5665777551932258)	(5.5721905265805045, -3.8641190794898934)	(5.0663162552923477, 1.572003452793707)	1.0	slash	1.39726
30	N	A	N	M	A	M	B	B	N	8	7	shapes	B	8	False	134	(4.8194270593012121, 4.4407538806974554)	(0.88412389484360077, -8.4773820487045519)	(7.2560906191677184, 8.5322050753108059)	(-8.0512551416107971, 7.2620346824098831)	1.0	slash	0.935028
31	M	B	M	B					M	4	2	shapes	M	8	True	134	(-4.2680847953690044, -4.3929927568941025)	(2.4255307021631687, -7.4309707663235756)	(2.6733168295256444, 1.4312943916112744)	(-5.4205196009105947, 1.2985439793845295)	1.0	z	0.580678
32	N	A	M	B	B	M	N	A	N	8	6	shapes	N	8	True	134	(-7.023586518684481, -8.2725358406015737)	(-7.161498340521371, 3.838079269650871)	(-4.9140230920396135, -2.2726552738012753)	(1.812069337823992, 5.9927461051094273)	1.0	z	1.6742
