TrialNumber	stim0	stim1	stim2	stim3	stim4	stim5	stim6	stim7	stim.probe	ttl.stims	corr.num	trial.type	stim.corr	block	match	Subject	stim.pos0	stim.pos1	stim.pos2	stim.pos3	ran	resp	RT
1	M	B	A	M	A	N	N	B	N	8	7	shapes	B	Practice	False	135	(-0.081613243854597783, 6.7088929303399407)	(-5.4522254038074989, -5.5529283291661349)	(3.8017693274270936, 4.1671152995016616)	(-6.5567171573691061, 1.803387272223052)	1.0	z	2.71694
2	M	A	M	N					N	4	3	shapes	N	Practice	True	135	(0.42484445407792215, -2.4702460861713371)	(5.8652351973468058, 6.8658600814203492)	(-4.6507383074829498, 5.1258749701159676)	(-6.3740811259211476, -3.2907906030658696)	1.0	slash	1.43513
3	N	A	N	A	M	M	B	B	A	8	3	shapes	A	Practice	True	135	(-3.2279841913256098, -5.8781481771473487)	(0.79886706752802716, 8.5654718978256561)	(6.3480512619556748, 4.1810839001860653)	(4.8595078331931649, -4.6293198162905647)	1.0	slash	2.73453
4	N	B	B	N	M	M	A	A	A	8	6	shapes	A	Practice	True	135	(-6.5015941175526351, 0.19161928024545105)	(-4.7708408836428902, -7.5102406014213869)	(5.9445753516748194, 5.2959580589521114)	(2.2872282422932013, 1.6231715430900095)	1.0	z	1.07216
5	N	A	B	A					A	4	1	shapes	A	Practice	True	135	(7.6272065915050682, 1.5491249120804831)	(-6.481713029015979, -5.6507420653038762)	(1.5694056353067545, -5.3806819108422541)	(-8.0682552954029987, 6.2010236654329081)	1.0	slash	1.22563
6	N	B	A	M	M	B	A	N	A	8	1	shapes	B	Practice	False	135	(6.7852905260296961, 5.4107551377953822)	(-7.1741210506640325, -8.4636300331156935)	(0.24174472457099405, 2.5588040190937864)	(4.9016652082382635, -8.0923450033060593)	1.0	z	1.70533
7	M	A	M	B					B	4	1	shapes	A	Practice	False	135	(3.5547427374156531, 2.3801693043324015)	(8.1144114763289075, -8.7182961207956673)	(-3.4789386905393842, -8.5807168248657248)	(-7.5449006822426359, 1.1630523115170153)	1.0	slash	1.97461
8	N	A	N	M					A	4	0	shapes	N	Practice	False	135	(8.5709200374746572, 0.85392501681089428)	(7.6087021813093791, -4.9572672266334994)	(-3.2075383283347261, 2.7398245836257846)	(-8.0237303064675416, -6.9073361560446118)	1.0	slash	0.94609
1	N	B	A	B	M	A	N	M	N	8	6	shapes	N	0	True	135	(3.1352501105652379, 6.8782390019016084)	(8.631303447536709, 7.2930937001768044)	(-4.0863245098586916, -0.27513817931519213)	(-4.9097193830254415, 8.2387324452448674)	1.0	slash	1.71653
2	M	B	N	A					M	4	0	shapes	M	0	True	135	(5.1511056723307309, 2.6467647083858825)	(-1.2306990251666754, -1.5170444731247068)	(7.6600709474237654, -3.7753069354425159)	(-7.9415943106379663, 1.1808621076309986)	1.0	slash	1.98412
3	M	B	N	A					N	4	1	shapes	B	0	False	135	(4.0468486415045266, -1.2883660675147848)	(6.8410222242164576, 6.9959020016292452)	(-6.0297008252879252, 4.9215954351782827)	(-5.2312989226511064, -0.89502737292119683)	1.0	slash	0.677748
4	M	B	N	A	B	N	A	M	A	8	0	shapes	M	0	False	135	(2.871988615300257, 0.32626190492569407)	(-8.5668940032548253, 2.1171994429961369)	(-7.0486066682299455, -4.7358058796190274)	(-0.2231280200887209, 3.0743810640585263)	1.0	z	1.31534
5	N	A	M	N	A	M	B	B	A	8	5	shapes	M	0	False	135	(1.9341043426099009, -7.0704958356323644)	(-0.54374785893958411, 5.9244974464809737)	(-3.0803451833667124, 1.7201127198332689)	(-4.8808959834893919, -4.2855464267764267)	1.0	slash	1.29692
6	N	B	B	N					B	4	0	shapes	N	0	False	135	(-6.5620539416495429, 1.522125713099955)	(8.555386643809431, 4.9693555032468932)	(5.6449125354194649, -4.6330186767757953)	(-0.3786417319638069, -7.1659075682420337)	1.0	slash	2.49685
7	M	B	M	N					M	4	3	shapes	N	0	False	135	(-5.7871366620620259, 1.4838280838350091)	(2.9499905792665668, 1.0558785458498576)	(-4.0897746881206007, -4.2307322049721439)	(6.8282242249226659, -2.7376680328002934)	1.0	slash	0.792115
8	N	A	B	A	B	N	M	M	N	8	3	shapes	A	0	False	135	(1.4936214135494712, -7.4695384350705076)	(0.77220925009668306, 7.1129017323824542)	(5.1879237538166869, 4.5018573319016433)	(-4.5643506392751609, 7.5557032287371548)	1.0	slash	2.45933
9	M	B	A	B					N	4	3	shapes	B	0	False	135	(-5.6027417363883432, -4.5230114455254977)	(-1.8712565171909414, 7.139122929346394)	(5.0913173443819204, 1.5910418590526465)	(4.4846350659014664, -7.2929952136057352)	1.0	slash	0.960026
10	N	A	B	M					N	4	0	shapes	N	0	True	135	(-1.9047038956570441, 6.5304262047583777)	(-2.2404555122124794, -2.4032695895536387)	(1.7859109734898713, -4.5308062623072924)	(3.5893580720556084, 5.3996429303675288)	1.0	z	1.18657
11	M	A	N	N					N	4	3	shapes	N	0	True	135	(-5.1966380681594995, 0.79169365201410891)	(6.6506876827302346, 5.153525121881577)	(6.4794063639037827, -0.26258427407925566)	(-2.3537798062324606, -3.9116303412952185)	1.0	z	1.07868
12	M	A	A	N					B	4	3	shapes	N	0	False	135	(-7.322211638725026, 6.3421603426680164)	(1.7845973489891342, -5.5848741169564189)	(0.44645594903198749, 6.1225822764552564)	(-2.2995379017544835, -6.8059270184957255)	1.0	slash	1.36813
13	N	A	A	B					A	4	1	shapes	A	0	True	135	(-1.9896347033261961, 4.8426076303799412)	(5.8967721828384434, -6.1639287370336078)	(4.7869403751240114, 8.0753452108827375)	(-8.4098308946418605, -2.4960708176125781)	1.0	z	1.28779
14	N	A	A	B	M	B	N	M	N	8	0	shapes	N	0	True	135	(-3.1075874806756021, 2.1371037960892298)	(-0.21939127650251677, -6.4031025400575778)	(2.4110439632817364, 7.2673868296692454)	(5.6084685247009283, 0.66792505469228303)	1.0	slash	1.38742
15	M	A	M	N	A	N	B	B	B	8	4	shapes	A	0	False	135	(-0.24669467253138855, -0.67525504969635186)	(3.4949771090963822, 1.5360169110223403)	(-5.2399488750326482, -3.155512729444232)	(0.40008530568004552, -5.9904466269027941)	1.0	slash	1.63502
16	M	B	N	M					M	4	3	shapes	M	0	True	135	(2.1662719397079524, -5.661158779778269)	(-8.4863842029980265, -1.1395351514272862)	(1.4802390369054574, 7.4493402138235219)	(-3.7621117151452941, 0.92698219635675372)	1.0	slash	2.19063
17	M	A	M	N	N	A	B	B	N	8	3	shapes	N	0	True	135	(1.4877317653834918, 0.10945502999345713)	(-3.7090381025333743, -1.1256024274466885)	(-6.2185433960683056, 5.8994896860657651)	(7.6895536051826632, 0.29866207289913937)	1.0	z	1.02417
18	M	A	A	M	B	B	N	N	N	8	7	shapes	N	0	True	135	(-0.81623677411764728, 3.2677383560551707)	(2.9116699605987328, 7.5661156282066777)	(8.3219521138600854, 7.8293839495984443)	(-1.4485808850901361, -8.6937044671283488)	1.0	z	1.44772
19	M	A	N	A	B	N	M	B	A	8	6	shapes	M	0	False	135	(-6.1011242507178878, -6.7774601279471351)	(3.5731575642846671, -5.4776120450951193)	(-6.6886478679225272, 4.5798006696614095)	(6.5937734545109361, 0.4211424293803443)	1.0	slash	2.26731
20	M	A	N	M					M	4	2	shapes	N	0	False	135	(-7.3517915089066701, 2.5220530556633083)	(-3.5712057481242461, -1.9185820748210149)	(2.6954982068017728, -1.8495026390492546)	(7.6832025166679472, 6.5141299569549176)	1.0	slash	1.01287
21	M	A	M	B					A	4	1	shapes	A	0	True	135	(5.7148350165418833, -3.0317482754277858)	(-5.8896917672293805, -4.233990888089644)	(3.3106426677856042, 5.7930485841149828)	(-1.6524201806814158, 0.90418132651678462)	1.0	z	0.972531
22	N	A	M	A	M	B	N	B	A	8	5	shapes	B	0	False	135	(4.9986144602769631, -6.4213448081971434)	(-2.1815614719123673, 5.8985511770150652)	(-0.72474461827118652, -2.0619138917089685)	(5.6652611499952545, 4.0972502856753454)	1.0	z	0.887095
23	N	B	B	N	M	M	A	A	M	8	4	shapes	M	0	True	135	(-6.8794960789866844, 6.5476550812327865)	(0.12165557483394807, 0.59558810682531949)	(-1.9432157980380094, 4.7118213705662697)	(-6.0856913928148337, -1.9630460303292709)	1.0	z	1.07346
24	N	B	N	A	A	B	M	M	B	8	7	shapes	M	0	False	135	(3.9097433118460376, 7.8647499209342868)	(-1.8035359200761931, 8.5193974479401398)	(-8.4718309544065313, -1.4764803730501788)	(1.527447676123483, -7.4243209469031495)	1.0	slash	0.997125
25	N	A	A	N	B	B	M	M	M	8	7	shapes	M	0	True	135	(1.0277875302806141, 3.8704892510265498)	(-3.6581741750437358, 4.3283511252314284)	(7.3048667688578917, 7.8107614935065897)	(-7.5517279742358063, 0.63527578228281811)	1.0	slash	0.98721
26	M	B	M	N					M	4	3	shapes	N	0	False	135	(8.1107919719484549, -6.2372391146518833)	(-1.1970912350462211, 2.8809082126431118)	(-0.98516234496503685, -1.2365010414562816)	(4.8996504950465507, 7.103548510291116)	1.0	z	1.64676
27	N	A	B	M	A	B	N	M	M	8	2	shapes	B	0	False	135	(-0.46400424015511099, -8.0794906280125645)	(1.9822114384588048, -4.2702767263535231)	(-1.1191381596808823, 7.13146419579469)	(0.23574220697856063, 0.14153170243741542)	1.0	z	1.11628
28	M	B	M	N	N	B	A	A	M	8	2	shapes	M	0	True	135	(2.5959917631433846, 2.3981972966977292)	(3.407918396041099, -7.9949027474553001)	(-2.7745660354194603, 6.1131099333189169)	(-5.2907017020517983, 1.3803502058062875)	1.0	z	1.65797
29	M	B	A	B					B	4	2	shapes	A	0	False	135	(-6.0615518456767816, 7.9183458820062711)	(4.980394746738682, -8.3742463365136626)	(-6.5783391433048815, -6.6718754847452155)	(4.3744872931396053, 4.7243643808461027)	1.0	slash	1.34355
30	M	A	M	B	A	B	N	N	A	8	1	shapes	A	0	True	135	(-7.5645655128550082, -5.8686292120195143)	(7.4708988825077469, -1.7371767079092919)	(-3.4943973424562573, 6.7629146818540846)	(2.8757217970790538, -4.8188881375730652)	1.0	z	0.853251
31	N	B	M	N					M	4	2	shapes	M	0	True	135	(-3.8067921512533456, -7.112553327478528)	(2.3359847764323707, 3.9264997921005911)	(0.93781717620536931, -7.6201359231954271)	(-1.9405086865178696, 3.7451482978169626)	1.0	z	0.908901
32	N	A	B	A					A	4	1	shapes	A	0	True	135	(0.4152918778401169, -0.66084259969724712)	(-2.9904042698682449, -3.448837220881356)	(-5.1815315761671252, 0.014942749655048715)	(7.3160606752132118, 4.1783160540394153)	1.0	slash	1.62441
1	M	A	A	N					N	4	3	shapes	N	1	True	135	(4.8185998524864644, -3.0638216053208565)	(-7.3907497830254307, 4.751182929768996)	(-6.3401774790172576, -8.632447119867269)	(6.6532711097870099, 7.0275442845839375)	1.0	z	1.59198
2	N	A	M	A	N	M	B	B	M	8	7	shapes	B	1	False	135	(2.801213871201135, -8.3236835065651658)	(-6.5440740078491189, -4.7867308994259385)	(0.40325542346760557, -4.2932381857845741)	(7.5562245375380215, 4.1606696536286041)	1.0	slash	1.04354
3	M	B	B	N					M	4	0	shapes	M	1	True	135	(2.0641067561829143, -8.3599252292862207)	(-2.7927049307480525, 0.92983859593863194)	(8.3573958030763826, 3.1592676774547268)	(-2.4976296980901092, -7.0851967967789138)	1.0	z	0.609325
4	M	A	A	B					M	4	0	shapes	M	1	True	135	(-0.93592045115928801, 5.6195215557349574)	(4.7224469278374048, -0.27009820448964206)	(3.4595991894920868, 8.0201794645965556)	(-4.7629263431291227, -5.7243876638988933)	1.0	slash	1.07298
5	N	B	A	A	N	M	M	B	M	8	6	shapes	M	1	True	135	(-3.4811947766958706, 1.9704647884236781)	(5.5848008389707573, -0.48998198529988635)	(-2.3760045303061945, -5.4752716466631313)	(0.86018609011439473, -2.8295510948111531)	1.0	z	1.94653
6	M	A	A	M					N	4	1	shapes	A	1	False	135	(7.3031019169895117, 4.1512925944508474)	(6.12066232469925, -4.5398738082908308)	(-8.1803937214099935, 3.8725471259871025)	(-0.20128900667012672, -4.0470367689103002)	1.0	slash	0.680354
7	N	B	N	M	A	A	B	M	M	8	0	shapes	N	1	False	135	(1.5818877485833696, -7.3018235485817273)	(3.6357684889317738, 7.8022111181422957)	(-1.7190116561917543, 2.547911384313581)	(-5.9291102015156003, -0.71113780161276985)	1.0	slash	1.07173
8	N	B	B	A	M	N	A	M	B	8	6	shapes	A	1	False	135	(-0.35987413907846211, -0.95565694763554188)	(5.2940731105502348, -3.3682935469201105)	(-6.7931090202091209, -7.6329145094330393)	(-0.35556284935292837, 4.3982910783772304)	1.0	slash	2.19134
9	M	B	M	B	N	N	A	A	B	8	1	shapes	B	1	True	135	(1.6991619051691806, -5.9324378680824843)	(-5.3199594610334531, -2.108553676329664)	(-1.7499388471591022, 7.003622702285103)	(-7.5925235992469595, 7.295284518397505)	1.0	slash	1.24479
10	N	B	N	A	B	M	M	A	A	8	0	shapes	N	1	False	135	(7.4504003769331923, 5.8973117384296199)	(-2.9926211297148644, -2.0903339159976744)	(-1.1795261151932799, 5.2635906286566421)	(-8.5433590474364092, -6.2678244573884632)	1.0	slash	1.72846
11	N	A	N	A					A	4	3	shapes	A	1	True	135	(-4.56434064292384, 0.69488311320496976)	(1.6854534024913477, 2.4624728051494476)	(-1.4363083200273756, -6.1644351137268618)	(5.3206703618349618, -6.9065359116158955)	1.0	z	1.07948
12	N	B	M	N					N	4	3	shapes	N	1	True	135	(5.0234391913657674, 6.6248769294287335)	(-7.5516240234744405, -0.23601330418092914)	(5.8242464187638827, -0.83092187708949172)	(-2.1366164533296299, 2.9258736830222389)	1.0	z	2.10573
13	N	B	M	M	B	N	A	A	M	8	3	shapes	M	1	True	135	(-6.0386597495328935, -8.6451577646475908)	(-0.90101277448257822, -2.289283772712845)	(3.9538583671061929, -3.5578909166756105)	(5.9940786207735854, 7.868741061813882)	1.0	z	1.64128
14	M	B	A	B					M	4	3	shapes	B	1	False	135	(5.9068137338326849, 0.99082616721953087)	(-1.963013440079215, 0.19131401787866764)	(-7.4483111414883965, -2.3664052333296359)	(3.2577092453371872, -8.5487428800103711)	1.0	slash	0.794541
15	M	A	N	M	A	B	N	B	A	8	2	shapes	N	1	False	135	(6.2158358806383234, -0.33184082386784475)	(-5.3148966602752354, 3.7489477402969982)	(6.9219034791030225, 7.3714485172035786)	(4.2525765144343985, -3.9867510929298922)	1.0	slash	1.36045
16	M	B	B	A					A	4	0	shapes	M	1	False	135	(-7.5208244016638339, -4.2089262943234313)	(3.1902488740990531, -5.9570021071177077)	(4.9791255708369349, 3.3266119378395675)	(-6.4207472920780138, 5.2948885666797469)	1.0	slash	1.39208
17	N	A	B	M					A	4	2	shapes	B	1	False	135	(-5.7618182142567669, -6.0840186945075772)	(6.8419153900820575, -6.4209964029690418)	(-0.90957086165639289, 5.8802059207997619)	(4.25293821773632, 6.1243718811527685)	1.0	z	1.88378
18	M	A	A	M					B	4	0	shapes	M	1	False	135	(4.3941823375250291, 8.6523582002522126)	(8.6170903891389088, -5.2172236200523194)	(-4.9030044394333956, -1.7727928576785938)	(-5.2423869448507672, 3.775949011679991)	1.0	slash	1.32321
19	N	A	N	B	M	M	A	B	M	8	5	shapes	M	1	True	135	(3.2515456643496385, 5.8898607045926212)	(6.5116002375006055, -4.162559935954576)	(0.60026639264853365, -3.8296744997790553)	(-6.1202453243196571, 1.6907772619135066)	1.0	slash	2.15894
20	M	A	N	M	A	N	B	B	A	8	3	shapes	M	1	False	135	(-3.4092099201483625, -4.8411541091826056)	(3.1471255891485974, 5.654940648460121)	(8.4670096763680434, -7.6860241728146184)	(-3.7613321664791064, 4.9911286753951991)	1.0	z	1.03639
21	N	B	N	A	B	A	M	M	B	8	4	shapes	B	1	True	135	(6.4147224600084538, 2.7415911579990055)	(-2.5885162410253448, 1.9904806502571493)	(2.1259625663288357, 4.8724342461148638)	(-5.6816963775216021, 7.7700557340212093)	1.0	slash	1.76208
22	N	B	A	M	B	M	A	N	A	8	6	shapes	A	1	True	135	(-3.262336459263067, 5.3342337867449601)	(8.2296912311828656, 3.5658723893152704)	(7.6075514897424057, -5.0298495978378845)	(1.667726096247776, -0.61322428218672087)	1.0	z	1.05361
23	N	A	A	M					A	4	0	shapes	N	1	False	135	(1.5918262468398474, 6.2563782553336029)	(4.4756269935307191, -7.8094383531711316)	(-1.4698528606133987, -4.3745040598437672)	(-7.0222076517904295, 8.5280146833813646)	1.0	slash	1.06939
24	M	B	N	M	B	N	A	A	M	8	4	shapes	B	1	False	135	(-5.4306888216085056, -6.2290361109376757)	(7.6620627708976201, -5.715795033429691)	(-4.0271839103409217, -1.3187807096462949)	(1.5015323531260663, -0.13674595706519632)	1.0	slash	0.821058
25	N	B	A	A					M	4	3	shapes	A	1	False	135	(-7.5204927521978604, -8.2309458843086212)	(6.0370873827373046, 5.4128016624512103)	(-0.065560099097645264, 0.19037507869937365)	(2.4744032169118935, -6.6052345182056484)	1.0	slash	1.0807
26	M	B	N	N					B	4	0	shapes	M	1	False	135	(-2.8257025839136904, -6.7311317771509946)	(4.8510215078927796, -2.9278768968154703)	(-0.24511227660443957, 6.8794473967430712)	(4.1539967017229316, 7.2846172899103578)	1.0	slash	0.674151
27	N	B	N	A	B	A	M	M	B	8	1	shapes	B	1	True	135	(6.6673530434086654, 5.8709663422115987)	(3.9218215044110938, -4.9826213347880621)	(-2.9510762370739423, -0.10699642215958427)	(-0.047981595002339006, 8.5463275426978136)	1.0	z	1.06399
28	M	B	N	N	M	B	A	A	M	8	0	shapes	M	1	True	135	(1.6324680165787289, -4.2106431261368122)	(-0.017714533278875066, 4.2966930833372796)	(-4.8814347067444714, -8.0194347594552244)	(-7.2709291556797515, 1.0981852638961236)	1.0	z	1.13966
29	N	A	M	M					A	4	1	shapes	A	1	True	135	(0.031848519334110037, 4.8145353404327391)	(0.60514315869147239, -7.2807248443330321)	(-5.6335080355695508, -5.4856720138269646)	(-7.9816412687302858, 0.12920762967515032)	1.0	slash	1.039
30	N	A	B	M					N	4	0	shapes	N	1	True	135	(-7.1345504011858818, 8.1197530940674874)	(-2.3177936665265975, -2.1869161490415241)	(7.7580675292711092, 3.2329389299668669)	(6.3075065566921307, -1.405744926016796)	1.0	z	1.16998
31	N	A	B	M					B	4	2	shapes	B	1	True	135	(7.5291312909847363, 4.3007385897109938)	(-7.5187453914895013, 3.5891083048733421)	(1.689605860954595, -7.7818344006806326)	(-8.7197935441171026, -8.0372484786609064)	1.0	z	1.39443
32	N	A	B	B	N	A	M	M	A	8	7	shapes	M	1	False	135	(-5.7234436605935279, -0.69079452898181337)	(1.1467766760923137, -7.4658261581463163)	(2.6389659907486021, 0.92186691829803458)	(8.0884281286544528, -2.8518697779548656)	1.0	z	1.58406
1	M	A	A	N					A	4	2	shapes	A	2	True	135	(1.1396713023362306, 3.2696637763860643)	(7.7348429843425528, -4.3819432618968452)	(-4.8241741602842927, 3.7429101844893555)	(-8.4632913742931066, -3.2509532707335298)	1.0	z	1.27754
2	N	B	A	B					B	4	1	shapes	B	2	True	135	(-3.6958455823913452, 5.7619740339888068)	(4.9876556674807659, 3.615746087844526)	(1.5289210530852113, -6.9723791398076598)	(-7.9402288309832256, -5.8907772473391375)	1.0	z	0.934853
3	M	B	B	M	A	N	A	N	N	8	2	shapes	B	2	False	135	(-4.1639315333609712, 7.0936782301354313)	(-8.6535529250816801, -4.7866474539944734)	(1.385042017796497, -4.7709121636021399)	(2.8122637661752901, 5.7185354820795329)	1.0	slash	1.32883
4	M	A	B	A					B	4	0	shapes	M	2	False	135	(-6.8217493868713319, -0.65233809192150716)	(0.9586423698301374, 3.6891454751418209)	(-3.7091028604239558, 8.2678954622026453)	(6.8166482909893702, -0.66794194321390421)	1.0	slash	1.28045
5	M	B	N	N	A	M	A	B	M	8	3	shapes	N	2	False	135	(3.6777098801531345, -1.8422475752528173)	(-8.2375543260094286, 8.0064100058472647)	(5.0870603750428547, -8.1185274256881197)	(-5.8328039910783538, -6.3047096102451539)	1.0	z	1.09405
6	M	A	A	B	N	N	M	B	N	8	5	shapes	N	2	True	135	(-2.7712286738878769, 5.0181985148046628)	(4.5501598262719405, -3.6637832226166545)	(-6.2828596118776563, -6.335296309512672)	(0.68543254421127386, -6.2089535190137237)	1.0	slash	1.21759
7	N	B	N	M					N	4	1	shapes	B	2	False	135	(7.9668434776313255, 7.7870467020326899)	(7.5985475649627396, -8.4021988447883302)	(-8.1158715824923835, -8.392027401110381)	(-4.6104927035581582, 8.421345052842053)	1.0	slash	1.36126
8	M	B	N	M					M	4	0	shapes	M	2	True	135	(6.3626472674840269, -0.64911913889398676)	(-7.0316132746159958, 2.7645601814892977)	(-1.1818416870574859, -0.58372103879118775)	(3.041757255140876, 2.0307992140195452)	1.0	z	0.770934
9	M	A	A	M	N	B	B	N	N	8	6	shapes	B	2	False	135	(6.7304531752633974, 8.2466172371705433)	(5.814357089447773, -3.5703356795611336)	(1.0444153571960353, -4.9110364646863633)	(-4.4104113971332994, -8.6023793637143964)	1.0	slash	1.26842
10	N	A	A	B					A	4	0	shapes	N	2	False	135	(-0.2953768062056028, -1.6008328387818338)	(-7.3678318741458977, 3.7991224931009224)	(0.064924156457472293, 5.6296867109345321)	(6.9778462841084767, -5.4308825293592013)	1.0	slash	1.08411
11	N	A	B	M	M	N	B	A	M	8	4	shapes	M	2	True	135	(-2.3372795554546988, -5.1222752946634955)	(0.46706697492699867, 1.7806213581023886)	(4.9740499115601189, 5.7560242764408009)	(7.4412596857520441, -3.9107228990523284)	1.0	z	0.838134
12	M	B	A	N	M	A	B	N	A	8	7	shapes	N	2	False	135	(-8.7004264305901167, 0.94051997489165373)	(7.7948125746076258, 5.9266223737427612)	(-2.7754822810421924, -1.0206382603957165)	(6.6241029733139758, 0.24516611672653887)	1.0	slash	0.787478
13	M	A	M	A					M	4	0	shapes	M	2	True	135	(-4.7920413014384824, 7.0362389469328566)	(1.6562088542719984, -5.1586948428103199)	(0.71848946620332477, 1.2782622376233466)	(-4.7435255415504214, -5.3236719698384096)	1.0	slash	1.06315
14	N	B	A	B					M	4	0	shapes	N	2	False	135	(1.2212609683200384, -6.4242575865242486)	(4.7338226812638116, 7.6455982670248055)	(-1.9815787024675364, -1.0007552454039539)	(-0.54428687236244677, 8.2621487783851819)	1.0	slash	1.18077
15	M	B	M	A	B	N	N	A	M	8	2	shapes	M	2	True	135	(-3.9329254129638951, 6.4144587541787335)	(4.264685054068778, -6.6427406767086321)	(8.0542829852828319, 6.114836441373992)	(1.2696408620822819, -0.56250385304430139)	1.0	z	2.2923
16	M	B	N	A	A	M	N	B	N	8	2	shapes	N	2	True	135	(-5.4462042742824153, -0.68380800696117383)	(-2.8702909380752537, -4.2072594426313596)	(1.1526552763882236, 6.3730575531019724)	(-8.0794930515764314, 6.8346455060483624)	1.0	slash	1.87184
17	M	B	A	M					B	4	1	shapes	B	2	True	135	(5.0332008628435503, -4.9000446058041991)	(4.3568933384107158, 4.0767162095314813)	(-5.9606138212656035, -6.7252886425271781)	(-5.1933227172263976, 1.5170838473089265)	1.0	z	1.53147
18	M	B	M	B	A	N	A	N	B	8	3	shapes	B	2	True	135	(0.59584181645486289, -1.2020632145154257)	(-6.6778936112864775, 4.1613488305517912)	(0.052803331372620832, 3.829758702897756)	(7.9167116366324848, -7.5682190918705929)	1.0	z	2.25301
19	M	B	A	N	B	A	M	N	A	8	2	shapes	A	2	True	135	(-7.1293507713894817, -4.8548475531646433)	(-3.4083469183144803, 8.0931275276746071)	(6.1297646774496943, -7.8638941956197757)	(-8.5555517598545929, 3.5588455331390847)	1.0	z	1.02272
20	M	B	N	N					A	4	1	shapes	B	2	False	135	(-3.6619021579367903, 7.2553659619309343)	(1.8861139087658252, 4.8534268467851369)	(-1.8343663717081533, -7.5875388738801579)	(2.8031996121805545, -4.0300185503836614)	1.0	slash	1.03625
21	M	A	B	A	N	N	M	B	A	8	5	shapes	N	2	False	135	(4.1457870937349046, 3.003201719016813)	(-3.7544465087753913, -8.0324173739729421)	(8.2141098857557218, -1.9961113016285923)	(-5.4079244849713035, -1.032173249559257)	1.0	z	1.48202
22	N	A	B	A	N	M	B	M	N	8	5	shapes	M	2	False	135	(-5.0901601142556316, -3.2963754834309951)	(-0.11210478414381519, 2.7451169280985148)	(2.1916689932557389, -5.5746700939210667)	(-7.2486480450684176, 2.9303766096691231)	1.0	slash	1.14176
23	N	A	N	A	M	B	M	B	M	8	5	shapes	B	2	False	135	(-4.9813890073237115, -6.9927647058317488)	(3.6117714679018622, 3.1206539526670802)	(0.87604485250323982, 6.2197171055430935)	(0.51941908414806548, -7.2557778327307991)	1.0	z	1.34897
24	N	B	M	A	N	B	A	M	A	8	6	shapes	A	2	True	135	(0.010855692117898386, -0.80958064785268391)	(1.4924772668018793, 5.5445790779914788)	(-4.7164966177437577, -0.064319083093455021)	(-0.73686659337892912, -5.3147177619073833)	1.0	z	1.25037
25	N	B	N	A	M	A	M	B	A	8	6	shapes	M	2	False	135	(-7.0563127202281528, -3.7495126751148282)	(7.6985264850287294, 7.1149135595565234)	(7.1169031425345466, -1.0110896474086291)	(-2.9666473968626192, -4.8706818192390084)	1.0	z	1.63629
26	M	B	M	B	N	N	A	A	N	8	4	shapes	N	2	True	135	(7.3402162222099463, 7.4827610960850386)	(-0.76383069002755732, -1.8668177346451129)	(-1.6989462222791518, 7.5177311674289555)	(-7.7713615099820643, 7.2454211777547641)	1.0	slash	1.17583
27	N	A	M	M					A	4	2	shapes	M	2	False	135	(-1.2878833177608877, -5.3615777092534493)	(2.6584184422459902, -3.5006378715863304)	(0.82557864271569237, 5.6101789049802928)	(-6.5580523747514894, 0.86083436010906844)	1.0	slash	1.31746
28	N	B	N	B					N	4	2	shapes	N	2	True	135	(1.1219854111043155, -2.6683283148496635)	(-3.5474272642056777, 2.1712025299576467)	(1.7073439678856364, 1.6133990449307287)	(-5.7672803907403267, -2.3806340388371652)	1.0	z	1.04096
29	M	B	A	M					A	4	2	shapes	A	2	True	135	(-6.1492131491800421, -0.29631824987247946)	(-5.3814706044020983, 7.6399374204310604)	(5.2330544585971772, -5.7163287721027967)	(1.1230690528565646, 0.98928229392939215)	1.0	z	1.06675
30	N	B	M	A					B	4	1	shapes	B	2	True	135	(-2.2635797053409137, -4.7678920490656562)	(7.4255927703070874, -1.6190374308544433)	(-6.7145039284202959, 1.4990037597528136)	(4.4287606601156053, 7.1638519699170011)	1.0	slash	1.31028
31	N	B	N	M					B	4	3	shapes	M	2	False	135	(2.7406659747936519, 1.4517000529529902)	(-6.9140284564784107, -0.3274451822804636)	(-1.0945975753918304, 4.1866909109382693)	(0.9788968443420405, -2.2883945082686967)	1.0	slash	1.04197
32	N	A	B	A					N	4	1	shapes	A	2	False	135	(-8.0250207593815901, 5.0107032756333325)	(5.3401557836217481, -3.051741981029223)	(-7.0941127881096895, -3.11555456863878)	(1.4705658506657304, 0.97661391341365267)	1.0	slash	0.995543
1	M	A	M	A					N	4	0	shapes	M	3	False	135	(-1.7791320604801149, 1.4383611199284214)	(-5.3893056900361138, -7.2929987626589012)	(8.6132912900293164, 1.9634719653502568)	(7.6938463550476577, -5.0203665004557791)	1.0	slash	1.88125
2	N	A	B	B					M	4	2	shapes	B	3	False	135	(7.1030192859968722, -6.7455028022760084)	(-2.1927473626520229, 5.127648228947157)	(-3.7270352081614382, -2.2835558520262635)	(2.862393370304245, 0.042614588305426082)	1.0	slash	0.786798
3	M	A	B	A					A	4	3	shapes	A	3	True	135	(6.0005642520360247, -1.6837344391721967)	(3.2299242560626151, 5.7441545457699057)	(-7.3820137732121331, 3.9447778552680752)	(-2.4303548152075409, -1.8361939556726234)	1.0	z	2.35259
4	N	A	M	B					M	4	2	shapes	M	3	True	135	(3.0950405096801674, -1.3049530585763183)	(-0.70071838778873818, 7.70495885561796)	(5.3544698160597974, 2.1140458113845302)	(-1.4083783120016173, -6.4916182288925963)	1.0	z	1.81999
5	M	A	A	N					A	4	1	shapes	A	3	True	135	(-3.9719347217363419, -7.6782045958154672)	(7.6016440896010238, 4.957819031090871)	(-6.4305060355498078, 4.723465741152836)	(7.8639750124243726, -3.5568902498669184)	1.0	z	0.625435
6	N	B	N	B					M	4	2	shapes	N	3	False	135	(-5.3632928334276722, -4.5903972608368555)	(7.4517575007248666, -3.7542060191325497)	(-2.0899916283195541, 7.8178133881953293)	(7.06571184502039, 6.1792645471376559)	1.0	slash	1.70459
7	N	B	A	M	A	B	M	N	B	8	5	shapes	B	3	True	135	(-7.6967696063217916, -7.4778801274892608)	(-3.0953395922792044, 8.0169776552804493)	(0.39266286671044703, -4.5608534725317762)	(0.76425573101384181, 0.58655792732700363)	1.0	slash	2.54092
8	N	A	N	A	M	M	B	B	M	8	5	shapes	M	3	True	135	(6.6800002376608365, -1.656641616565393)	(3.3437630807101506, -8.1883849732628153)	(-5.4275259014523884, -6.0982863976072821)	(7.7734126143097342, 5.5057548028560142)	1.0	z	1.44416
9	M	B	A	N					B	4	1	shapes	B	3	True	135	(-4.5985223148665861, -2.7664024400074734)	(2.2439080696222664, -8.3452101278940845)	(5.2440890642275502, 0.099423632539831885)	(-6.7999466929648804, 7.1373515152164071)	1.0	z	1.01403
10	N	B	A	N	M	B	A	M	B	8	5	shapes	B	3	True	135	(-5.3092437000596728, -6.4758170368787633)	(2.7406410298237915, -0.19025778380268754)	(-1.5862833151931666, 0.64934620944928945)	(1.4074608299751699, -5.4255345786417593)	1.0	z	1.50167
11	M	B	N	A					M	4	3	shapes	A	3	False	135	(8.0637566277464359, -5.1092748881043661)	(-1.4693419261503937, -2.2828347189767042)	(-3.1392371954085876, 5.1770234177631842)	(2.6352174563013904, 1.3654424442527979)	1.0	slash	1.2588
12	N	B	B	N	M	M	A	A	M	8	7	shapes	A	3	False	135	(1.4501226310927589, -1.1325520799952589)	(-7.3416704713730407, 6.5311948939255942)	(5.7455612876257103, 4.4874288570679184)	(5.0408951431241693, -3.4994126174155102)	1.0	z	1.22089
13	M	A	N	M	A	B	B	N	N	8	2	shapes	N	3	True	135	(0.73928062085457036, -1.8422628078341345)	(4.6735551321283069, -6.4797016597314911)	(-6.9255019165802096, -2.1492465278242685)	(-6.007575055034982, 6.689866363781185)	1.0	z	1.46027
14	M	B	B	N					N	4	3	shapes	N	3	True	135	(-4.6445405049793225, -2.8778661972526622)	(0.30251380008876616, -5.7226560037783845)	(2.6823260468339338, 1.0438448258187805)	(-1.6073222590652563, 6.3777441502080521)	1.0	slash	1.02602
15	N	B	B	A	A	N	M	M	N	8	5	shapes	N	3	True	135	(-3.9875041250526122, 0.29524716334092638)	(-1.7455050018474951, 4.8469506112581708)	(-0.096931975650567992, -1.7742454559357812)	(7.5817922497603369, -7.58360676614938)	1.0	z	0.911669
16	N	B	M	M					B	4	2	shapes	M	3	False	135	(4.4771761433193209, 3.0096335435362231)	(1.0427932873137884, -7.7975252540232045)	(-6.0923303198244314, 8.5972171214658815)	(-7.4690779949346275, -8.5380298176273861)	1.0	slash	1.2353
17	N	A	M	A	N	B	M	B	M	8	5	shapes	B	3	False	135	(2.8467722033361635, -4.5155142788240088)	(4.5937189594114631, 0.43098667236061239)	(-4.0695383829394469, -7.7239417004819479)	(-0.52136774221404458, 1.4560606556686402)	1.0	z	1.29692
18	M	B	B	N					M	4	3	shapes	N	3	False	135	(8.4627610220410006, -2.1107402708500285)	(-7.512410080040496, -0.93910698481427612)	(-5.6809297808327166, 5.4997971441891735)	(5.3000030337708122, 3.7240664451910952)	1.0	slash	2.02427
19	N	B	A	N	B	M	M	A	B	8	1	shapes	B	3	True	135	(4.6676937442917819, 4.4132655333565065)	(-7.7203716111158656, 0.49280753845677872)	(-3.3914275096051432, -3.7978859481899594)	(6.7482344517607622, 0.83564048350302578)	1.0	slash	1.72026
20	N	A	A	B					N	4	0	shapes	N	3	True	135	(3.3826162184033173, 2.1829206008462947)	(-7.8645103535901413, 3.6465077521813534)	(6.249449218880299, -6.5071883570955702)	(-4.9496525453965541, -4.664243899181308)	1.0	z	0.841739
21	N	B	N	B	M	M	A	A	A	8	5	shapes	M	3	False	135	(-1.3523925760753386, -1.8486479726447103)	(-5.519148271119354, 5.1430591066232925)	(6.0123236984213193, 2.9736998133225114)	(-2.985430410275062, -5.5244867987200745)	1.0	z	2.89142
22	N	B	B	N	M	A	A	M	B	8	6	shapes	A	3	False	135	(-6.8971160807419309, -7.3302675522384337)	(8.7093168029628423, -6.8719491662853338)	(0.97484303333194688, 5.3849717761715183)	(-4.2522762738785502, 0.67188628782082915)	1.0	slash	1.68436
23	N	A	M	A	M	B	B	N	N	8	4	shapes	M	3	False	135	(-2.5984479081012219, -0.47603208151990373)	(-4.9702498332909073, 3.7092211042942651)	(2.1725074771129638, 6.83547392542655)	(8.3712798807269628, -8.5286345271846677)	1.0	slash	2.3224
24	M	B	M	A					A	4	3	shapes	A	3	True	135	(4.6550139500875876, 5.1346463269673599)	(7.2204601713809531, -4.9033385501691864)	(-1.0760213060034065, -3.1795366893543884)	(-6.3619562787220234, 6.7923235168966194)	1.0	z	1.1879
25	N	B	B	A	M	N	A	M	B	8	3	shapes	A	3	False	135	(-1.1746856715049478, -1.6123077749669239)	(-6.4060791191978552, 0.76977588364273686)	(6.6645972822080637, -1.0631932836582489)	(-7.281340794737738, -3.4753823524014935)	1.0	slash	0.959539
26	M	A	N	M	B	A	N	B	M	8	6	shapes	N	3	False	135	(6.729848963797906, -1.146767991333852)	(5.8743217047910665, 6.5704178742796149)	(1.0931916923701515, 2.0048221169065119)	(-2.8789572761253108, 4.5619439464348801)	1.0	slash	1.26124
27	M	B	A	N	N	B	M	A	B	8	5	shapes	B	3	True	135	(-2.9302729983356528, -2.494759841191633)	(4.9770766614761452, 7.9017420424264628)	(1.5290188435750149, 0.12165893824350249)	(-2.5020846132034391, 2.0300428629553089)	1.0	z	0.879591
28	N	A	B	M					B	4	3	shapes	M	3	False	135	(-7.2507394937931213, 7.9792943437214774)	(1.8898769321492797, 7.1580097311385913)	(3.0406762603409145, -5.4711888640801751)	(-2.5361504351776567, -5.7465659884913158)	1.0	slash	1.31857
29	M	A	M	A					A	4	1	shapes	A	3	True	135	(5.1717720654617096, 6.9662051651001367)	(2.100889233520185, -1.6853946338995272)	(-2.8971603301976794, -8.7335512651191038)	(-3.1248554568470626, 3.0689029473889899)	1.0	z	0.632041
30	M	A	B	N	M	N	B	A	A	8	7	shapes	A	3	True	135	(8.6444499148864047, -4.8142309184922105)	(-2.5840861160283071, 7.413782870704047)	(-5.0605645618002022, -0.19562593180209298)	(5.8585353614752478, -7.8482217583636418)	1.0	z	1.06971
31	N	B	A	M	B	N	M	A	N	8	4	shapes	B	3	False	135	(0.27428823141149117, -0.59209737857915812)	(-1.2413132474259907, 3.5925392617713712)	(5.0155777077258659, -2.2608382886685909)	(-6.5665229100973859, -2.870724383786011)	1.0	slash	0.875394
32	N	B	B	A					M	4	2	shapes	B	3	False	135	(0.69316656359975859, -2.7440005764391078)	(5.0445523584727461, 4.4978750207089924)	(-8.487015593294668, -0.21760820194727692)	(-3.8581019731601378, 6.5196798818825208)	1.0	slash	1.75916
1	N	A	A	N	M	M	B	B	A	8	7	shapes	B	4	False	135	(3.43250286371957, 5.2381006282599962)	(-5.7829324861684661, -3.3477008196857074)	(4.6497420488538399, -2.5668535511079682)	(-0.58524248219682029, -3.1116726076844161)	1.0	z	0.820844
2	N	A	A	N	M	M	B	B	A	8	2	shapes	A	4	True	135	(-3.1484275768522814, -0.65982207954806782)	(7.1779814446952468, 4.0547545346118437)	(-2.6839361054402335, 8.6888429019294975)	(-7.8953550756890722, 4.2384943994264113)	1.0	slash	0.916173
3	M	B	M	N	N	B	A	A	B	8	2	shapes	M	4	False	135	(-6.1803776885506858, -0.51784137723060297)	(0.99016289389940759, -1.3043071393414811)	(8.2331881518804444, -3.9407329058589431)	(-7.9153497458073758, 5.205336151636045)	1.0	slash	1.1139
4	N	B	N	M	B	A	M	A	B	8	4	shapes	B	4	True	135	(-8.4199310325384236, -3.76212345914682)	(6.5748597319387212, 5.1407171142636638)	(4.4443996074477781, -2.5954117206027645)	(-5.5744728607410732, -0.92015091385636438)	1.0	z	1.63983
5	N	A	A	N					N	4	1	shapes	A	4	False	135	(-6.6541933751993021, 1.7358109912857884)	(4.842652561953269, -5.0736984937967593)	(-2.3872581489594751, -4.2884794836902049)	(6.0968010075265013, 6.4364789044438684)	1.0	slash	1.15318
6	M	A	N	N	M	B	B	A	B	8	7	shapes	A	4	False	135	(5.9905522469201475, -3.9988175211891814)	(0.81720995434350208, 8.6041269958445525)	(3.9127266234898119, 4.4138572185205369)	(-5.2223819104893296, -7.868637758306595)	1.0	slash	1.19875
7	N	A	N	B	A	M	M	B	M	8	2	shapes	N	4	False	135	(-1.689012616150591, -1.0318074989461783)	(-5.0425269210942645, -6.9532183649186425)	(4.446435231239704, -0.97763546527588563)	(-7.6036259249554616, 3.1112657554685175)	1.0	slash	1.10021
8	N	A	A	M	M	N	B	B	B	8	6	shapes	B	4	True	135	(-1.4563455795807645, 6.0157409690034154)	(-6.8829472267892129, -0.10172916455909586)	(-2.1501389040504479, -7.5310910996771305)	(8.060081775758082, -0.60631403629591851)	1.0	slash	2.9415
9	M	B	M	N					M	4	2	shapes	M	4	True	135	(-7.3518419997228222, -7.5839519001926856)	(-4.5154903507904107, 4.8031184148462724)	(5.1577389223305339, 3.5034680675086296)	(8.245197071780737, -6.8433132610295395)	1.0	z	0.851549
10	N	B	B	A	A	M	N	M	M	8	7	shapes	M	4	True	135	(2.6299685752425077, -8.7031590860954555)	(-5.253123981259046, 4.8622892742543105)	(3.4089302406463666, 0.91832949106920125)	(-3.0788531208423464, -5.9903829615684963)	1.0	z	1.5652
11	N	A	M	N	B	B	M	A	M	8	2	shapes	M	4	True	135	(-0.99832226194981821, -0.70180606489317832)	(-3.5921138203346388, -8.2611832880337417)	(-5.8680827144145153, 2.8663864051487806)	(4.100686617156768, -4.4596659397181737)	1.0	z	0.976805
12	N	B	N	A					N	4	3	shapes	A	4	False	135	(1.8052399979975995, -6.9385985695760217)	(8.0477980765247423, 7.7650140870659747)	(-3.4306561171580388, -0.94387277219619392)	(-3.1268646132945648, 8.2417301938958296)	1.0	slash	0.898432
13	N	A	M	B	M	A	N	B	M	8	3	shapes	B	4	False	135	(-3.6239687606786877, -1.6042699454128266)	(6.1274372659065151, 1.0238924808763752)	(-7.683791657184015, 0.25553696070171661)	(3.162862950954068, -3.1806165705301446)	1.0	slash	2.17998
14	N	A	M	A					M	4	0	shapes	N	4	False	135	(3.0209326068084117, 3.9736112887956629)	(-0.019140317468467671, -2.5651526486121057)	(4.1214185511064816, -1.3492326939777479)	(-5.4322727276139258, 6.4825364611343765)	1.0	slash	2.12185
15	N	A	N	A	B	M	M	B	A	8	3	shapes	A	4	True	135	(-3.9762906019301871, -6.7729289675504489)	(-4.8268495966416669, 1.7083283536928864)	(-0.41064145163713484, 1.1865175820696354)	(7.290430430888577, -4.942250681690596)	1.0	z	1.20516
16	N	B	M	B					M	4	2	shapes	M	4	True	135	(3.5728498228937902, -0.49471924543859203)	(2.3391136245650497, 3.937125958413068)	(-3.3265435337808462, 4.6850461331708892)	(-6.9914905426664902, -7.1735771225462814)	1.0	z	1.74083
17	M	A	N	N					A	4	1	shapes	A	4	True	135	(2.7205588767635778, 0.65403834882130596)	(-6.0419530922076969, 8.3603312467868243)	(2.1527672257153601, -7.8879902216364934)	(-6.9285508050942752, -5.9202426595620521)	1.0	z	1.16034
18	N	A	N	A					N	4	0	shapes	N	4	True	135	(7.3144877270220547, 3.538865942847206)	(-5.1964965837781385, 0.82613199317892239)	(5.308591410413861, -0.24116720881772302)	(-3.3191774678987329, -3.9471786643552074)	1.0	z	0.797932
19	N	B	B	N					N	4	0	shapes	N	4	True	135	(-3.705612944610877, 6.3211619368969174)	(-4.1489382502924013, -0.14832069004363824)	(4.1500082374234015, -6.5007768829589532)	(4.7841723143892274, 2.0890325533444649)	1.0	z	0.717596
20	N	B	B	N	A	M	A	M	B	8	6	shapes	A	4	False	135	(-6.5294667093693981, -3.6242485217063978)	(-0.039743687115031179, 5.331751225259703)	(5.9937712925205506, -3.2537319892019774)	(-3.6626738708226565, 1.8544398003295761)	1.0	slash	1.0672
21	N	B	A	B					A	4	0	shapes	N	4	False	135	(-5.8943658649272352, 4.8127003663464016)	(0.80338755670955919, -2.7503677897113477)	(4.8963524790847774, 7.8310555076096122)	(-3.3181801598994518, -3.9675948922026603)	1.0	slash	1.08084
22	N	B	B	M	N	A	M	A	M	8	1	shapes	B	4	False	135	(2.6315424532753156, -0.59400153575932535)	(7.6854794726586277, 7.6347723634520648)	(-4.8708388660982376, 5.699267091397477)	(3.4374481276893878, 7.1630700359855144)	1.0	slash	0.938616
23	M	A	M	A					A	4	1	shapes	A	4	True	135	(-6.7160445716548303, -6.3727274135077501)	(2.241649912283961, 7.5097369187123597)	(2.2425582257142036, -3.7279289042661512)	(-6.5983969728838243, 6.0120739853374108)	1.0	z	1.11611
24	M	A	N	A	M	N	B	B	B	8	6	shapes	B	4	True	135	(8.7009174578640227, 0.72134867638438394)	(0.40647893643746436, -7.7229191146374934)	(4.2720935857140674, 4.0239637300753408)	(-5.3535310644428939, 6.8163536112811638)	1.0	slash	1.99973
25	N	B	B	A					M	4	2	shapes	B	4	False	135	(-3.0486787626236129, -4.8341401174752807)	(-7.2787713142188446, 0.26163281765426838)	(7.8596110278341236, -2.3622877667761752)	(3.141142129643292, 4.9433527641768968)	1.0	slash	1.30521
26	M	B	B	A					A	4	0	shapes	M	4	False	135	(0.51530852846763509, 0.79732451367273249)	(6.5877529671439934, -0.34104071522476609)	(-4.2046112348749736, -7.4752596168421617)	(-7.4904448926130129, 0.70560361452015741)	1.0	slash	0.965073
27	M	A	M	B					M	4	1	shapes	A	4	False	135	(-6.831016980138962, 7.7699297199943409)	(6.0922587735332829, -3.0235878954448205)	(4.1433645275026532, 3.3479494316356249)	(-5.7627617319858206, -3.6250855493840008)	1.0	slash	0.854607
28	M	A	A	B	B	M	N	N	B	8	6	shapes	N	4	False	135	(-7.9218014040650289, -1.7629762177500599)	(-0.72792482474618581, 7.190606041780832)	(-8.5175087403664786, -8.1927591579766936)	(6.1750303068768684, -4.7246429760966864)	1.0	z	1.47649
29	N	A	N	B					N	4	2	shapes	N	4	True	135	(8.2445315549864198, 6.039678173067367)	(-4.5599652087504268, 5.6317330120533455)	(2.6260085192530696, -7.7739285305288437)	(-1.7180817644564366, -2.7588809929000453)	1.0	z	2.67998
30	N	A	B	B					B	4	2	shapes	B	4	True	135	(-7.2973980869743293, -6.0354947407615569)	(-3.8851379077217736, 6.142687316294122)	(3.1571140589602624, 2.0677507774407999)	(7.0184041690887522, -6.0894356843412014)	1.0	z	1.76128
31	N	A	M	N	M	A	B	B	M	8	4	shapes	M	4	True	135	(-6.2231444352977743, 3.7740862352451146)	(-1.7804171961171154, -2.0690724561638127)	(-4.3088309443863047, 8.2115074311857796)	(2.6003428266638871, 4.5603598097977098)	1.0	z	2.08298
32	N	B	M	A					A	4	2	shapes	M	4	False	135	(-7.5039010521634495, 0.38556743860396558)	(-7.88993235879704, -6.8762464195537394)	(3.2976778068573154, 1.238781223615975)	(0.083849261872392944, -3.6917685316086137)	1.0	slash	0.932627
1	N	B	N	B					N	4	0	shapes	N	5	True	135	(-0.7531358184410033, 3.2857112179111621)	(8.2183765976182706, 4.134063846816467)	(3.0121631141809626, -4.6774180252757978)	(-5.1760787189983501, -3.2991394398089895)	1.0	z	1.08215
2	M	B	A	B					B	4	2	shapes	A	5	False	135	(1.4805212532156986, 0.43234763112832653)	(-8.1139094873481827, 7.2328106492665096)	(8.616806654837017, -6.4906923693002501)	(-6.8155562047071285, -1.839304734422873)	1.0	z	1.28374
3	M	B	N	N	B	A	M	A	B	8	3	shapes	N	5	False	135	(3.2180223791750446, -4.9622717954771129)	(2.4863831275544381, 5.3739328189446276)	(2.0585684625362433, 1.0603219480374708)	(5.2962402709837288, -8.3957694147889601)	1.0	z	1.92929
4	N	A	N	M					A	4	1	shapes	A	5	True	135	(-7.3624978322344452, 7.8947680725747595)	(8.388966305987573, -4.4367295469366148)	(6.161643074678441, 3.6151472382267364)	(-6.5671555731657021, -7.0822993414089339)	1.0	z	3.79284
5	M	A	M	B	N	A	B	N	B	8	3	shapes	B	5	True	135	(-1.2397480290186191, 6.1026498158673732)	(-1.7748317365115183, -3.5128706244418719)	(8.215391095382337, -1.1090107641631528)	(-4.9194832322449455, 0.74701149782595344)	1.0	z	1.48624
6	N	A	M	A	B	B	N	M	M	8	2	shapes	M	5	True	135	(-3.0918615394460938, 2.4551160440810396)	(4.0388165199373951, 3.9221580345405531)	(-6.4298481867389832, 6.879655446260708)	(-2.6362327267004773, -3.6336701337826085)	1.0	slash	1.1218
7	M	B	B	A	A	N	M	N	M	8	6	shapes	M	5	True	135	(5.8578085706874266, -5.1485934670100271)	(-2.7305891550264505, 4.8956013144760622)	(4.6211612323429776, 1.3141855175843151)	(-7.4668443895218068, -6.1333593920339133)	1.0	slash	1.61948
8	N	B	B	N					M	4	0	shapes	N	5	False	135	(5.2550580173583405, -7.5596341113884469)	(1.0448443282986268, 7.6766219933219837)	(-2.5975221605606995, -0.14544749586106853)	(-8.7071205214511771, 1.7817077271817574)	1.0	slash	1.14492
9	N	B	A	A	B	M	N	M	N	8	1	shapes	B	5	False	135	(-7.9350468946604478, 7.4293261133084023)	(2.6058411074512637, 2.5619040945621094)	(-7.549507406208912, -8.1098096368314927)	(-6.4935353694647731, 0.88088329431137602)	1.0	slash	1.37696
10	N	B	N	M					B	4	3	shapes	M	5	False	135	(1.7070859824393541, 5.5825961946917282)	(1.7134777278054294, -1.3303718725679277)	(-5.4655248740110789, 0.8744571705519224)	(-3.8324986167270172, -6.9056229581947459)	1.0	slash	0.8404
11	N	A	N	M	B	A	M	B	B	8	6	shapes	M	5	False	135	(-4.3565049526510498, -2.8486570548438417)	(4.9106590524677891, -0.23339907790402314)	(-4.2057080980596071, 8.2815954432128791)	(-8.366830153980338, -7.734011699070714)	1.0	z	1.60192
12	M	A	B	B					A	4	1	shapes	A	5	True	135	(-4.6828143736464334, -0.299104661136532)	(-4.1429183125988995, 7.660236145075821)	(0.04683123458067584, 5.2241083166787838)	(7.7819530927875888, -7.8045061258251742)	1.0	z	1.22755
13	M	B	A	B	A	N	N	M	A	8	2	shapes	A	5	True	135	(2.1554977254831975, -8.1690669531438367)	(-7.5678871720361585, -8.1455107538343832)	(6.1806874875449935, 0.0327995180064935)	(2.6348482299653178, -3.1351462654063829)	1.0	slash	2.68951
14	M	B	N	A					B	4	2	shapes	N	5	False	135	(1.7025720302765972, 0.22519443856423926)	(-2.8397491374534507, 8.0181473996442776)	(5.2607598375195916, -7.2402002565935142)	(-2.6812359319569419, -2.0270586556824171)	1.0	slash	0.976561
15	M	A	M	A					M	4	2	shapes	M	5	True	135	(-3.6626901697976919, -3.5921768957924876)	(3.2635615447393196, -2.3133382104588769)	(-6.5813498225144231, 2.999329544034282)	(0.76274147487184507, 3.8546336420420158)	1.0	z	1.2642
16	M	B	A	B	M	A	N	N	A	8	5	shapes	A	5	True	135	(-0.49886587160965057, -3.4618710929301315)	(4.3025400200857309, 7.1912409305827278)	(6.7096033152255625, -6.0212495481099371)	(-3.2213774224137657, 2.4069153436346742)	1.0	z	0.974049
17	N	A	A	N					M	4	3	shapes	N	5	False	135	(-8.2573416533105419, 2.320828015401883)	(-3.1286618691499894, -1.7909805545831254)	(8.2705823903426285, -7.6381233367926917)	(6.4057738829447732, 6.8540465968555004)	1.0	slash	1.58958
18	N	A	M	N					A	4	1	shapes	A	5	True	135	(-8.1519186657742431, 2.2713345032198369)	(2.2468023491136133, -8.5194687228884778)	(7.0870008700536289, 3.7958537882230523)	(-3.0951305975600993, -1.9675105926687797)	1.0	z	7.45718
19	M	B	A	B					N	4	0	shapes	M	5	False	135	(2.0088200057809225, -6.824569839511506)	(-8.456756937520602, 2.2031210843083251)	(-8.0869130106652527, -3.19762023400824)	(4.7017524006034872, 5.381179142020466)	1.0	slash	1.08836
20	N	B	B	A					B	4	1	shapes	B	5	True	135	(-5.1503932497915148, -8.515594047330838)	(0.38074971369093547, 1.1329875454855234)	(3.0361317221637929, -6.2394559108795136)	(-5.9633692562156675, 2.8231144152545955)	1.0	z	2.08816
21	N	B	B	M	M	A	N	A	N	8	6	shapes	N	5	True	135	(1.4791573244421965, 3.764418759316829)	(6.2310047202743473, -6.6575238499673706)	(-8.0164967907352302, -2.8706578590210903)	(-1.4566478910644181, 6.651524631837475)	1.0	slash	1.2676
22	N	A	N	A	B	M	M	B	A	8	4	shapes	B	5	False	135	(-6.2407584546018429, -1.3747862598935443)	(5.9776797692774526, 6.5873361053533905)	(3.6469507319338419, -7.0773012475014321)	(8.5793364857261096, -7.398476730843516)	1.0	slash	1.22913
23	M	B	A	B					B	4	1	shapes	B	5	True	135	(-5.7708084432218989, -2.4453612264698457)	(5.4333924260408928, -4.6428377262745784)	(5.1245002431438387, 1.4648822207758894)	(-5.2615737066994779, 6.3791059521324218)	1.0	z	0.942965
24	M	A	A	N	B	B	M	N	N	8	7	shapes	N	5	True	135	(-0.74763046545738376, 3.2697892809267408)	(8.5955619462700028, -1.227708459648432)	(1.9911920717383236, -5.6768830075633954)	(4.4055135168476767, 6.6312701174880164)	1.0	z	2.34643
25	M	A	N	M	A	B	N	B	N	8	4	shapes	A	5	False	135	(8.1685910707339424, -8.7188809509677174)	(2.884887417410166, -4.8203143178490517)	(-3.2804183700371956, -0.17564259053284914)	(1.6588469346595431, 4.0569051619133436)	1.0	slash	1.00197
26	M	A	B	A	N	B	N	M	M	8	2	shapes	B	5	False	135	(-5.4405337252063228, 6.8186373165322998)	(-0.62001764853254038, 7.5234234342485884)	(-3.6699067350662542, -5.109132184548181)	(5.3138795250393063, 0.30217658138045778)	1.0	slash	1.04552
27	N	B	M	A	N	B	A	M	M	8	6	shapes	A	5	False	135	(-1.5297681041658162, 3.9161912993991486)	(7.0160865502157979, 5.7542563891941612)	(8.7347429380344757, -3.3515019275255558)	(-6.2637807560051986, 0.13704435207779753)	1.0	z	1.19924
28	M	A	N	B					B	4	0	shapes	M	5	False	135	(3.3862063550829653, 0.44174923207993899)	(-7.7841477484372845, 7.3198416599028135)	(4.4207767504532889, -8.1920645601197659)	(-5.012856258364689, -4.7881321622219879)	1.0	slash	0.95284
29	M	A	M	N					A	4	0	shapes	M	5	False	135	(-4.0817569275351246, -4.3153310863660685)	(4.9579199652227501, 3.1725015747895142)	(-4.1275290140227474, 7.111707835194828)	(2.8005837716401896, -4.2227391629918092)	1.0	slash	0.892532
30	N	B	M	M	B	A	A	N	N	8	1	shapes	B	5	False	135	(-4.1439367159272287, 0.89245149685577552)	(8.3794808292940672, -0.12497184503769176)	(5.1181340824205428, -6.5802454508792838)	(-7.2488474274601717, -1.8352397331040606)	1.0	slash	1.03816
31	M	A	N	A	B	M	N	B	B	8	4	shapes	B	5	True	135	(8.1206935009523491, 5.4476336555023543)	(2.0438885330832424, -2.3685983566252986)	(-2.3643105161333136, 8.0149243983872651)	(7.1285236301529462, -5.7491444774496951)	1.0	z	0.857631
32	N	B	M	B					M	4	2	shapes	M	5	True	135	(2.2650081080482636, 5.7981107635688574)	(-7.8235228048629404, -8.6460510061706639)	(4.8080214454592927, -5.8559554567452849)	(-8.5482427816767679, 5.3089744473177163)	1.0	z	0.751519
1	M	B	M	A					A	4	3	shapes	A	6	True	135	(0.65471073779067446, -8.6519685605245087)	(2.3359358565720516, 5.1359825782917543)	(-5.0692199818188026, -7.4100116158847555)	(-7.5084800204099089, 8.6499017106866845)	1.0	z	1.11701
2	N	B	N	M					A	4	2	shapes	N	6	False	135	(2.0948655438805126, -1.752663138680953)	(-4.3827607572841787, -4.4609739882564243)	(-4.3414476473465573, 2.7368188053400644)	(7.9684631254874247, 7.9527544499783112)	1.0	slash	0.990226
3	M	A	N	A	M	B	N	B	M	8	0	shapes	M	6	True	135	(-3.7146964295459295, 3.4106229687446916)	(-0.039719112794990963, -4.1834396031799956)	(-5.1681098974013739, -2.2843579405945684)	(6.9341247579296521, 1.2268510943872855)	1.0	z	1.13184
4	M	B	M	B	N	A	A	N	M	8	7	shapes	N	6	False	135	(-4.8644751720183725, -6.8734219543056252)	(6.3409671745583065, -2.2881073727326369)	(-0.80731812461225694, -3.0422262878116424)	(7.1008692793097374, -6.9451554315617603)	1.0	slash	1.90385
5	M	A	B	N	M	N	B	A	M	8	0	shapes	M	6	True	135	(-4.48096101276208, -3.7484904043523137)	(-7.6421851154861997e-05, 5.3312696818861838)	(-6.9238688861398874, 8.1267458041830558)	(7.781083517257656, -3.152889769880387)	1.0	z	1.61154
6	N	B	A	B					M	4	0	shapes	N	6	False	135	(-7.3528755098929786, -7.1835991562823995)	(-2.6712043910948724, 6.4846280357030217)	(4.1751989906630484, -7.9037312350215396)	(3.1667110189710623, 8.5631694735820787)	1.0	z	0.841197
7	N	B	M	N	B	A	A	M	A	8	6	shapes	A	6	True	135	(-2.7314342733519883, -6.7301592149167169)	(2.8027697764418367, -1.8964731379378863)	(-6.8768316659530626, 2.3365024111466983)	(-0.1347458581516463, 1.8202080912494942)	1.0	slash	1.92058
8	N	B	B	A	M	N	A	M	N	8	0	shapes	N	6	True	135	(8.0084721152449418, 2.955913591267139)	(2.076641270344922, -3.0483580868229661)	(3.9827541670044919, 2.4117792214156886)	(-4.3272190637235246, -3.9539611610531598)	1.0	z	1.46418
9	N	A	B	B	N	A	M	M	N	8	4	shapes	N	6	True	135	(4.8958122225707079, 6.7738530882403296)	(-1.0303556060415815, 2.2463202251994741)	(1.4205493141610752, -5.0663300474524355)	(8.7275498769948534, 4.0934366029676568)	1.0	z	1.1414
10	M	A	B	B					M	4	1	shapes	A	6	False	135	(-6.4977455154517951, 6.4471102437247811)	(-5.1771199577907385, -7.3466837832311915)	(4.1135588109983203, 5.0767110371658042)	(6.9432021809370834, -7.8876263345999051)	1.0	z	1.00339
11	N	B	B	M					B	4	2	shapes	B	6	True	135	(-3.5745087420241113, -8.026703412494804)	(4.0158516585543502, 3.7321227708296778)	(-4.9478573858628501, 3.7259456812553111)	(5.7755116674049969, -7.0961437485326506)	1.0	slash	1.22123
12	N	A	A	N	M	M	B	B	M	8	0	shapes	N	6	False	135	(-8.0160093479470635, -6.2863246556223409)	(-0.0086906667930808368, -8.6440765622816524)	(6.6676618913022612, -6.3206148463029148)	(4.4189364993845786, 0.35381944698877099)	1.0	z	1.1661
13	N	B	B	A	A	N	M	M	B	8	3	shapes	A	6	False	135	(4.7016051788431579, 7.8275453409701825)	(-4.9728625700490436, -1.5972736833816521)	(7.7620180031875421, -2.4677909847873059)	(-3.4532919201673593, 5.4787880886329141)	1.0	slash	0.885935
14	N	A	B	N					A	4	1	shapes	A	6	True	135	(2.8510279835181827, -4.6836344401064194)	(-2.4208745585010378, -0.22383875514875307)	(-0.85041461028919141, 7.5938883752779738)	(1.5582977318796924, 4.0786537702868184)	1.0	slash	2.06816
15	N	A	B	M					N	4	2	shapes	B	6	False	135	(-8.7000749323750775, -4.0510837975173519)	(-6.0145905774604795, 5.5522440601547647)	(6.2301164711979915, 1.8173219548752311)	(4.9325061052430659, -3.5779435872608305)	1.0	slash	0.95749
16	M	B	A	A	M	B	N	N	A	8	0	shapes	M	6	False	135	(0.33980692996326134, -2.8607072535198332)	(-6.1377175789025493, -2.2199533608398081)	(-6.7776625899355842, 6.6050639267066114)	(3.5678637375875795, -5.7774487876303642)	1.0	z	0.897296
17	M	B	B	A	M	N	N	A	M	8	3	shapes	A	6	False	135	(2.9137699224312961, 3.1340220620029626)	(7.8300839896962771, -3.8354451028412511)	(8.6550777315381424, 6.6994376106075446)	(0.85284565609698326, -3.4027800973266658)	1.0	slash	0.888909
18	M	A	M	N	A	B	B	N	B	8	0	shapes	M	6	False	135	(4.9784119959434463, -4.6803866739022553)	(-4.9531066491830575, 4.3439878273136845)	(7.8463761383521415, -1.4723393628778165)	(-0.84398071490955573, -5.7100287313914553)	1.0	slash	0.604389
19	N	B	A	A					N	4	0	shapes	N	6	True	135	(-7.2137528576694594, 3.0712327219266466)	(7.1824618200076635, -7.4149026193969174)	(6.0969531792957739, 8.6356262970968984)	(-4.4766856143306093, -5.5772582083440003)	1.0	slash	0.661914
20	N	A	B	M					B	4	2	shapes	B	6	True	135	(5.3952943834816853, -3.5333900643186382)	(-0.83646751513676953, -8.009313065271737)	(-8.6003724469157952, 6.322744570547945)	(6.9697334837123215, 5.9921567471726647)	1.0	slash	0.683543
21	N	A	M	A	M	B	B	N	A	8	1	shapes	A	6	True	135	(-6.1727449397858081, -6.8619949664492328)	(-3.5880375868331216, 4.5979336751180462)	(3.1358632020357646, 6.0432755540060441)	(2.8763899669820798, -0.74314111201437782)	1.0	z	1.08748
22	M	B	N	M					N	4	1	shapes	B	6	False	135	(-5.3830651257917719, 5.9909697262468242)	(1.8073814000615691, -1.8548164291929909)	(4.1098668056937306, 7.5973319281003668)	(-3.8627381647135355, -3.6742698682747417)	1.0	slash	0.745199
23	N	A	B	N					A	4	3	shapes	N	6	False	135	(-5.6565393014989134, 2.8264344740420437)	(-8.6839103980169501, -5.7696878041474307)	(6.5045029581224316, 0.94544361647847275)	(5.8155779936698906, -6.1231107507799223)	1.0	slash	0.823114
24	M	A	M	N					A	4	0	shapes	M	6	False	135	(-3.4840350386767556, 0.8283946764975596)	(4.761838925417706, -4.2853808479564197)	(6.3008831306151496, 1.1394447571179498)	(-6.3586523478236412, -6.9661187350129739)	1.0	slash	1.14846
25	N	B	A	M					N	4	3	shapes	M	6	False	135	(-6.6078550518642531, 2.4108702948352647)	(-2.7811379526273532, -3.5322787067844796)	(1.3950197211651627, 6.3359713449794732)	(1.6766900903664492, -4.5416042638835474)	1.0	slash	0.975929
26	N	B	A	A	B	M	N	M	N	8	6	shapes	N	6	True	135	(-4.5734022517843522, -7.0426482430439012)	(7.4973642692973286, 0.70077535986021644)	(5.0352368976979811, 6.2424796751331204)	(2.345401119286068, -6.3766177986909449)	1.0	z	1.01778
27	M	A	N	B	B	A	N	M	A	8	3	shapes	B	6	False	135	(4.0719654004958752, -6.0330135406636973)	(-1.972097790799257, -1.7331282641903414)	(8.0932894843136296, -3.2052103433508368)	(8.712514771893634, 2.9599202586211693)	1.0	z	1.72941
28	N	B	N	B	A	A	M	M	N	8	2	shapes	N	6	True	135	(-6.4792031107181689, -6.2075978166806767)	(2.5842638179789788, 0.2113598940163417)	(5.7324236006546876, 6.8987657249460863)	(4.9762389991338853, -4.9475556800306908)	1.0	z	2.74688
29	M	A	M	N					N	4	3	shapes	N	6	True	135	(-4.5125176586393465, -6.9169592636431698)	(4.5001414380581792, -1.7529499547453842)	(-2.2089339608832192, 3.9025713927964141)	(4.0972708302930094, 6.6499935504618843)	1.0	slash	0.855873
30	N	A	B	N	A	M	B	M	A	8	0	shapes	N	6	False	135	(-5.6504704189778074, 7.8145260597417625)	(-4.0077814891779724, -8.0026969771552743)	(-4.2366628081558657, -1.5432987515137393)	(-6.1516553572412427, 2.4915528271834582)	1.0	slash	1.73583
31	N	B	N	A					B	4	1	shapes	B	6	True	135	(1.4120346527174394, -3.8995555771282557)	(-0.057344088700862272, 1.4188619349330835)	(4.3373334709327214, 0.34722648276972556)	(-3.4899375109138298, -3.0449031303729859)	1.0	z	2.98355
32	N	B	B	M					M	4	3	shapes	M	6	True	135	(7.4707207150745205, -2.0476218716470269)	(1.6261001446773395, 1.5959289193505128)	(-4.4329032786517546, -2.7048850021209621)	(-3.9656041462858251, 6.0234213688178908)	1.0	z	0.973061
1	M	A	A	B	M	B	N	N	N	8	6	shapes	N	7	True	135	(-2.474276123423107, 4.4694998425600527)	(6.5792078752470573, -7.4995473184826489)	(-6.0029878813234383, -8.2581053448672908)	(2.1482600338650428, 4.7429491535973654)	1.0	slash	0.990828
2	M	A	M	B	A	N	B	N	A	8	7	shapes	N	7	False	135	(5.9243057662450607, 1.1059402996336676)	(3.8040816613096204, 6.9260339020750763)	(-0.10435860100347938, -4.6142441160869616)	(-1.0011029176667989, 6.4370300391079738)	1.0	z	1.17989
3	M	B	M	N					A	4	3	shapes	N	7	False	135	(-3.5903661523941368, -3.2022902549126178)	(-4.1915357614386872, 6.9454630933380752)	(2.7568880262117386, 3.2799887783727701)	(6.181344091439577, -5.1859264575090922)	1.0	slash	0.944006
4	M	A	B	M					B	4	2	shapes	B	7	True	135	(3.4795433159959952, 6.3886459422443806)	(-5.1408561117034743, -7.2067141680296087)	(-1.6395499162291634, 6.661656776041097)	(2.2332935402880505, -2.0025388651084253)	1.0	z	1.10992
5	M	A	M	N					N	4	1	shapes	A	7	False	135	(0.85811063997846659, 0.0080064324776021323)	(-7.0209355356061121, 8.0668668687436593)	(-8.3693760985246861, -7.8792845664499991)	(8.387045614880968, -7.4478467339919927)	1.0	slash	1.19946
6	M	A	B	M					B	4	2	shapes	B	7	True	135	(5.4564626052908096, -7.0211717817453998)	(-8.554360083841468, 4.9900073710539612)	(6.3693646448300214, 1.4350950407541134)	(-8.7221589908075092, -5.4840572915720376)	1.0	slash	1.20679
7	M	B	M	B					M	4	0	shapes	M	7	True	135	(-8.7321772335628491, -1.6730283429041766)	(7.5756030607491702, -4.2589706430170988)	(-8.5695758248751499, 8.1510063699090054)	(4.2131229861628743, 3.2644538060033668)	1.0	z	0.632504
8	M	A	M	A	N	B	B	N	N	8	3	shapes	A	7	False	135	(7.2158569711394556, 6.6002802171459329)	(5.1633555968385405, -6.3824792996138271)	(-4.982385828790207, -7.9521237333255419)	(-7.015736940570827, -1.2483434616751552)	1.0	slash	1.53401
9	M	A	B	M	N	A	B	N	N	8	3	shapes	M	7	False	135	(-7.6602731563834245, 5.3997789062731751)	(8.2470926519210614, 4.1700392854023498)	(-0.86727913829398506, 3.4445061506405796)	(5.7152595309981571, -5.168123290276796)	1.0	z	4.32146
10	N	B	N	M					N	4	2	shapes	N	7	True	135	(-7.8292404251652759, -3.946222368475528)	(4.5630201126135432, 6.6538500733455255)	(5.5323443534700356, -0.12574772206506779)	(-2.4357725532477268, 5.2368300927381348)	1.0	z	1.12308
11	M	A	B	B					N	4	3	shapes	B	7	False	135	(7.8244101072990055, 7.9234210232468634)	(-4.1249725856313351, -7.7567974868502469)	(7.6598621567048362, -4.8805354955807108)	(-0.74266245622773752, 0.452776901681613)	1.0	slash	0.893014
12	M	B	B	M	A	A	N	N	M	8	3	shapes	M	7	True	135	(4.3833790546030098, 6.0038799862398342)	(-4.3954654247539953, -0.10908751637331626)	(7.7572353238552232, -2.9169744399360891)	(-7.5830089339466422, 6.6623104361361651)	1.0	z	3.37255
13	M	A	N	A	N	M	B	B	N	8	0	shapes	M	7	False	135	(0.27180578128745303, -7.8084231909740103)	(-4.3109930512280314, -0.24317476656066894)	(8.0882115506824839, 6.1480329898696358)	(6.666567658588022, -0.020643823751216317)	1.0	slash	0.873457
14	N	B	M	N	M	B	A	A	A	8	1	shapes	B	7	False	135	(0.715232543640969, 1.0520967825592376)	(8.4032531431324635, 2.1560611214524652)	(-7.4426105778177032, 1.4157192391493378)	(-8.3461658003366157, 5.9117705794310851)	1.0	slash	1.97335
15	N	B	B	A					B	4	2	shapes	B	7	True	135	(3.4340153476690514, 1.7014698295079409)	(-6.7353423229064973, -6.9183047061283975)	(0.57079038025476514, -5.8522698495314103)	(-7.1921256282688724, 5.3470984917070083)	1.0	z	0.747005
16	N	B	M	A	A	M	N	B	M	8	5	shapes	M	7	True	135	(1.1201962772423339, -3.3560450681826692)	(4.8366749599824761, -7.0078894529478291)	(0.71815948672605323, 4.1412021604557658)	(3.9514407405513143, 7.9364743330803407)	1.0	z	2.03277
17	N	B	A	N	M	B	A	M	A	8	6	shapes	A	7	True	135	(4.9976663133315515, 5.2102905954784617)	(-4.1892064259969812, 2.822040070153637)	(6.1370267151305775, -4.276264310239327)	(-6.821833659659335, -5.3421913858356582)	1.0	z	1.66618
18	M	B	B	A					N	4	1	shapes	B	7	False	135	(7.2258548590240856, 3.3355528417390996)	(-6.6404686817738687, 5.4050349038578673)	(-5.9751184709669412, -3.7756986950249942)	(5.9479466998423653, -3.8152090809302601)	1.0	slash	0.695849
19	N	A	A	N	M	B	B	M	B	8	5	shapes	B	7	True	135	(5.7398707887151676, -2.6994396939835594)	(-6.5035994611728487, 5.5893424224187669)	(-7.2612949549955275, -4.7615136393478501)	(1.6189617358900623, -0.73922921852459211)	1.0	z	1.24157
20	N	B	A	A					A	4	3	shapes	A	7	True	135	(1.6793246625034257, -7.2370099017724288)	(5.6116531018715374, 4.8346074159528758)	(-2.8354405441036832, -2.0369253807800254)	(-0.90110831177517881, 8.7405644783026375)	1.0	slash	2.58708
21	M	A	A	N	M	N	B	B	N	8	5	shapes	N	7	True	135	(2.7217263809290326, -2.0027365779560933)	(-4.497552860010126, -8.5150939493273015)	(8.6648649625211753, -0.79371092227955575)	(-8.4946464240693356, -7.0301243417748127)	1.0	z	1.14378
22	N	A	A	N					B	4	1	shapes	A	7	False	135	(1.993464595918752, 1.6950020655250935)	(-6.1080050415382621, -7.5893776104627042)	(-8.3390729747910086, 4.1440586050256538)	(3.5376081976282023, -3.8212259605804073)	1.0	z	2.06425
23	M	B	N	A					M	4	1	shapes	B	7	False	135	(7.3199280083735943, 5.6953337693885153)	(-5.9195494122885171, -3.0026927286286593)	(2.1472658410533789, -5.6504306936734867)	(-3.228272566806103, 2.3990125675415417)	1.0	slash	1.28971
24	M	B	M	N					N	4	3	shapes	N	7	True	135	(-1.2909854410589023, 2.5083096140727292)	(0.37540933681991895, -2.9977313118838849)	(-6.6093372634498539, -7.2221250515667359)	(4.8250116017703881, 6.2711055877935635)	1.0	z	0.913335
25	N	A	N	A	M	B	M	B	B	8	5	shapes	B	7	True	135	(-3.150549506114487, 4.4021744444360902)	(1.6068145372517009, -1.5794070910416158)	(7.8755025612936365, 7.5257092808486554)	(1.4121657555057094, -6.7646737914068185)	1.0	z	1.81608
26	M	B	N	M					N	4	1	shapes	B	7	False	135	(-2.6416094117966482, -2.4574569217114455)	(-3.7871941077571911, 3.8281196441602958)	(0.096530195642214878, -7.7527760795313858)	(0.61663141897976281, 6.0417994754999427)	1.0	slash	1.1166
27	N	A	M	N	M	A	B	B	M	8	4	shapes	M	7	True	135	(0.2771255003842672, -2.9130231947901137)	(2.7993626429904239, 2.0769460293725626)	(4.8587246864330496, 8.1139636975918101)	(-5.4616853901250604, 2.0222347895322574)	1.0	z	0.678462
28	M	A	N	M	N	A	B	B	N	8	1	shapes	A	7	False	135	(-3.661120671144471, 6.4949861828298339)	(2.2266484441284806, 0.94929865326643004)	(2.6959115459274283, -8.4649102407020198)	(7.775467053987871, 5.8043837485221577)	1.0	slash	1.36981
29	N	A	A	M					M	4	3	shapes	M	7	True	135	(2.7717388445343669, -8.3090645181777045)	(-2.086686933354434, -3.0852123818058779)	(-6.6770048316212467, 5.8382327072340257)	(5.653068814199516, 7.6007210720799918)	1.0	z	0.831253
30	M	A	N	B	M	B	N	A	M	8	6	shapes	N	7	False	135	(-4.3012296119744748, 6.8529612747863755)	(1.7752754655390053, 7.5987259614122742)	(5.7946775009888416, 0.50496406965629603)	(-3.5141706912593014, -2.0490860832442799)	1.0	z	1.10912
31	N	A	M	B					A	4	3	shapes	B	7	False	135	(6.2156090230724725, -8.0266888299952353)	(0.95948422972573866, 1.1311585435248688)	(-5.7222941469845647, -2.7910148550492231)	(-7.2144859185820742, 4.8666738956548787)	1.0	slash	0.68984
32	N	B	A	B	A	N	M	M	N	8	3	shapes	B	7	False	135	(0.61845835747647904, 2.4659258122571632)	(3.7300065013472175, -3.9133085612650245)	(-0.7334852443790183, -3.2904654869839431)	(7.2634571794434315, 1.1238946795453799)	1.0	slash	1.60246
1	N	B	M	M	N	B	A	A	A	8	6	shapes	A	8	True	135	(1.6580409003908407, -4.2978148637945477)	(7.4899855110101861, -2.4024952801789556)	(-3.1069142501558993, -2.0850981649883318)	(-4.3977338095044392, 2.7077210576185582)	1.0	z	0.798805
2	M	B	B	N	M	N	A	A	A	8	7	shapes	A	8	True	135	(1.040326287833917, 2.6586378361722716)	(4.9317069191794882, 1.441306727359196)	(-8.663690339325564, -5.3440445798963712)	(-4.9991390057817604, -8.0891731858578826)	1.0	z	0.993821
3	M	A	B	N	B	A	N	M	N	8	0	shapes	M	8	False	135	(6.1395223169055626, -7.9376722643340942)	(-5.6914997216193441, -3.5482684712238424)	(-1.9662194194338278, -8.5609773093337527)	(6.88529351255068, 5.3936152716575414)	1.0	slash	0.773302
4	M	B	N	N	A	M	A	B	B	8	7	shapes	B	8	True	135	(3.8974116062753836, -3.8496243743662388)	(7.0879827072992683, -1.0665400802753595)	(4.9743472958502419, 3.5600395767917519)	(-4.3427888798406045, -5.9476246615071737)	1.0	slash	1.08042
5	N	A	N	A	B	M	M	B	A	8	2	shapes	N	8	False	135	(4.1662945234433391, -2.5969664037123987)	(5.7378449255673907, 7.5061060341855139)	(-6.1402443316815711, -4.1342443050650237)	(-1.5875389898564469, 5.8478246144714277)	1.0	slash	1.31867
6	N	B	M	M	N	B	A	A	A	8	2	shapes	M	8	False	135	(7.2525220689032572, -4.1808407656949074)	(-6.8182185815957856, 2.1086024422493921)	(6.8711621953306565, 2.8473999434432837)	(-1.4410899285890126, 7.9427691154458735)	1.0	slash	1.77368
7	N	A	B	N					N	4	0	shapes	N	8	True	135	(-4.6164295402830993, 0.1453543457613975)	(3.8152864301237823, -4.4279058530994986)	(3.2464047045388327, 4.6333349795634593)	(-3.2299698729752633, -4.4292271797271345)	1.0	slash	2.2777
8	N	A	A	B	N	B	M	M	N	8	6	shapes	M	8	False	135	(-1.793855626495084, 6.6151591286200002)	(-1.0239898649347801, 1.933603630915675)	(5.6853471389669998, 7.0504876272973469)	(3.1367082117315022, 2.041119223521962)	1.0	z	1.26723
9	N	B	A	B	M	M	A	N	N	8	5	shapes	M	8	False	135	(3.1140868863767128, -6.160224594187043)	(-6.213931340785571, 3.7385229698561506)	(-0.83232589386563927, -3.8569436657541853)	(-8.1669354186386265, -3.7223586658723731)	1.0	z	1.28102
10	M	A	A	B					B	4	2	shapes	A	8	False	135	(1.9651716669999377, -2.1863731745546078)	(-8.2343211156158418, 3.114926650426467)	(2.934835532373814, 4.6430793014070684)	(-3.9798964206894132, -4.8148407053368478)	1.0	z	1.62662
11	N	B	A	N					A	4	0	shapes	N	8	False	135	(-3.6459776410918501, -4.9533177377150306)	(2.2493491823380918, -0.78901666406250914)	(-3.7296018413677077, 7.6278580213478122)	(7.266830048505728, 1.8465407701244416)	1.0	slash	0.855588
12	N	A	M	B	N	A	M	B	M	8	0	shapes	N	8	False	135	(4.7403685742461512, 8.1263581295570582)	(-6.2028320756691766, 6.6588539754211045)	(1.770271313877986, -2.3215765533774073)	(-3.6682279401824225, 1.0698142299773288)	1.0	z	1.88736
13	N	A	N	B	B	M	M	A	N	8	0	shapes	N	8	True	135	(4.4009501818642462, -7.504291614942681)	(-2.3274416608629425, 4.9811972208911399)	(-8.2717947527802984, 3.6377646620978901)	(2.6612514757055603, 2.7009725910966935)	1.0	slash	1.01724
14	M	B	M	N	A	A	N	B	A	8	2	shapes	M	8	False	135	(-1.3610647955238075, -4.2711158474870441)	(6.2161329875157865, 8.0262365891137506)	(-7.9058763583519038, -5.8846650941395566)	(-0.74590868748459904, 1.2811366624493292)	1.0	z	1.13884
15	M	A	M	N					B	4	3	shapes	N	8	False	135	(4.7389686173909293, 0.48386636831847163)	(-5.466520353785663, 2.6031636739951374)	(5.6589415304241069, -5.3251416242715717)	(-6.6406435608698047, -4.1123190706434167)	1.0	slash	0.720722
16	M	B	N	B	M	N	A	A	B	8	3	shapes	B	8	True	135	(-2.9536823934806176, 3.1091427416338604)	(-7.3983828740180506, 8.5203376129114758)	(0.86368004356918426, -4.5079031778791387)	(5.185507322892386, -7.5112118204154132)	1.0	z	0.782148
17	M	A	A	B					A	4	0	shapes	M	8	False	135	(-1.2840608242565734, 7.6578705697331699)	(-7.3667931199673395, -1.8990441957922233)	(1.6909783119684967, -7.9233571699360201)	(2.6547222273434148, 5.7930183759231788)	1.0	slash	0.867404
18	M	A	N	M					M	4	3	shapes	M	8	True	135	(-6.8771401980530644, 4.0413817242389456)	(2.2830174501921263, 6.186331418085496)	(-2.5333186333710405, -2.4111279690780654)	(7.8579667573763672, -2.3499446846638357)	1.0	z	0.89533
19	N	A	A	M					A	4	2	shapes	A	8	True	135	(6.1086065588756799, 2.4734180930069662)	(-2.4711451969671145, 1.9812343154934098)	(0.90810909834365283, -2.7004160005303275)	(-7.4030006610946257, -6.1756168393790389)	1.0	z	1.39531
20	N	A	A	M					N	4	3	shapes	M	8	False	135	(0.11294211641387797, -4.9069012261967337)	(-5.0685580100972274, 7.2321390929763236)	(4.9906106289013614, 0.48324640193106916)	(-3.4550647864491779, -2.879757787272788)	1.0	slash	0.870819
21	N	B	A	N	A	B	M	M	N	8	0	shapes	N	8	True	135	(-6.900429436592348, -7.4899945392058243)	(-1.7564334488494806, -1.8166001147517479)	(-1.8559417079723586, 5.8329371571754827)	(6.8575928377159787, 6.8225883184153666)	1.0	z	0.716502
22	M	A	B	B	A	M	N	N	B	8	3	shapes	B	8	True	135	(-1.5073876420933452, 5.1808478459654914)	(-4.0762636312684934, -3.1172669398495856)	(5.3224712163748826, -3.0632745554893441)	(4.8512116450865879, -7.0668001951777812)	1.0	z	0.968132
23	N	A	N	A					A	4	1	shapes	A	8	True	135	(-3.3369249587319434, -2.3070145028857842)	(8.6267189998942051, 8.1397802757176407)	(-5.4384347875559911, 8.5746641981996348)	(8.6719942634869582, -4.463808649289505)	1.0	z	0.63186
24	N	B	N	B					A	4	1	shapes	B	8	False	135	(4.7709915229928548, -1.758404461216049)	(-3.2388754593856, -4.9198555236186587)	(5.2284227253763103, 2.312144817000366)	(-3.6723959075302002, 6.342604609951433)	1.0	z	1.03949
25	M	B	M	N					B	4	1	shapes	B	8	True	135	(-8.3148717193929951, -4.7213211466569307)	(7.8416522946954714, -6.2088333933359561)	(1.8684023355626636, 6.0536873629222683)	(-3.6631348248591626, 1.6790671315599059)	1.0	z	0.921144
26	N	B	B	M					M	4	3	shapes	M	8	True	135	(-8.2610389385421161, -6.4083264791599346)	(-6.1001267944163189, 5.8135075389961113)	(6.9928379032406056, -7.5084891947907737)	(8.1492434296744598, 5.3876544944900946)	1.0	z	0.794677
27	N	A	A	M					M	4	0	shapes	N	8	False	135	(7.4934050501862153, 5.4546482490985273)	(0.090766232055733198, -7.3340730201559232)	(-4.6814776324126655, 7.0068779850002354)	(-5.317372365892985, -3.3979062070113821)	1.0	slash	0.614355
28	N	B	A	M					A	4	2	shapes	A	8	True	135	(2.5556969119829436, -5.091536472181299)	(-1.816425773856575, 0.18678186004768271)	(1.8034582062225919, 2.7296930703921554)	(-6.774029371902377, -3.6600052830632519)	1.0	z	0.949563
29	M	A	N	B	B	A	M	N	M	8	0	shapes	M	8	True	135	(-1.6924295488800318, 2.744951554366482)	(-3.1873842136379968, -8.2091658345730636)	(5.9213690675237736, -8.3291685783457901)	(6.646408595507296, 6.0880565642207074)	1.0	slash	0.818073
30	N	A	M	B					N	4	0	shapes	N	8	True	135	(-5.171369321848764, 1.1501542334676422)	(-5.6098841080638611, -6.511672126986717)	(4.0861077706521822, 1.288864297221421)	(4.5881819921541549, -5.2313665444622721)	1.0	z	0.747167
31	N	A	A	B	B	M	M	N	N	8	6	shapes	M	8	False	135	(-1.9499809140497879, 4.4891022744225602)	(-5.2123313286858419, 8.719668020535746)	(5.9225627259184748, 8.218797395997246)	(-3.7591912481235585, -0.41175223032422714)	1.0	slash	0.734558
32	N	B	N	B					M	4	0	shapes	N	8	False	135	(7.3011709129901377, -5.1365149620483583)	(6.6806697632678578, 0.72931530681041146)	(-8.4854678514602018, 4.7444392544040479)	(-3.5805128464152887, -1.3744177406936124)	1.0	slash	0.894752
