TrialNumber	stim0	stim1	stim2	stim3	stim4	stim5	stim6	stim7	stim.probe	ttl.stims	corr.num	trial.type	stim.corr	block	match	Subject	stim.pos0	stim.pos1	stim.pos2	stim.pos3	ran	resp	RT
1	M	B	M	A	A	N	B	N	N	8	5	shapes	N	Practice	True	136	(0.53401521800055463, 2.5119356030327999)	(-1.7753941430311135, 8.4805980984062295)	(0.84720791716876498, -5.7623983561927403)	(4.6282264979418333, -3.6089369932855497)	1.0	slash	2.67987
2	M	B	A	A	M	B	N	N	A	8	6	shapes	N	Practice	False	136	(-1.8236241067039645, 5.0902618149359284)	(5.9476832924361425, -1.0824218737869167)	(-2.5345140445585299, -5.0244607590161063)	(4.497153375513534, 4.4257533518509291)	1.0	z	1.44541
3	M	B	M	N	N	A	B	A	N	8	0	shapes	M	Practice	False	136	(-2.5072561300454028, -4.862090891136015)	(4.057416531196866, -2.8388876491436514)	(-8.1768903241156856, 7.240109000111687)	(-4.0670555472268672, -0.91511272202793137)	1.0	z	2.00682
4	N	A	B	M					N	4	0	shapes	N	Practice	True	136	(2.6364966556977159, 5.8321402149308188)	(-7.8121771256128101, 5.0855493380708907)	(-1.5950781823951914, -0.74001756487080428)	(8.4183974099853778, -6.0423453676077097)	1.0	slash	1.45643
5	M	B	M	N					N	4	0	shapes	M	Practice	False	136	(-2.9089132667899884, 8.504293673114617)	(6.7037203259859037, 4.2506391933418683)	(0.15477776261031728, -2.048009194821276)	(-6.1611920749119058, -6.4785679140708847)	1.0	z	1.0639
6	M	B	A	B	A	N	N	M	M	8	0	shapes	M	Practice	True	136	(-8.3590739765510307, 3.8115638556104603)	(0.31710861762441844, -8.5289058542744218)	(5.0418399739508111, -5.2685874454819173)	(-8.5772957668901082, -2.3043241268975923)	1.0	z	1.14383
7	N	A	N	M					A	4	1	shapes	A	Practice	True	136	(0.99548336980625862, 2.6307974107653962)	(-5.8528162029245472, -3.3094422207507472)	(8.2080790185768926, -8.0817080484156669)	(-3.9874441779544441, 0.66517324942689804)	1.0	z	1.0214
8	N	B	N	A					M	4	2	shapes	N	Practice	False	136	(-3.3931007514826046, 7.0189044059843422)	(5.2398950035512097, -0.47512503207950019)	(-4.5766257593551876, -0.679783422769491)	(3.4507326496649195, 8.7269201012928157)	1.0	slash	1.10709
1	N	B	B	N					B	4	2	shapes	B	0	True	136	(1.8841128573593089, 1.5993796859307867)	(-4.9323578688615113, 2.1841865623661558)	(-1.2569410553040949, -3.6941065515845173)	(7.7170394005780274, -4.6100573194971055)	1.0	slash	2.13626
2	M	A	N	N	M	B	B	A	B	8	4	shapes	M	0	False	136	(-4.0693029431082852, -6.8031776092383209)	(8.6814227238825801, 7.7248803628896816)	(-4.9870465214322657, 7.9538137859313878)	(-8.4172765833780456, -2.5597371733087382)	1.0	slash	1.16174
3	M	A	B	A	M	B	N	N	M	8	0	shapes	M	0	True	136	(4.508819899424477, -2.9687133360857239)	(-1.6374449386301624, -6.3736073600808005)	(2.1738687115352064, 2.7615341971433871)	(6.9305148072908551, 1.752290611393974)	1.0	slash	1.79743
4	N	B	M	A	B	A	M	N	M	8	5	shapes	A	0	False	136	(2.4538365327409846, 5.1779800170052823)	(2.0978156632843241, -5.0076735743453504)	(6.7149848331111563, -5.8016231088960186)	(-5.4560970124137649, 7.205024605838009)	1.0	z	1.37096
5	N	A	A	M	M	N	B	B	A	8	7	shapes	B	0	False	136	(-6.9110870468999597, -7.975654166793726)	(2.6178433021185281, 3.4868678946329048)	(-5.6093400898791854, 7.6773387778895454)	(5.1010969535341424, 8.6058409637315201)	1.0	z	1.35637
6	M	A	M	A					M	4	0	shapes	M	0	True	136	(7.1067414074435167, -5.8567209308041921)	(-2.7161571166021288, 6.3747455121808621)	(2.1660650463741717, 2.6806177220706378)	(-1.2441576597861879, -8.3978574099535503)	1.0	z	1.44786
7	M	B	M	B					B	4	1	shapes	B	0	True	136	(-6.7366088576579735, -8.674316384140532)	(-4.1747465023641972, 3.3262217777747409)	(1.5654402517059847, 7.3943629064677658)	(2.4330073625701658, -5.818741938581061)	1.0	z	1.39178
8	M	A	A	M					A	4	3	shapes	M	0	False	136	(-1.2080197877324022, -8.1555988050569255)	(5.431769624646936, 3.7254604666148641)	(3.983376366096941, -3.7671571719428458)	(-3.1996182215782021, 8.0075030631849735)	1.0	slash	0.899396
9	N	B	M	M	B	N	A	A	M	8	5	shapes	N	0	False	136	(8.0233113521625796, 1.8319303163169387)	(2.1676304163564772, -4.3761190928673388)	(-7.1738400810976977, -2.2188713913908762)	(-1.1304976034053906, 6.3977163621530142)	1.0	slash	1.07717
10	M	B	M	B	A	A	N	N	M	8	2	shapes	M	0	True	136	(0.29453699457912208, -0.97079663258624116)	(-7.9419363634712195, -4.0582507383231645)	(7.9869277619669425, -6.9843145669300188)	(-7.8472345941008967, 2.1065991148225454)	1.0	slash	1.10667
11	N	B	N	B	A	M	M	A	N	8	2	shapes	N	0	True	136	(6.3446911942951019, -0.74048377511976149)	(-0.5345000392313608, -6.8815770901440141)	(-2.7376021911175439, 5.3104915553086762)	(7.4719571214042091, 4.4595419122313338)	1.0	slash	1.53028
12	M	A	N	M					N	4	3	shapes	M	0	False	136	(-0.97484053800306647, -7.8647984837107403)	(6.3470417815373974, 7.2560172373229221)	(0.42434328255130715, -3.7125095800043866)	(-2.4061508453349543, 2.4732756263661155)	1.0	z	1.31389
13	M	B	M	B					B	4	1	shapes	B	0	True	136	(-0.7744409315180949, 0.42563307525954386)	(1.4631037740874877, -3.5800391528268412)	(1.4347277076577871, 5.1327893776231939)	(-2.564900970328579, -5.7793314864098422)	1.0	z	1.88343
14	N	A	A	N	B	B	M	M	B	8	5	shapes	B	0	True	136	(-6.4619778929242457, 2.3331384212818023)	(1.3875776494525667, 7.8257690064000158)	(-2.0086323756152362, -1.1761583103664224)	(0.42367189929444571, -5.0741959690995539)	1.0	slash	0.493151
15	M	B	M	B	A	A	N	N	A	8	4	shapes	A	0	True	136	(7.8210886706760441, -7.3168172004050751)	(-1.7811856095715468, -2.4310371877313051)	(-0.93960335614190083, -6.9794973173862447)	(3.7692571457431931, -0.99176555109566777)	1.0	slash	1.21474
16	N	A	M	N	A	B	M	B	M	8	3	shapes	N	0	False	136	(5.6239860979017635, -8.1725172564210524)	(-4.1346043120458571, -5.4520410427703432)	(-2.4431994711440659, 6.9696925034689805)	(-5.7824856639844553, -1.0616731064966078)	1.0	z	0.52644
17	N	B	M	N	A	A	M	B	A	8	5	shapes	A	0	True	136	(7.6544363116975269, 1.2997653597698626)	(-0.27390018403220928, 7.5174196764256074)	(3.0593059292606224, -1.7829161395795454)	(-6.7300954503297685, 4.2518414741732009)	1.0	slash	0.946169
18	M	A	M	B					N	4	0	shapes	M	0	False	136	(6.188899588362041, 5.8907027665168332)	(-2.0513913058780551, -5.0689245530670668)	(-0.91134316793975056, 3.2074181220397229)	(7.0985026059220147, -1.4288749123741482)	1.0	slash	0.629657
19	M	B	N	A					A	4	0	shapes	M	0	False	136	(8.7472473823737893, -1.1807256696094717)	(3.9488588198256398, 3.2491129547238451)	(-3.6144629467337976, 3.0120992719404907)	(-7.1353769564959499, -7.3980675140777308)	1.0	slash	0.873382
20	M	A	N	M	N	B	A	B	A	8	1	shapes	A	0	True	136	(-7.2409517360713611, -2.3525296508420821)	(-8.4488064272665575, 2.1889538101543078)	(6.1662506142130162, 2.2495802186523157)	(-0.084127076866716166, 5.0237978442599189)	1.0	z	0.662955
21	N	A	A	B					N	4	0	shapes	N	0	True	136	(3.63728731044203, -4.9216305146453809)	(0.43998002341367126, 0.23635464602953604)	(-7.9062064940153931, 2.0269615331558217)	(-1.9505082105921137, -4.7485405882716583)	1.0	slash	0.692752
22	N	B	M	B					B	4	1	shapes	B	0	True	136	(-7.686754081171685, 0.67655521408347319)	(-1.6033382999916448, -4.7105810427675916)	(7.0492317268910156, -2.865417553051695)	(7.7078202625152912, 4.1080858278960939)	1.0	z	1.83631
23	N	A	A	N					A	4	2	shapes	A	0	True	136	(3.5865896042688643, -6.0258431737731897)	(5.8655411445972518, 2.0364508073287357)	(-4.4872613496626554, -0.79463267058570963)	(-7.8748810157901081, 7.6236750365980974)	1.0	z	1.1839
24	M	B	B	M					A	4	3	shapes	M	0	False	136	(-5.8672632826751681, -0.58264529113982277)	(-3.446997835483125, 8.088408342923195)	(4.3789097159557766, -4.7610342420519345)	(6.7642342818576413, 5.9976823625353788)	1.0	slash	0.997641
25	N	A	M	N					B	4	2	shapes	M	0	False	136	(6.1279337833734449, -4.3418098080470893)	(-6.2136931777982847, 6.6423824909281972)	(-5.8851789641161405, -6.3510134239877312)	(6.094039452330275, 0.4272625310924365)	1.0	slash	1.44722
26	M	A	M	N	N	A	B	B	B	8	3	shapes	N	0	False	136	(-2.0946556049557685, -3.4699996537000777)	(-4.5371031214618265, -8.7318022486285489)	(5.3401407160410947, -5.0525254470419476)	(2.8761766491612946, 5.6412203815803288)	1.0	slash	2.41892
27	N	B	N	M					B	4	2	shapes	N	0	False	136	(-4.5002316532057591, 4.1608365215836258)	(-7.3868365474673396, -2.5446060125185861)	(7.3441726921724424, -4.0405419429756151)	(1.976873086266961, 5.6287547309597166)	1.0	slash	0.912389
28	N	B	B	A	N	M	A	M	B	8	4	shapes	N	0	False	136	(6.5616296025161045, -0.15870847125600207)	(-5.3759430215206434, 7.1876122361439858)	(-1.080149733121087, 2.117589866228311)	(-7.9838574197127468, -2.9341994370993598)	1.0	slash	1.09393
29	M	A	B	N					M	4	2	shapes	B	0	False	136	(6.8143750049457275, 8.1888681910549828)	(-7.4237805448780438, -5.1096427836332339)	(-8.4758406582938601, 2.8251331534734501)	(5.9990701908639625, -6.2061335091600416)	1.0	slash	0.781596
30	N	B	B	N	A	A	M	M	A	8	5	shapes	A	0	True	136	(-2.3687420084798809, -3.9037073994452598)	(7.905889987678151, 3.2789529376586675)	(-0.76877767874065484, 2.5007601768565948)	(4.0870911710287245, -6.0808145107008631)	1.0	slash	0.851151
31	M	A	N	B					A	4	1	shapes	A	0	True	136	(1.7178115250590391, 6.2270835471869344)	(-7.3126451267531882, 8.1000455805236875)	(6.1559924878979579, -4.5552017812634942)	(-7.9855515905788348, -6.5001038184619944)	1.0	z	1.36303
32	M	A	N	A	M	N	B	B	B	8	0	shapes	M	0	False	136	(5.1028533409669219, 3.2384409010385777)	(-6.3763202430773323, -5.6014856430311717)	(-1.5469635065482947, -0.43130673369363137)	(-8.4434958457196387, 8.7345727504160813)	1.0	slash	1.13441
1	N	B	B	M	N	M	A	A	B	8	7	shapes	A	1	False	136	(-3.9170525635196976, -2.2738106037172727)	(1.5054650289067339, 4.4296681916387168)	(7.7830939379670347, -4.6351828098362784)	(-1.9499040971040245, 1.9945572841736041)	1.0	z	1.11591
2	M	B	A	A	B	M	N	N	M	8	2	shapes	A	1	False	136	(-7.4525457790862433, 5.5835567467062077)	(-2.4162646313756566, -6.9463158892868151)	(2.6019434339708312, -6.120892562756314)	(1.2735887878528285, 4.3913148871619789)	1.0	z	2.3518
3	M	B	A	B	N	M	A	N	A	8	2	shapes	A	1	True	136	(0.83508352615443471, 0.75413970252630769)	(-5.0692777848402262, -7.6424024956072545)	(5.8345845978800543, 2.857408126442385)	(0.69801987964912549, -3.990813382470316)	1.0	slash	1.45338
4	M	A	A	M					A	4	2	shapes	A	1	True	136	(8.0691830555861443, -5.6587079308863677)	(-6.5274512730068501, 8.572594566571329)	(3.8721882269938952, 8.7481263823039122)	(-2.9200826702048879, -3.6745978552942118)	1.0	z	3.05237
5	M	B	B	M					B	4	3	shapes	M	1	False	136	(-1.9034393145078905, 0.70679312169037978)	(-2.1786403022770138, -5.0562471317655113)	(4.796464570892951, -4.3165055130069163)	(4.1328397204341005, 2.707834151935101)	1.0	slash	0.922336
6	N	A	A	N					A	4	1	shapes	A	1	True	136	(-7.6874168390961701, -8.5097169493352141)	(4.2777880885540913, 1.2712627663758997)	(0.78347002035563307, -1.5066464260331092)	(-2.1677213909433881, 5.4993916546436452)	1.0	slash	1.81202
7	N	A	A	B	M	M	N	B	A	8	1	shapes	A	1	True	136	(-8.6269567345572149, -1.0745069446666733)	(-5.949700521620759, -5.5110795598629991)	(2.0449523103900624, -3.1765585970826651)	(4.0262039909780789, 3.7063190596010873)	1.0	z	1.92346
8	N	A	M	M	B	B	A	N	B	8	1	shapes	A	1	False	136	(-5.9232311339748849, -3.2685678683236059)	(-2.8565182334166694, 7.195424996925901)	(5.2397795080467802, 8.5088566222606268)	(-0.55754213952573117, -4.1948436460951495)	1.0	slash	3.36111
9	N	B	A	A	M	B	M	N	M	8	4	shapes	M	1	True	136	(1.7797618989374158, 1.6807533655019835)	(8.0214731269668604, -2.3190457200747359)	(-4.839740914075108, 0.97711080725213328)	(-5.1533982341019451, -5.14307718297911)	1.0	z	1.59059
10	N	B	B	N					B	4	1	shapes	B	1	True	136	(-2.6484118426708338, 5.5219021622129976)	(-8.6052611424849648, -1.1240547396567768)	(7.2467885023605483, -8.3057172537287904)	(4.470436373543885, 6.0310216760222737)	1.0	z	1.50619
11	M	A	B	M	B	A	N	N	A	8	1	shapes	A	1	True	136	(2.395347466879338, -4.4092808330765294)	(2.9846373616031929, 2.6798975566545664)	(5.289492769291229, 7.915476482743113)	(6.7627964190963255, -0.52564826097870743)	1.0	z	2.03377
12	M	B	N	A	N	A	B	M	B	8	3	shapes	A	1	False	136	(-6.7494597635597131, -3.5229233509129276)	(6.9358230407127675, -5.7899976110458429)	(1.9765439069628847, -4.9679969631824967)	(-3.6829037930892019, 3.1739088136032798)	1.0	z	0.902811
13	M	B	A	M					M	4	0	shapes	M	1	True	136	(-4.2671448011968289, -8.2356018033285512)	(4.9693713754679933, 1.2498329365284331)	(-2.2216039913324082, 8.0009176507910631)	(5.8451272779415202, -4.5338078512438225)	1.0	z	1.40491
14	N	A	A	N	M	B	B	M	A	8	2	shapes	A	1	True	136	(-6.9109275913830679, 0.99329650248425239)	(8.2286354021709549, -2.99467559702477)	(8.6333503417283524, -7.6745577202115847)	(4.6752474393264425, 0.40394615843353954)	1.0	z	1.35052
15	N	A	B	M	B	A	N	M	A	8	3	shapes	M	1	False	136	(7.7528867066974598, -8.2848822516674741)	(1.2658931226365091, -4.0413135047879063)	(-6.0716527004801337, 1.570141343810775)	(-8.4652369876330926, 6.7322463588929722)	1.0	z	1.27026
16	M	A	B	B					B	4	3	shapes	B	1	True	136	(-0.84937689414350093, 5.790042914966401)	(2.8242294453978971, -6.3204468663079654)	(6.6243450046879069, 1.8649867526982806)	(-4.656033189809679, -7.1317817045524148)	1.0	slash	1.20187
17	N	A	N	M					M	4	3	shapes	M	1	True	136	(-3.2134907651957008, 3.3434110432642825)	(7.474883186802078, -4.4817324020452975)	(-6.9524758908767854, -7.117174639099181)	(7.1175482091341706, 2.7581671391951161)	1.0	slash	1.06739
18	M	B	B	N	A	A	M	N	A	8	6	shapes	M	1	False	136	(-1.1746523464820386, 1.5243069083637675)	(2.1290903990955066, 8.1403766240683808)	(8.7207217642869033, 3.4347828510654779)	(0.85574286587054083, -7.2999036933882575)	1.0	z	0.945118
19	N	A	B	B					N	4	0	shapes	N	1	True	136	(-5.7017729094290308, -2.5685045171457883)	(6.6423074427285744, -2.0510342388986196)	(-7.6411839213620549, 8.3111410834127888)	(4.0924970009212629, 4.4259391697416604)	1.0	z	1.20674
20	M	B	B	N	A	N	M	A	N	8	4	shapes	A	1	False	136	(6.1683900428778404, -2.0356788856443462)	(-7.9843930999917436, -5.4102809457942955)	(5.6102692392636389, 6.0343384329245069)	(0.98795910450427371, -8.1132600373623571)	1.0	slash	1.14631
21	M	A	N	N					N	4	3	shapes	N	1	True	136	(2.8772458638787928, 2.3885965336235433)	(1.3907355893807001, -8.7179687750877939)	(-5.2370128061391945, -5.4471227639101034)	(-4.8720756115808665, 2.9189685938880086)	1.0	slash	0.975939
22	N	B	A	A					B	4	2	shapes	A	1	False	136	(-3.9718534257790923, 3.659122844086383)	(-7.9762692363497196, -8.5969230890676371)	(3.1407902198381557, -7.9936293732357582)	(4.1369712945914046, 5.7983692932080348)	1.0	slash	0.947652
23	M	B	N	M					N	4	1	shapes	B	1	False	136	(6.2825654862210492, 6.9104621421449988)	(3.6420075784580934, -1.1884653499795359)	(-0.73052005180911728, 3.0443286829758271)	(-2.6862114833122162, -7.7327498182468233)	1.0	slash	0.855341
24	M	A	M	B					A	4	2	shapes	M	1	False	136	(-8.0573366942931059, 4.4084555545147506)	(0.72314593978515163, 0.18967414780605374)	(-3.6078610605587915, -0.48993329393685414)	(1.5390790667380969, -3.8134581479511374)	1.0	slash	0.812563
25	M	B	A	M					A	4	3	shapes	M	1	False	136	(-6.8695172066658543, -1.9580094616819661)	(2.3466772257914617, 0.076732364001170339)	(8.7193906465128954, -8.5199223909640978)	(-1.8492612244887736, 1.1901509003514086)	1.0	slash	0.948442
26	N	A	A	B	B	N	M	M	B	8	4	shapes	B	1	True	136	(-0.3189411030182363, 6.8698395981646492)	(-7.0916142004561546, -3.7117773372135145)	(-7.5771529159896343, 0.54173627508571442)	(-3.1821335707484053, -2.0203347888282241)	1.0	slash	0.682126
27	M	B	B	N					N	4	2	shapes	B	1	False	136	(-5.2259619571566667, -6.7532784175373877)	(0.083665176383163953, 0.20922648953740719)	(5.942015453354033, -0.91455682776162739)	(-0.40725397787364415, 8.6419874228682652)	1.0	slash	0.619896
28	M	A	B	N	B	A	N	M	B	8	4	shapes	B	1	True	136	(-6.0825841105520837, -0.31869214984794603)	(-1.9422844383458724, 6.7813804703575133)	(4.3767752807085873, 7.6276729180172929)	(7.1206340752171773, -3.8250267773916331)	1.0	slash	0.965515
29	M	B	B	N	A	A	M	N	N	8	7	shapes	N	1	True	136	(-4.5260344680948164, 2.836794430854237)	(4.547848533467004, 4.5811404722003193)	(-4.0027415416991214, -5.8234490743061871)	(0.87953811528165993, -2.1518490179530181)	1.0	slash	0.825154
30	M	A	M	B	B	A	N	N	B	8	5	shapes	A	1	False	136	(0.10303833999683043, 2.6010687702205093)	(-4.5669898717617379, 6.285225077965638)	(6.9164738261087724, -5.851859032566499)	(4.7274981171427317, -0.88120629223413705)	1.0	z	0.972534
31	M	B	N	M					B	4	2	shapes	N	1	False	136	(-2.4083053072598597, -7.0471624490554117)	(0.73814339906592608, -2.1586709750026962)	(3.5276072307518263, 1.6077648076192723)	(-1.8188672859736608, 7.1593192274309931)	1.0	slash	0.762126
32	N	B	M	N					A	4	1	shapes	B	1	False	136	(6.5907977660960757, 5.5544790961168484)	(-5.7075331797572462, 8.3317014083952614)	(-3.1442486343192035, -1.0099420177703324)	(8.4722823075083191, -2.474293060916902)	1.0	z	1.05205
1	N	A	M	M					M	4	1	shapes	A	2	False	136	(5.4417401076891991, 8.5474353483214287)	(-1.7862468260960922, -3.1078218941808355)	(-3.8036583833708217, 7.6080183914186179)	(2.593376172106808, -0.72861677362294941)	1.0	slash	0.989802
2	N	B	B	N	A	M	A	M	M	8	2	shapes	B	2	False	136	(6.3982074076368836, -1.2502568331573016)	(-3.6451732958002703, -1.6905551851530021)	(8.669554784270769, 3.3872464575237728)	(1.3384351447902159, 2.5837728050404039)	1.0	slash	0.877377
3	M	B	N	N	A	A	B	M	N	8	2	shapes	N	2	True	136	(5.7446196266681842, -2.4861273803534791)	(-0.80410081951706314, 4.3149536230534942)	(5.2524898670281601, -7.6360836252808451)	(-1.7166490657429545, -0.93347961319705419)	1.0	slash	0.722845
4	M	A	N	B	A	M	B	N	B	8	6	shapes	B	2	True	136	(0.034913975745514136, -4.7084623814426045)	(-3.8607884122841378, -2.726228831183807)	(-0.23117047136401503, 1.6931453401261329)	(-8.1066841351610428, 2.4068192175931582)	1.0	slash	1.17259
5	M	A	M	A					N	4	1	shapes	A	2	False	136	(0.80557640949138332, -1.1893909862581458)	(-4.5125090164555113, 2.8540968133178595)	(6.6156316572027833, 5.8122231153034711)	(-6.5908247214255944, -3.0286789597884676)	1.0	z	0.890263
6	M	B	N	B					N	4	2	shapes	N	2	True	136	(4.2272983777356057, -6.5819927076346385)	(-5.9026161405346711, 3.4412041857616202)	(2.3959714415395617, 4.8244653054629332)	(-3.9563895397455697, -2.2821060543799643)	1.0	slash	1.20997
7	N	A	A	M	B	M	N	B	A	8	1	shapes	A	2	True	136	(-2.9970967841724168, -2.9419488180925253)	(2.721135198119045, 8.4762572762389503)	(-1.5030843371100104, 7.7649747374659199)	(-0.32530229915061248, 3.8784330380607894)	1.0	z	1.5036
8	M	B	B	A	M	N	N	A	M	8	0	shapes	M	2	True	136	(4.8957703707411362, -6.5012522182997401)	(0.5828075962429633, -3.3467810178311836)	(-1.0711644523562045, 8.4778131027045696)	(-5.1621697917398635, 3.700258903171278)	1.0	slash	1.0072
9	M	A	M	B					M	4	0	shapes	M	2	True	136	(-1.0314204673730973, 0.28097374840143452)	(-6.9194307524400456, -1.1850285641284426)	(4.8765261248804119, -0.335691260780699)	(5.5902698119179526, 3.773490373687844)	1.0	z	0.792847
10	N	A	N	M					M	4	2	shapes	N	2	False	136	(8.2590162014088122, 8.2256016282783939)	(-1.871072736299852, -6.4734612636761462)	(-8.211608830756262, 8.3050994115325381)	(3.9328455772979218, -2.4469807235151748)	1.0	z	0.876499
11	M	A	M	B					A	4	2	shapes	M	2	False	136	(-1.9969203597267766, 4.6518967531208624)	(0.7492191366099572, -5.8209678765613626)	(3.3517738723715347, 1.1868450471567265)	(-4.3080820009826848, -1.5297590190289165)	1.0	slash	1.50472
12	M	B	A	B					B	4	1	shapes	B	2	True	136	(3.8195135590245766, 7.3786730901622306)	(-0.98559374939206368, -6.2655353951793451)	(-1.887549298229807, 2.4639855963885573)	(2.0850516475133798, -1.5769661045683669)	1.0	z	1.32568
13	N	A	A	M	M	B	N	B	M	8	4	shapes	M	2	True	136	(-7.334077472269624, 7.1661419577356256)	(1.7811011111042419, 3.3032058805571438)	(-6.193950139548364, 1.0739511153620587)	(1.1765705167125606, 8.0925017493086671)	1.0	slash	4.89114
14	M	A	N	M					N	4	2	shapes	N	2	True	136	(-6.7009994128019423, 8.1353159630433218)	(-2.1331492540837695, -0.75249932084176407)	(8.1950361624159029, 3.3219874267584117)	(4.864364592288057, -3.0563001056552448)	1.0	z	1.25061
15	N	A	N	A	B	M	B	M	N	8	2	shapes	N	2	True	136	(-6.1340412909570396, 2.9270843962496595)	(1.4971940187612987, -7.0969967164830505)	(8.2985717609747027, -6.3553456100301542)	(-2.5795906248476674, -0.77174820967571556)	1.0	z	1.54025
16	N	A	A	B	M	N	B	M	B	8	3	shapes	B	2	True	136	(-6.7030359444689216, -0.088433209843914895)	(-0.098339652698122393, -4.7037552323184713)	(-0.24356688658393288, 2.3891671413468831)	(8.5337240900122424, 0.64311256295540531)	1.0	slash	2.86837
17	N	A	B	M	N	M	A	B	N	8	5	shapes	M	2	False	136	(5.5593439730351903, -3.7084915146459938)	(-7.3537732607817263, 5.0477496054662385)	(3.677233484202155, -8.0743999340024111)	(-6.6718049735223355, 0.64116512155749206)	1.0	slash	1.12118
18	N	A	M	B					B	4	1	shapes	A	2	False	136	(5.8619487754890685, 1.4941973117058804)	(-7.3927155357043031, 5.2339208244720421)	(1.1139087798218128, -6.3582095548675035)	(-8.532729205056004, -0.018325760153736326)	1.0	slash	1.60291
19	N	B	A	B	N	M	M	A	A	8	3	shapes	B	2	False	136	(8.2044039199539043, 7.3917513501951788)	(-3.4282879275326463, -7.7388581507085998)	(6.5652269573648976, -7.1794430246554537)	(-6.5554184816302179, 3.1350069957409588)	1.0	z	0.784618
20	N	B	N	B					N	4	2	shapes	N	2	True	136	(6.3301677581380318, 8.1286598988100209)	(-7.9011976930493182, 4.8835050696207496)	(4.6773714592112583, -5.1820976355518145)	(-0.97045104480048039, -1.8792727647462755)	1.0	z	1.28615
21	N	B	N	B	A	M	A	M	M	8	7	shapes	M	2	True	136	(8.714065170491466, -1.1526234935203759)	(7.563328261019219, -8.1160489060888157)	(6.6143750185957693, 4.3324042667199958)	(-8.6115889803500636, 0.63939109560860885)	1.0	slash	1.88977
22	M	B	N	N					B	4	3	shapes	N	2	False	136	(-8.5335118187291936, 6.025227502983217)	(-0.87413906429561283, -7.493838789698561)	(2.3683486589439759, 4.0891797636993115)	(5.9047782403123286, -6.6664880996242184)	1.0	slash	1.4092
23	N	A	N	M					A	4	0	shapes	N	2	False	136	(7.3661754542356945, 5.0554079396268659)	(-1.8804495299736841, -5.7078244513345862)	(4.8792897166217646, -0.78992459649030344)	(-6.2980565057511564, 2.7733716592749893)	1.0	slash	0.928819
24	N	B	M	B					B	4	1	shapes	B	2	True	136	(-0.8191922268903431, 8.4120175112126887)	(1.7664979256493663, 5.1337114850034684)	(-4.9557459187361728, -5.3124561696299288)	(4.597220064404981, -6.2364186132387207)	1.0	z	2.06453
25	M	A	N	N					N	4	2	shapes	N	2	True	136	(-3.1046442881603218, 0.38276362524202767)	(6.5514103857412582, 8.5797245420925741)	(-6.7728074194664876, -5.0256816520544163)	(6.9813807635370075, -5.0908945867342599)	1.0	z	1.35812
26	N	B	M	B	N	A	A	M	A	8	1	shapes	B	2	False	136	(1.2216674061587138, -6.9530734351098733)	(7.323318758785387, -3.9024588799918121)	(-5.7295854895354337, -2.3805795182774219)	(-1.7257478678792459, 2.0151738157748138)	1.0	slash	1.16378
27	M	B	N	A	N	M	B	A	B	8	2	shapes	N	2	False	136	(-5.2413994059172069, 6.2008880699831757)	(6.1508879572251072, -7.4707132179329383)	(-8.4836831791003302, -3.6767962103891945)	(-0.62368363020036099, -1.7541731644938432)	1.0	z	1.1914
28	N	A	N	A	M	B	M	B	N	8	5	shapes	B	2	False	136	(1.7010585963549953, 6.8858783620523578)	(6.2764549796798175, -0.0097879121636452737)	(-3.7986679978172724, 0.42083267237910071)	(1.8327902348371996, -7.2987042634938319)	1.0	z	1.18118
29	M	A	A	N	B	M	B	N	M	8	7	shapes	N	2	False	136	(6.4609422369118921, 2.5031501373225886)	(-5.6061860623426671, 4.4525076253863194)	(-0.29022196741096629, 4.9080951279810936)	(8.4460568697667711, -5.8299097334155618)	1.0	slash	1.56459
30	N	B	N	A	A	M	B	M	B	8	5	shapes	M	2	False	136	(6.546926593566333, 0.77206794286416525)	(-0.36785957260253532, -0.65040745133075717)	(3.9282274454646391, -4.3778371468701014)	(1.4579490368622459, 4.7917227727526068)	1.0	slash	0.696256
31	M	A	B	A					A	4	0	shapes	M	2	False	136	(-5.8539452299406607, -4.2157186693734854)	(-5.0720797724965196, 5.1358551602134774)	(5.0541739178023697, -2.6252660795799976)	(3.4449265821050137, 3.3014123684654493)	1.0	slash	1.28797
32	M	A	B	M					A	4	1	shapes	A	2	True	136	(4.2790531754827725, 5.4187483085299615)	(-3.0973067523054159, 2.1855683512818054)	(-3.3633574059106373, -5.979699050548172)	(2.094931442983345, -3.062184034915056)	1.0	z	1.30347
1	M	B	A	A					M	4	0	shapes	M	3	True	136	(2.0209823115698988, -6.4247503050480681)	(-7.9816779435612171, -5.4741577756043815)	(4.4456666649002816, 0.00017750571083041677)	(-1.1418227780516412, 4.0481222044269281)	1.0	z	1.22123
2	N	B	M	A	N	M	A	B	A	8	5	shapes	M	3	False	136	(-1.5485619869838985, -8.6943887698192093)	(8.4132555208817159, 5.2955926635248538)	(-0.550056335643335, 2.7702537916772574)	(2.1297971133814375, -4.3469352234181837)	1.0	slash	2.07671
3	N	A	A	B	M	N	B	M	M	8	4	shapes	M	3	True	136	(6.7290830136961315, 1.3964785359603287)	(-4.5849126104920757, -0.66274763584348229)	(-0.35252358651318616, 0.71069751549640614)	(5.4552656867892608, -8.6072682840331449)	1.0	z	1.62625
4	M	A	A	B	M	B	N	N	A	8	4	shapes	M	3	False	136	(-6.8616639891651694, 5.0207384192660136)	(7.7206343570273006, -6.3188585288704928)	(2.0638172838316233, 0.15619763801650777)	(8.7361413300419599, -1.2730162808022429)	1.0	slash	2.0639
5	M	A	B	A					B	4	2	shapes	B	3	True	136	(-1.1934311288210235, -7.1074016552014037)	(-4.6086342672210865, 0.11974424374096237)	(4.9911309066877596, -8.2269649528429678)	(7.8101145664251739, 4.0146646001705939)	1.0	z	2.18141
6	M	B	A	B					N	4	0	shapes	M	3	False	136	(6.0500608891382441, 7.2701802970048348)	(1.1412962253301799, -7.1022553847201753)	(-0.64165728818352008, 2.5682509420418622)	(-1.5246859972550117, -1.8980636564365509)	1.0	slash	3.63103
7	M	B	A	A					A	4	3	shapes	A	3	True	136	(-3.0497094922517327, -2.2466708363856638)	(4.3357927576720012, -8.3591462597742421)	(-6.9605446796660608, 3.1445890514368582)	(2.8714563337413281, 8.1136328501108395)	1.0	z	1.5066
8	N	B	B	A	N	M	M	A	A	8	0	shapes	N	3	False	136	(0.81125354664661486, 7.8497363812208896)	(2.8354283152686826, 2.2756116555362222)	(-3.4107165980363412, -5.7850081848264825)	(0.053158795775749113, -2.8398969654678385)	1.0	slash	1.82215
9	M	A	N	B					N	4	3	shapes	B	3	False	136	(-7.9110903308358536, 6.4385181657858865)	(6.8694423909896383, -7.0415883748629815)	(-2.5167094134747963, -8.4491612485010066)	(2.3560902946713789, 0.82159878811080134)	1.0	slash	1.33935
10	M	A	A	M	N	N	B	B	A	8	2	shapes	A	3	True	136	(-1.7794297830604133, 4.4283637242959788)	(-6.173695720358797, -3.8861429690093265)	(-8.3170265680599957, 2.7105556703150615)	(7.5342294776562539, -3.6376573167506141)	1.0	z	1.19507
11	N	B	A	A	N	M	M	B	M	8	4	shapes	N	3	False	136	(7.0812510048472106, 2.719261021461028)	(-1.199796655256355, 4.7702721907056169)	(-4.7149871004209034, -2.699950077924405)	(3.5972065251814289, -5.8814261128887422)	1.0	slash	1.12677
12	M	A	A	M	B	N	N	B	A	8	5	shapes	N	3	False	136	(-8.0729891358712376, -6.3459949267178075)	(5.2972875692767829, 8.4981367959593399)	(-4.5522197519235927, -2.5920963513928177)	(2.9871579068634322, 4.5932136115549902)	1.0	z	0.944421
13	M	A	N	B	M	A	B	N	N	8	7	shapes	N	3	True	136	(-4.6295161597021011, -7.5185217600889676)	(-1.6317868335637398, -3.6675822922063892)	(5.3250030777753405, 0.78090749010628713)	(-4.4841615698867674, 6.3102622383623093)	1.0	slash	1.6562
14	N	A	B	M					B	4	1	shapes	A	3	False	136	(3.9684901332623497, 8.4287875014425566)	(-6.2170603448700419, -2.4970824772685036)	(8.3138780274884567, -5.6375643777874149)	(-3.8247369147020391, 4.9425951970898439)	1.0	z	1.3437
15	M	A	M	N					A	4	3	shapes	N	3	False	136	(3.2089156155061467, 7.4386723829987602)	(-4.8043767177501078, 0.76966594663321253)	(-6.5455488347995452, -5.2215674192587116)	(5.4815628310458351, -3.214753027898591)	1.0	slash	1.1334
16	N	B	N	A					N	4	0	shapes	N	3	True	136	(7.4422881773087823, -1.6620620578525456)	(-3.1639311414893774, -4.0831034761475182)	(-6.1293836674353601, 3.2734262749881342)	(8.4916422632767166, 3.654836798626075)	1.0	slash	1.13502
17	N	A	M	B					A	4	1	shapes	A	3	True	136	(6.7375579736302829, -8.4531057852388045)	(-1.5321657175874028, 5.8833162888253838)	(-2.0855786648883079, -1.3257045160394147)	(6.6704963829233854, 6.8952889515325335)	1.0	z	0.878459
18	N	B	M	A	A	N	M	B	A	8	4	shapes	A	3	True	136	(-6.7272921931635628, -3.1709788169827009)	(4.7346933602615859, 8.3566405784117919)	(-2.1206484298611263, -3.5772190317438)	(-0.68513742381605702, 1.5451836742971032)	1.0	slash	0.985591
19	M	A	A	B					A	4	2	shapes	A	3	True	136	(5.5342573440346055, 5.5830953390824849)	(-3.3267771482063022, -6.9851025837310354)	(-1.0569363457182783, 5.4343694666874232)	(0.62270267491096121, -8.7441013801761578)	1.0	z	0.904116
20	M	B	B	N					N	4	3	shapes	N	3	True	136	(-1.5251984923993849, -8.4588122898469233)	(4.4840595682106272, -1.2211288136167999)	(5.1991908927007966, 8.2676144644161376)	(-4.4115241771132112, 0.90259998670855346)	1.0	slash	1.52157
21	N	B	N	A	B	A	M	M	A	8	6	shapes	M	3	False	136	(-0.86656561306948543, -2.6030588394496403)	(-5.5299875031613741, -0.96935270782403471)	(-6.3672960137470396, 7.9782890769508263)	(3.1026931004862313, -6.1276802735392213)	1.0	slash	1.06726
22	N	A	M	B					A	4	3	shapes	B	3	False	136	(-5.5056137548951511, -1.3508428420928249)	(1.1231632538017955, 7.8342974462015427)	(1.1802275018913218, -8.4547710175130142)	(-7.8244250488712099, 3.8977369759774554)	1.0	z	1.08064
23	M	A	N	M	N	B	B	A	A	8	1	shapes	A	3	True	136	(3.3449218515036261, 4.2518643069862172)	(-7.9647249134481699, 4.569768264862935)	(-2.0178781328978168, -1.8799886988841106)	(-2.413228889357014, 2.8365931011231371)	1.0	z	1.09624
24	N	B	N	M	M	A	A	B	M	8	4	shapes	M	3	True	136	(2.3149491958470296, -2.0069165646642686)	(4.5213914213206419, 5.3812239497441752)	(8.5940510485511119, 6.7114064691017052)	(-6.3940767107619187, 5.6525664395675648)	1.0	z	1.82621
25	N	B	N	M					B	4	0	shapes	N	3	False	136	(8.2148991442269867, -1.337784445573897)	(-3.3228239980860783, -4.7674266283573159)	(0.93058759036473404, 3.2001255195228264)	(-6.3543413618570224, 4.0936113093539799)	1.0	slash	0.983615
26	M	A	N	A	M	N	B	B	A	8	2	shapes	N	3	False	136	(-3.249618156079606, 2.8021433087029948)	(6.425976465149434, 4.3597060274708426)	(5.3006222083422792, -4.4709851342429872)	(-6.1646329549957315, -0.19030957875815346)	1.0	slash	1.14313
27	N	A	B	B					B	4	0	shapes	N	3	False	136	(8.094514029770945, -8.0286011488903117)	(-4.7868657212568611, -8.678733240795367)	(-4.2245640948958973, 1.8642558338229502)	(7.190451229862969, 0.78484332999282636)	1.0	slash	0.908952
28	N	B	B	M					N	4	3	shapes	M	3	False	136	(7.5175719497938793, 6.1831495241570842)	(-3.6075473586944682, -2.2888658522418108)	(6.4583693598426564, -5.1335691681310465)	(-5.3531511670588898, 3.1586042114131807)	1.0	z	2.53648
29	M	B	A	A	M	N	N	B	A	8	3	shapes	A	3	True	136	(-0.19277401240132264, -5.4508277460311465)	(-7.3182364852418393, 5.1104641896213181)	(1.1708361695829552, 3.298339940184297)	(6.7663286356262162, -7.9549927206528235)	1.0	slash	1.25195
30	N	B	A	B	A	N	M	M	N	8	2	shapes	A	3	False	136	(7.2192706502698716, 4.3671982783861782)	(3.5975009694028142, 7.2364813333272853)	(-5.4621057734341338, 3.8029073222465328)	(1.4556010459619113, -4.5057206501640925)	1.0	slash	1.24759
31	N	A	N	B	M	A	B	M	B	8	6	shapes	B	3	True	136	(3.8236768261914325, -6.9963071352524437)	(-3.0060931623064864, -2.37505493831965)	(-8.2130963601276612, -7.2146530136494995)	(5.2489075436777757, -2.8115154040775661)	1.0	slash	1.64926
32	M	A	N	M					N	4	2	shapes	N	3	True	136	(8.2327669744690724, 1.1167134234934935)	(-3.866413967778402, -6.8400048190939824)	(-3.6696149298272358, 3.8130688981853922)	(3.3342873668764259, -1.2399981404870424)	1.0	z	1.82502
1	M	A	B	B	M	A	N	N	B	8	0	shapes	M	4	False	136	(-3.7002601006849005, 1.6817380976240361)	(2.7194396488628048, 3.8392060326580584)	(-4.8037459303928554, 6.1809178316512927)	(1.4391352071300965, -4.4055065022988611)	1.0	slash	2.30643
2	M	B	A	M	A	N	B	N	A	8	2	shapes	A	4	True	136	(5.4404828357851294, 7.3290151752340265)	(-4.5275499227209268, -1.2193844062944086)	(6.7804789219161155, -8.4573405107199733)	(-7.4549605424778091, 3.2056910535469214)	1.0	z	1.57176
3	N	B	A	B	A	N	M	M	B	8	7	shapes	M	4	False	136	(-7.2922961842694338, -2.7764397981788047)	(5.1579095786074802, 2.1557754923927543)	(-1.8955758440409776, -5.1321768905919143)	(-1.8530768125618176, 4.9749244042113077)	1.0	slash	2.43545
4	N	B	B	A	A	M	M	N	M	8	4	shapes	A	4	False	136	(-5.3704822479064429, 2.804957718828053)	(2.895081786773428, -6.1937023267604099)	(0.34519277790174208, -2.7071460802167797)	(-6.7370732524867707, 7.5914543189245336)	1.0	slash	1.40704
5	N	A	N	M	A	M	B	B	M	8	5	shapes	M	4	True	136	(-5.5553285933175705, -8.5798152782557811)	(-4.4133914839084394, 3.3349025550225946)	(6.9883076325487234, 6.6380370338884287)	(-0.013059653340240729, -3.3503500487008413)	1.0	z	1.41857
6	M	A	A	N					B	4	2	shapes	A	4	False	136	(1.04969900947202, -3.491664618034787)	(-4.1880077541898952, 6.2590477159639217)	(2.0529142742310622, 1.1849509970487677)	(-4.9543154859575242, -6.1272491799392057)	1.0	slash	2.17215
7	N	A	A	N	M	B	B	M	M	8	4	shapes	M	4	True	136	(-8.379753414887837, -1.7087363821355428)	(-7.9255917398302351, 2.5845953221210429)	(4.8919608321664434, 5.8973766259032683)	(-1.6543757910116064, 3.155315080777001)	1.0	slash	1.48579
8	M	A	N	B					M	4	0	shapes	M	4	True	136	(4.6697210128595135, 7.2358781063321658)	(-7.1377773166750842, 6.093941362593597)	(4.8952386189675998, -3.4476068690171005)	(-7.7016729344014578, -3.989158652279138)	1.0	z	0.967284
9	M	B	M	B					B	4	1	shapes	B	4	True	136	(-5.6543306737233596, 7.4679672911911403)	(1.5997713219376752, 1.7453943070887767)	(0.40005095784447953, -7.0645608785671978)	(-4.7626721000618311, -3.8179463964034062)	1.0	z	1.07913
10	N	B	A	A					N	4	0	shapes	N	4	True	136	(5.3897832277981799, 1.0616453681262907)	(-8.6900636460028888, 8.3100425039081713)	(4.4101486199298368, -5.1648440620477194)	(-8.0629242325403219, -3.4402115262888877)	1.0	z	0.67862
11	N	B	M	N					B	4	2	shapes	M	4	False	136	(6.6147692772819084, -1.0643056602402616)	(-0.17926648215554586, 5.2665294601105135)	(3.4536432911952311, 3.0371908661774842)	(-1.3459602001896158, -0.56802929185037065)	1.0	slash	1.30814
12	M	A	M	A	B	N	N	B	A	8	1	shapes	A	4	True	136	(-3.7085838193287612, 3.8954518888261678)	(4.5387402402097994, 8.4715991398425317)	(0.89727125574728817, -1.1419684673563735)	(3.0494238046771542, -5.4749710960334044)	1.0	z	2.45789
13	M	A	N	B					B	4	0	shapes	M	4	False	136	(-5.1273410175269403, 3.4771022264953455)	(7.0621926821473853, -0.82868011223743832)	(2.2465373681259599, 7.0903135974552765)	(-6.5622902509271803, -1.453837293212568)	1.0	slash	1.98338
14	N	A	B	B					M	4	1	shapes	A	4	False	136	(-3.7206858509636618, 6.641638111887266)	(3.0867396538596825, -4.9995120423180008)	(5.7744252453066558, 4.2478728407949333)	(-8.1279426457642181, -8.5225975213673557)	1.0	slash	1.07693
15	M	B	M	A					M	4	0	shapes	M	4	True	136	(-0.28777381048351991, -5.572839475049614)	(7.5777765003053403, 0.17494031879223648)	(4.6799647134150621, -6.4925035677716423)	(-3.9194389865076502, 0.89155530039366759)	1.0	z	2.72326
16	M	B	A	N					A	4	2	shapes	A	4	True	136	(-2.220344760740006, 3.2348474617037759)	(1.4758645588018595, 6.0316266460481103)	(7.4257838582106537, -1.5659718948334689)	(-0.47389940535611075, -6.6887478024307256)	1.0	z	1.76207
17	M	A	N	A	M	B	B	N	M	8	2	shapes	N	4	False	136	(7.4001179398150114, -8.2347190943275663)	(6.0730111681111776, 8.1458427982977923)	(-0.019397925254457604, -8.360697296000053)	(4.0499128852617723, -0.57161710773224428)	1.0	z	1.14777
18	M	A	N	N	M	A	B	B	A	8	1	shapes	A	4	True	136	(-2.5455950004340382, -7.6441741414820186)	(3.9693801238231643, -4.0739629280190277)	(-2.5841357011686581, 1.1780441734237694)	(5.7400742247273264, 2.8478389124466066)	1.0	slash	1.20135
19	M	A	B	M	A	N	B	N	N	8	5	shapes	N	4	True	136	(-6.8940630489566059, 5.2111275252885036)	(-2.6753847831729889, 3.4754203458066968)	(3.379100204244212, -2.1391936266417861)	(-7.1971033257629937, -0.62434519373827513)	1.0	z	1.06888
20	M	A	M	N	N	B	B	A	A	8	1	shapes	A	4	True	136	(1.6888388989576804, 1.3687928031324059)	(2.1869663159581947, 7.2375315901199766)	(-4.2307765699997297, -1.6119333825487336)	(8.3164405880450865, -1.6917360743757719)	1.0	z	1.39054
21	M	B	N	B	A	A	N	M	M	8	2	shapes	N	4	False	136	(-5.0839996385068797, -3.1199566198536841)	(7.08519729218931, 7.3717671007556795)	(3.3568134198295834, -2.6440932971258233)	(-0.086934893019694925, 5.2616747912544248)	1.0	z	1.18228
22	N	A	M	N					M	4	3	shapes	N	4	False	136	(-3.1726425092693455, -4.5580354904794804)	(2.191260302506862, -3.481292689520247)	(6.7612929965879989, 4.5836217470651874)	(-2.9496847934648427, 8.599348845642055)	1.0	z	0.923865
23	N	A	M	A					A	4	3	shapes	A	4	True	136	(-8.5191852755595914, 2.7073946002175262)	(2.8918154327545356, -3.7631365286063145)	(5.6038509246620567, 6.1248186917642524)	(-4.6998926571031685, -1.1015467508221999)	1.0	z	0.861385
24	M	A	M	N					N	4	3	shapes	N	4	True	136	(-5.4536451394050331, 4.9084477978107675)	(6.0171614465144039, -3.4180352938576517)	(6.9455225076494642, 4.9760562043591339)	(-4.6301613080727586, -8.5255073575567621)	1.0	z	1.53895
25	M	B	A	A	N	N	M	B	A	8	7	shapes	B	4	False	136	(-4.1165700403961054, 1.2800818629368553)	(-1.940061132369447, -7.6644532980537514)	(-0.1234644411105581, 5.9620054098911055)	(5.2394534412294202, -1.0110440185197707)	1.0	z	0.862724
26	N	A	B	M	N	B	M	A	N	8	0	shapes	N	4	True	136	(6.4336797523976195, -0.43882420472562345)	(-0.34695200589101383, 7.9176787441986285)	(5.9547954575047459, 7.3087776164087686)	(-4.2692900477879476, -5.7505985246078897)	1.0	z	1.2862
27	N	A	N	B					B	4	0	shapes	N	4	False	136	(-6.3846487768011171, -0.48576463825368066)	(5.502101582026917, -4.7876724346889645)	(1.0356997956478011, 3.5699425938676033)	(-3.396044059616127, 8.01326916686277)	1.0	slash	1.40795
28	M	A	N	N	B	M	A	B	M	8	2	shapes	N	4	False	136	(7.8150571628820487, 6.4472347254150417)	(2.181221121491939, -7.0431960065492376)	(-4.1448869539837192, 1.1708488662446701)	(-8.3223868036520958, -0.45374705769998513)	1.0	z	0.861582
29	M	A	B	A	B	M	N	N	A	8	0	shapes	M	4	False	136	(-7.2437402934683988, 5.133331428579357)	(3.0220621295411281, 3.2417408631017288)	(5.1180258569526416, -1.3447310230958438)	(5.5940195832498372, -8.6861853850109227)	1.0	slash	1.17875
30	N	B	M	A					M	4	2	shapes	M	4	True	136	(5.9921371356030022, -2.8328567961117654)	(-0.013459328198827336, 0.32029232184620682)	(-1.1887955190701867, -4.8261173790473375)	(4.6669506252434196, 8.1888394242321745)	1.0	z	0.977111
31	N	B	B	A					M	4	3	shapes	A	4	False	136	(8.6930844947564623, -5.3211595380475805)	(-4.4834395748753533, 7.4136374209245339)	(3.2457683018109229, 3.9500296941436392)	(-4.8785684162506193, -2.3774850232906548)	1.0	slash	1.23249
32	M	B	B	A					M	4	2	shapes	B	4	False	136	(0.78805863301827195, -0.33652162482365)	(7.8319752478717994, 0.85690667861723568)	(-2.8479766941507378, -5.4425623584425162)	(-6.3643793279989112, 2.8797342043656382)	1.0	slash	0.956276
1	M	B	M	B	N	A	N	A	M	8	2	shapes	M	5	True	136	(3.2528181156980231, -0.92139780379830682)	(-8.1658890474847645, -7.4232641141540565)	(5.7985539854894306, 3.8922220392385558)	(-1.8642684276010337, -0.60856615368728662)	1.0	slash	1.16168
2	M	B	A	A					A	4	3	shapes	A	5	True	136	(0.44017237726387748, 4.1053111364944357)	(-7.0678445234504821, -3.5221777859954955)	(6.8328482263509382, -8.2726197096888576)	(-4.4569675743787833, 8.0605434958434365)	1.0	z	1.42747
3	M	A	A	B					A	4	2	shapes	A	5	True	136	(4.6892511191903505, 3.6364813785168018)	(-7.8330763437034872, 4.8713749630096483)	(-6.1213858227400602, -6.5913389795427211)	(0.33621407012835824, -1.5489003475699503)	1.0	z	0.916979
4	N	B	A	N	A	B	M	M	N	8	7	shapes	M	5	False	136	(-0.038142915353590823, -8.4728239290694543)	(8.5158367009734626, 4.5519622530779582)	(-8.1241040876136488, 3.8124392974570327)	(-2.4469774671481286, 8.0577391457542262)	1.0	slash	2.16461
5	N	B	B	M	M	A	N	A	M	8	6	shapes	N	5	False	136	(-8.5848693105207836, -3.6967379163596075)	(-6.7537970547091346, 3.1098989018408183)	(7.2872990797717385, 8.2325731591371571)	(7.8839785676956851, -1.6550142469377969)	1.0	slash	1.82771
6	N	A	A	B					B	4	3	shapes	B	5	True	136	(-8.19160937817567, 1.1451936822559148)	(3.0209300393619944, -4.0590887374468005)	(0.71622725574627211, 0.9729031365061438)	(-1.0819513389403852, -4.790549842979134)	1.0	z	1.18376
7	N	A	M	A					N	4	3	shapes	A	5	False	136	(7.0007352542517491, -8.2799624785094341)	(-7.9044591732286715, -2.6188140523626595)	(-7.5412908019693932, 3.3517040319755704)	(2.4130106222087147, 7.6256826351831855)	1.0	slash	1.08524
8	M	A	B	B	N	N	A	M	A	8	7	shapes	M	5	False	136	(0.036656476346569988, -6.4869045319296221)	(4.7903807056878502, -3.2205757494441674)	(-6.9908812661766806, 4.6281506151799103)	(3.9090896293298893, 6.8307869451371293)	1.0	slash	0.825022
9	M	A	N	M	A	N	B	B	A	8	6	shapes	B	5	False	136	(-7.0087680624406659, 8.1584752666000036)	(3.4269018217146581, 5.3541097423849706)	(8.6162357965176817, -1.2576627833113294)	(-3.1140709180249981, 0.53509664871145723)	1.0	z	0.816642
10	N	A	B	N					N	4	1	shapes	A	5	False	136	(8.3820432192995824, -2.1936461651347967)	(-2.9527071504496911, -6.1442562174659621)	(0.19342499032356031, 5.4341388391671739)	(-8.5548430199557366, 8.7116709011661406)	1.0	z	1.09619
11	M	B	A	B					M	4	0	shapes	M	5	True	136	(-3.2321180046624303, -4.1328741857185269)	(6.6401282620448523, 6.7762787408649192)	(8.0005432154863882, -4.826003270157508)	(-7.49684245970231, 8.0342454373594165)	1.0	z	0.911913
12	M	A	B	M					N	4	0	shapes	M	5	False	136	(-8.7315539794354322, 6.3670275801023131)	(-4.0455766393530626, -1.4276075297945772)	(4.3430196715120939, 2.4902374429567082)	(3.5734365859585644, -3.3274319803139454)	1.0	z	1.53541
13	N	B	N	B					B	4	1	shapes	B	5	True	136	(8.5578199960135883, -0.9437897449253656)	(5.1205745083875289, 7.3721493361014865)	(-5.4457540681933612, 2.1692779099265067)	(-8.2493804642985271, -0.85409035970774294)	1.0	z	0.869122
14	M	B	B	M					M	4	0	shapes	M	5	True	136	(-4.8774238266826551, 0.73814102684326244)	(3.277038057930838, -4.2605169129099911)	(-1.6985536665969683, -5.13650741976058)	(3.3896221893445375, 3.5987685453302838)	1.0	z	0.680831
15	M	B	A	N					N	4	0	shapes	M	5	False	136	(1.8836496488445302, 3.3441008168489059)	(-1.2435001656169673, -6.3775119680341952)	(7.8020018988017412, -4.2421321811921047)	(-3.2296219268839375, 2.7029772221431596)	1.0	slash	1.27407
16	N	A	A	N	B	B	M	M	A	8	1	shapes	A	5	True	136	(5.7024053006009368, -7.1751764195051777)	(-1.6028752772595372, -6.2966517643679749)	(7.5995092353884957, -2.0655195838184284)	(4.0563443047912138, 8.4353917509416796)	1.0	z	1.04818
17	M	B	N	M					A	4	2	shapes	N	5	False	136	(4.4833949659509216, -3.0151860457043904)	(-8.4313510015484106, -3.7861890961133646)	(1.3322102302572016, 0.16868418596834367)	(-1.9214426237332631, 6.9313786952276928)	1.0	slash	0.631474
18	N	A	M	A					N	4	0	shapes	N	5	True	136	(-7.942358267906406, 8.0199245863368489)	(5.8781882766103823, 3.1506657358647328)	(-3.4249356536326445, -7.2859029636920809)	(2.2769841339398589, -6.6270064518438829)	1.0	z	1.13927
19	M	A	B	A					A	4	3	shapes	A	5	True	136	(0.53685729322378606, 1.7237685607489102)	(-4.6952952837441622, -7.359122042424624)	(-3.2282348045026108, 5.5751858069302287)	(6.8998493749022405, -5.4365649711895667)	1.0	slash	0.697054
20	N	A	B	A	N	B	M	M	M	8	6	shapes	M	5	True	136	(-6.6931464517549717, -6.0765635913281688)	(1.1713126541385854, -3.3613255764599925)	(4.055989836323656, 8.49152725246174)	(6.0158776823676305, -8.7469361926733455)	1.0	z	0.754476
21	N	B	M	N	M	B	A	A	B	8	7	shapes	A	5	False	136	(1.1137087880340495, -0.18861175677529296)	(0.24217188437344106, 7.7451654653358766)	(4.4365905329947388, 5.1554751703734123)	(-8.7321395661485983, -6.2132917963435279)	1.0	z	0.760046
22	N	A	A	N	B	M	M	B	N	8	6	shapes	M	5	False	136	(4.9915835932363493, 5.8632346212898216)	(-8.3008239962827499, -7.8202153865505668)	(5.7397347114733712, -8.1512345981814232)	(-3.91433528654151, -6.2353961781359271)	1.0	z	0.826045
23	N	B	A	A	N	M	M	B	B	8	7	shapes	B	5	True	136	(-7.8398860037641738, -7.2553203800822068)	(1.5678364989444891, 1.6248741551790875)	(-8.5388651932908815, 4.0270344120626564)	(7.3745025428227322, 7.1878468095693115)	1.0	z	0.705604
24	N	B	B	A	M	A	M	N	N	8	7	shapes	N	5	True	136	(2.5182733155357049, 0.83527725988604296)	(3.5043970657730235, 6.421561625250483)	(-1.6404896184788171, -1.4680079631737648)	(6.4896192690020111, -6.4026271677443471)	1.0	z	0.815204
25	N	B	B	N	M	A	M	A	N	8	0	shapes	N	5	True	136	(2.5070036021237048, -0.40405198267983344)	(-0.52032644573287712, 3.8914390425802452)	(7.2943437978923136, 2.9025938375353775)	(3.1974855353586715, 6.9206109331789918)	1.0	slash	1.30284
26	M	A	A	N					A	4	0	shapes	M	5	False	136	(-6.878297927379486, -5.7582438001177856)	(0.036174922661764697, -5.742490125534931)	(-0.88515280174298017, 2.0142003596475497)	(3.0158895617835011, 6.0661799048122962)	1.0	slash	0.948827
27	N	B	N	B	A	A	M	M	N	8	2	shapes	N	5	True	136	(1.0753599682956665, -0.58174665501842426)	(-1.536047121625888, 2.9751934599559835)	(-2.2873357055662744, -7.3125262342539532)	(3.0293409936228297, -7.7181860372261619)	1.0	slash	0.733419
28	N	A	N	M	A	B	M	B	A	8	0	shapes	N	5	False	136	(8.3809408845113325, 0.32406545792007435)	(-0.48772121455812822, -1.1068094695941557)	(-5.3213460271387456, 8.6840035222951286)	(-4.4907534616206517, 2.8438386948099375)	1.0	slash	0.881819
29	N	B	A	B	M	M	A	N	M	8	4	shapes	M	5	True	136	(8.219065571944423, 5.1413471462012108)	(-0.99880907449220135, -5.8909102698071116)	(2.8984367873692847, -0.86168177137499402)	(-6.1738211960534448, 5.8040040102290078)	1.0	slash	1.17356
30	N	A	B	B					A	4	2	shapes	B	5	False	136	(-6.4556328402156016, -7.7538286186814487)	(7.8563643324855832, -0.70982901582240387)	(-5.6137401388730517, 2.5280268962629915)	(3.1260072571404205, 2.0840498875755067)	1.0	z	1.34871
31	N	B	N	B	M	M	A	A	B	8	0	shapes	N	5	False	136	(-3.7021795505472861, -1.8977261285805627)	(2.7823493956308223, -6.9654762428805803)	(1.2025383120054656, -1.9114113405447091)	(-6.1983265603253148, -8.0669602538190173)	1.0	slash	1.85675
32	M	B	B	M					N	4	3	shapes	M	5	False	136	(8.3766591899527505, 7.5156082872806316)	(-2.144792977881119, 5.9745437567948834)	(-1.3531389338707331, -8.5172485367308326)	(5.7212556612615906, -3.0602190810078689)	1.0	slash	2.36026
1	M	B	M	B					M	4	2	shapes	M	6	True	136	(5.5680236188986427, -0.29582740560792686)	(0.20035697283710441, 1.2163791054347559)	(-3.7783699650979115, -2.3265621552516542)	(-1.5777848744932452, 5.2655507471653085)	1.0	z	0.907863
2	N	A	A	N	B	B	M	M	M	8	7	shapes	M	6	True	136	(4.3131422092450311, 4.6805137957022573)	(4.6314431816357562, 0.19678867345168527)	(-2.8663455801423252, -7.8997192295097038)	(-1.0890003002052993, 5.2524537672658198)	1.0	z	0.95337
3	M	B	M	A	A	B	N	N	A	8	6	shapes	N	6	False	136	(3.3453050389578962, -0.31308194038534509)	(5.4401309065045584, 6.0685527128826813)	(-1.2508351316246324, 6.0815451808149472)	(5.3518486084433103, -3.9698794408381879)	1.0	z	2.04693
4	M	A	B	N					M	4	0	shapes	M	6	True	136	(-1.0976200879333602, -6.5124071356702533)	(6.4073405423632614, 3.9378172335691701)	(-2.1214759851810623, 1.791899941444246)	(8.0171279591765483, -4.1068111518791808)	1.0	slash	3.72841
5	N	B	B	A	A	M	N	M	A	8	2	shapes	B	6	False	136	(6.8068040572279056, 3.3569202165070617)	(-6.7167361021967213, 4.2537221161502501)	(0.57211342777916663, 3.9925529375048772)	(0.85442156143848003, -0.5228832248257369)	1.0	slash	2.08989
6	M	B	N	M					A	4	0	shapes	M	6	False	136	(-5.0892226785364034, 1.3553921128985742)	(-2.9905004762018592, -2.3710633194463719)	(8.5720666147836901, -2.3229191700112537)	(0.32932332966522182, 1.9537879837338092)	1.0	slash	0.88948
7	N	A	A	B	B	M	N	M	B	8	2	shapes	A	6	False	136	(1.8546665406659155, -8.0094956522173391)	(-2.9164612224855695, 1.3163278549019193)	(-3.8023555602135577, -3.2111835537151867)	(3.7836992677223407, 6.0398178474225386)	1.0	z	1.35325
8	N	A	A	N	B	M	B	M	A	8	2	shapes	A	6	True	136	(-2.9166536625329016, 5.4751734392901348)	(-1.4645375586869376, -8.0950933255105717)	(2.3075643675047228, 3.3280938299201015)	(4.3108254993240411, -2.978839777899271)	1.0	z	0.910851
9	M	A	M	A					N	4	0	shapes	M	6	False	136	(1.1549211821860332, 6.8012244886177893)	(0.83227339025488689, -1.0401195776528764)	(-8.6304617457409609, 2.1780096762989398)	(-0.48612896218589796, -7.6401445587209622)	1.0	z	1.26203
10	M	B	M	B	A	N	N	A	A	8	7	shapes	A	6	True	136	(8.0502256116844322, 2.9674312552043656)	(-7.6309918423205314, -2.3207256021726206)	(6.0769395319108526, 7.9601605015468166)	(6.0667484798283606, -6.8220055450629626)	1.0	slash	0.995909
11	M	A	M	B	B	A	N	N	M	8	0	shapes	M	6	True	136	(8.0259137863118006, 2.5999658843434617)	(-1.4110980710425975, 0.57424441282316785)	(3.7897893763349035, -5.9351678432392045)	(-5.087363966125233, 4.5178544929434921)	1.0	slash	3.81972
12	M	B	M	N					M	4	1	shapes	B	6	False	136	(5.5526487959975803, 5.1212268794898907)	(-1.8039118632590005, -5.4064395333928008)	(-1.1496569770864031, 0.54430021258171557)	(5.724690123198279, -3.8325744532924562)	1.0	slash	1.19305
13	N	A	B	B					M	4	0	shapes	N	6	False	136	(-2.2492429344156823, -1.3725899836142466)	(6.0754376939986656, 2.8025881528029117)	(6.835256527771655, -5.2542886707300829)	(-0.28012195165212717, 2.4985395655466007)	1.0	z	1.06885
14	N	A	A	B	N	B	M	M	A	8	0	shapes	N	6	False	136	(-6.930434415069076, 0.6199946552747484)	(0.9915767821804824, -6.2253661086933523)	(4.77371418938211, 6.8557380810008297)	(7.8260224523929871, -5.9191171466358146)	1.0	slash	1.1463
15	M	B	N	B					B	4	1	shapes	B	6	True	136	(1.178930779606068, -4.7873967427187116)	(-5.9557130101187203, -4.2817714164371896)	(0.13504225550031634, 8.2170542504877062)	(-7.9328987316060244, 5.7115287754811277)	1.0	z	1.40005
16	N	B	B	M					B	4	0	shapes	N	6	False	136	(-7.3419359556758437, -4.2878487979665074)	(-8.2718632902544762, 1.9853063066172165)	(7.3803490133074661, 1.4700145529881894)	(4.3910490937905848, -6.7333417735796246)	1.0	z	1.36963
17	M	A	B	M	B	A	N	N	N	8	3	shapes	M	6	False	136	(-0.11538312165580855, -4.4800447036780637)	(0.47667673771221075, 8.0697545869226026)	(4.0961537596983302, -2.244601983238482)	(-8.2082427337473263, -8.3362900938115114)	1.0	z	1.09331
18	N	B	M	M					B	4	1	shapes	B	6	True	136	(-3.7908179225598433, -5.1780682277005017)	(-1.9935490681362573, 6.7434664687447441)	(5.753372109028339, 5.5126934820575482)	(6.746605340359249, -2.9700422282716756)	1.0	z	0.876921
19	N	B	B	M	M	N	A	A	A	8	2	shapes	B	6	False	136	(-5.2579598181306055, -7.4790903154834369)	(-4.9840083470057381, 6.2596056610564954)	(0.49846483935440489, 5.520523237201358)	(-1.504351014061629, -0.97324821650134918)	1.0	z	1.88044
20	M	A	N	B					N	4	3	shapes	B	6	False	136	(1.668017129356123, -8.4163018718203038)	(1.6367362608277833, 0.034121955831814432)	(-7.180778644498214, 5.351942535565561)	(-6.4861677616012319, -3.1153020749411731)	1.0	z	0.802105
21	N	A	A	B					A	4	3	shapes	B	6	False	136	(-7.767344083823863, 2.2205176716919617)	(-3.6649506378644183, -7.182132560303204)	(1.1706352266154045, 4.6743219718942157)	(7.5233388280224034, -2.963290903490881)	1.0	z	1.27781
22	M	B	A	B					A	4	2	shapes	A	6	True	136	(-4.2507941291900426, 1.5190090963394862)	(-3.2395440239214341, -3.3392626319940595)	(3.1221040182656843, -2.5315721326000364)	(4.8429541876193554, 1.5403384678771843)	1.0	z	1.43934
23	M	B	N	A	A	M	N	B	N	8	6	shapes	N	6	True	136	(-0.83359879199919451, 7.3666525802325253)	(5.7107445555818348, -3.5843715065428547)	(3.0266151453514407, 4.1402920304162105)	(-6.4976995062114637, -3.2820233805031709)	1.0	z	1.54876
24	M	A	B	N	N	B	M	A	N	8	7	shapes	A	6	False	136	(2.1839594249378393, -6.7467682387378964)	(6.5605589119197081, 7.7102572486750134)	(5.8777938430823546, 3.0706718692696224)	(-5.8886478105261748, 8.0333968001044767)	1.0	slash	1.56439
25	N	A	A	M	N	B	B	M	A	8	7	shapes	M	6	False	136	(7.3734514305475187, -6.6620602934451618)	(6.5511835157694343, 4.0631118796355228)	(-2.9342808587254865, 5.7365988905437497)	(1.6355216902167999, 5.2968951728660087)	1.0	slash	1.91232
26	M	B	M	A					B	4	1	shapes	B	6	True	136	(6.2052306472571637, -4.2552797664765718)	(7.9279165874401087, 6.6665898257091687)	(-1.6463470412086929, -4.9705810688075349)	(-6.9129818620421792, 4.8868703890215244)	1.0	z	1.52397
27	N	A	B	B	N	M	M	A	N	8	4	shapes	N	6	True	136	(3.6269062823956819, 2.8808085599600268)	(0.98964137914962969, -4.3906940711416507)	(7.8784613345673478, -8.6833138899858735)	(-6.6428811398333574, 3.7999385501090082)	1.0	z	1.79022
28	N	A	N	A					A	4	2	shapes	N	6	False	136	(7.35742266850907, 0.75959469297562521)	(-2.4484824082050265, 8.4240415374593809)	(-6.922887755191506, -5.0622664293050637)	(3.3455470034908696, -7.255239194150259)	1.0	slash	3.26677
29	M	B	B	A	M	A	N	N	N	8	7	shapes	N	6	True	136	(1.7155465451637468, -4.8214621870466203)	(-7.5191175369798531, -0.15125263632824471)	(6.2419866315650516, 4.5724256610006844)	(-5.3083373269710084, 7.113903985865365)	1.0	slash	1.19972
30	N	B	B	A	N	A	M	M	M	8	6	shapes	M	6	True	136	(1.7002574255267255, -5.6778609193451528)	(1.4074715849496489, 6.5910108395217399)	(-6.1482831243006908, 5.2068044511375273)	(3.252631940482436, 1.6077534898437236)	1.0	z	1.19753
31	N	A	A	B					A	4	1	shapes	A	6	True	136	(1.700914723657176, 3.1825281698814081)	(2.8116460486742856, -1.8887839222627454)	(-2.1400851165742401, -6.124279504222975)	(-6.0696819411967686, 7.9485005078834838)	1.0	z	0.959646
32	N	B	M	M					B	4	1	shapes	B	6	True	136	(0.23595068446851108, -4.5153771537630636)	(6.6792153229374147, 0.34477368606127357)	(-3.7786345126924701, -7.2377200137576265)	(-5.3926077419664926, 0.87960996814029713)	1.0	z	1.6492
1	N	B	M	M	A	N	B	A	B	8	1	shapes	B	7	True	136	(-6.0730403511366404, -6.0019150496073754)	(2.5419689530302634, -8.7169947925340026)	(-5.1027786064757734, 4.7528210990678339)	(6.0829297645380986, 8.7293110520873611)	1.0	z	0.970691
2	M	A	A	B	B	M	N	N	A	8	1	shapes	A	7	True	136	(-4.0745647290667248, 8.4562506236269925)	(6.5284319337362948, -2.7542471986466905)	(2.4542604495675882, -0.27701153538582268)	(2.7949350786826628, 5.8009580291910474)	1.0	z	0.758418
3	M	B	N	A	B	A	M	N	B	8	1	shapes	B	7	True	136	(-3.1300518761120948, 7.5332121096476925)	(-3.3288579831828455, -3.4499014042027998)	(1.9489027460915409, 1.5123929629002681)	(1.6303335317318925, 6.6243163047823881)	1.0	z	0.443939
4	M	B	N	A					A	4	3	shapes	A	7	True	136	(3.8415921205382801, 1.6030475637004749)	(-5.7668786932053351, 1.6229634791848078)	(-6.3915407275373015, -5.2254372371724669)	(3.6785598578594652, -4.9780287041858937)	1.0	z	0.72565
5	M	A	N	M	N	A	B	B	M	8	7	shapes	B	7	False	136	(7.782217167489101, -8.165662034856533)	(6.0822396565988832, 8.3495300949572382)	(-1.9144494272632144, -0.78622162270331764)	(-6.4305770213417492, 5.0525542762613824)	1.0	slash	1.72733
6	N	A	M	N	B	A	B	M	M	8	2	shapes	M	7	True	136	(-2.9880718605800496, -2.6051819287312403)	(2.9483340328912551, 2.7709382780974643)	(4.5017328357454698, -4.530498533699264)	(-2.3971201718063124, -8.0857781494933683)	1.0	slash	1.48811
7	N	B	B	M					B	4	2	shapes	B	7	True	136	(0.4843716151979347, -7.5804463391326902)	(-5.7548525632520038, 2.4637691249122202)	(2.5351846001875611, 6.0381322947472089)	(-1.0021753362989179, -3.7381185267871455)	1.0	z	0.8881
8	M	B	B	A	N	N	A	M	B	8	0	shapes	M	7	False	136	(-5.8419888545757015, -1.8055845975795188)	(4.1380539213138459, -4.4668821409265735)	(3.1432712254741872, 7.3699124553497128)	(-0.92081612008987435, -2.321858859253715)	1.0	z	1.18609
9	N	B	M	M	A	N	A	B	N	8	2	shapes	M	7	False	136	(-7.2985921103884932, 5.0279636855136545)	(5.441308154861888, 4.7121447816213085)	(2.6421335970898596, -4.5032617791422584)	(6.6337905165904125, -3.0247135150484024)	1.0	z	1.76778
10	M	A	M	B	B	N	N	A	A	8	0	shapes	M	7	False	136	(-6.6506130615703309, 7.5945572268818857)	(-1.449864382194888, 8.6152233936586846)	(4.3498439284946588, 6.5849985058990654)	(2.1099583934409836, -3.5245088468815675)	1.0	z	1.67539
11	M	B	M	B					A	4	2	shapes	M	7	False	136	(-0.94372008820169562, -8.0461249102234138)	(2.5909791627412613, 8.4956671002714259)	(-5.2124816640360816, 0.47551750613024169)	(2.9621523891499439, -3.7416827304095213)	1.0	slash	1.83907
12	M	A	N	M					M	4	0	shapes	M	7	True	136	(3.786984958483405, 6.840573150167133)	(3.3444610302745179, -3.5655798742692939)	(-7.3344568337485914, -4.1887464073323057)	(-5.6828219675935516, 1.9782683308338118)	1.0	z	0.720617
13	N	B	N	A					A	4	0	shapes	N	7	False	136	(-4.2372540056216099, -4.4920501152493859)	(8.455146414319433, -5.3258979066196979)	(1.3545365765295028, 1.3155621935912389)	(-6.5789542453211087, 1.1790821917119185)	1.0	slash	1.62627
14	M	B	A	M	N	B	N	A	B	8	1	shapes	B	7	True	136	(-5.4497755347603754, 3.504105128657768)	(-0.70428719329344602, -3.9814559001060346)	(3.8340898076339371, 5.944112411726632)	(0.34513401269656541, -8.2554250338982218)	1.0	slash	1.96984
15	M	B	A	B	M	A	N	N	A	8	6	shapes	N	7	False	136	(-6.5877088922121008, -0.57732392002437471)	(-3.3241584936773405, 6.1050593875669872)	(5.4947137380062099, 7.7587175891758342)	(4.7221980687275611, 0.61327663142638045)	1.0	slash	1.13137
16	M	A	M	N					B	4	0	shapes	M	7	False	136	(8.0465000236169431, 8.5974197777209973)	(-7.8088897235163177, -0.022870847558699836)	(-2.7411262391549984, 6.486180094265821)	(4.4979215863607429, -0.65207844887791921)	1.0	slash	0.986887
17	M	B	N	N	M	B	A	A	M	8	3	shapes	N	7	False	136	(3.753705798014753, 1.4512014658823329)	(4.1504806124864366, 7.4423126108989557)	(-1.5672694907653337, 4.8398370778031516)	(-4.2680046758432653, -6.7122382772646629)	1.0	slash	1.79472
18	N	B	M	B	N	A	M	A	B	8	2	shapes	M	7	False	136	(-7.5672653379554209, -6.4312762435977868)	(8.4644100563091023, -0.91334753118512335)	(4.0757145998836997, 4.3940423125509742)	(-2.3843695797315378, -2.2311080524327203)	1.0	z	0.840314
19	N	B	B	N					A	4	0	shapes	N	7	False	136	(-7.2334238346706279, 4.7019702470313174)	(-8.1145419031647883, -0.60923639316435008)	(6.634637063916859, 5.3309420732001289)	(2.7454765597319497, -4.1211127325605599)	1.0	slash	1.2659
20	N	A	B	M					A	4	1	shapes	A	7	True	136	(-1.1436840859199018, -7.1944123162467672)	(5.0449380163927202, 1.8387464181049005)	(-8.6370141780140663, 6.2149662539202541)	(7.8220875223415227, -8.5176462605086787)	1.0	z	1.02957
21	N	A	B	N	M	A	B	M	N	8	6	shapes	B	7	False	136	(8.0551539104584648, 3.0097397951563405)	(-5.7334958739189643, -6.2262886690513568)	(-2.1985504415754491, -0.59615278688379547)	(2.6183060918158212, 1.589601409444251)	1.0	slash	0.79318
22	M	A	N	M					A	4	2	shapes	N	7	False	136	(-0.60975564737128884, 0.83240821672719889)	(7.6130857346384175, -1.6262118242216452)	(-2.0387338516778017, -4.961534860115659)	(4.3591313438048829, 7.3349989742796353)	1.0	slash	2.17881
23	N	A	N	A	B	B	M	M	M	8	6	shapes	M	7	True	136	(-5.2004796196521532, -4.8037109785391046)	(2.0186923535392651, 7.2968572348242375)	(5.2347524171675026, -2.875174332093362)	(-7.8724868902888527, 8.1794100958894553)	1.0	slash	1.10639
24	N	B	B	N	M	M	A	A	M	8	4	shapes	M	7	True	136	(5.7984954735583418, -5.2333089538652153)	(-0.76084166259687613, -0.89798727705064785)	(-6.7446903811797991, 8.3622455817178754)	(-4.2093861454943093, -6.5375061369822802)	1.0	slash	0.863912
25	M	A	N	N					B	4	0	shapes	M	7	False	136	(-6.3555592425134728, -7.4492985304273214)	(2.7091910200773697, -4.8724697784705029)	(2.9591061937093759, 7.150061532811339)	(-5.0096087931504503, 5.1714970354374703)	1.0	slash	0.939647
26	N	A	N	B					A	4	2	shapes	N	7	False	136	(-2.5928430099493429, -6.0079575774959491)	(8.6915267256449198, 1.5024412796211237)	(-2.8589368812248335, 0.78503774351530353)	(3.6746702967414002, -3.0483428192589388)	1.0	slash	0.985212
27	N	A	A	B					A	4	2	shapes	A	7	True	136	(7.184246138350483, -3.3105427166244503)	(-8.4101717278399786, -8.4928761803529049)	(-2.339542391246427, 4.646916024974896)	(8.3814260215682062, 4.0973198336654946)	1.0	z	0.840529
28	N	A	N	B					B	4	3	shapes	B	7	True	136	(7.3309504268510288, 5.3980149531557107)	(-7.204266476395329, 7.9863783464762683)	(1.5921625242361941, -1.3151814500055394)	(-7.1578307689954297, -6.7315079861068998)	1.0	z	0.758349
29	N	B	B	M					M	4	3	shapes	M	7	True	136	(2.8771144771333432, 1.3574785037783847)	(8.3587674422252043, -0.30252847222071821)	(-6.9023447474411981, -2.8506754074226777)	(-0.92358474998502427, 5.1076288643812653)	1.0	slash	1.00806
30	M	A	N	A	N	M	B	B	N	8	4	shapes	N	7	True	136	(5.5825591137082036, -2.9539867371144393)	(-7.7097006000690067, -8.3947567751762442)	(8.4404052623730941, 3.8337123022880704)	(-0.86692590648890722, -4.8747178805795475)	1.0	z	1.4257
31	M	A	M	A					A	4	2	shapes	M	7	False	136	(-1.1775830649210794, 5.7742717313899661)	(-0.39955590496496463, -3.3304991983019425)	(3.5067765791224588, 1.4475583752605061)	(7.1955101495148543, -0.38016679992496272)	1.0	slash	1.96543
32	N	A	N	B					N	4	2	shapes	N	7	True	136	(-6.8428401854570602, 4.6594104213916125)	(-3.7851276639442313, -6.6881532450166361)	(7.6991120802024362, 3.2132060946691023)	(6.3365808950421325, -6.1388317100638057)	1.0	z	1.24694
1	N	B	N	M					M	4	0	shapes	N	8	False	136	(-8.6227572182629846, -0.44803998980418847)	(0.78990192422958572, -5.3377108681002152)	(4.3733126452363003, 6.1987036634359072)	(-2.7722259994225649, 0.53201876897425748)	1.0	z	1.5824
2	N	A	B	N	A	B	M	M	M	8	0	shapes	N	8	False	136	(-5.3703603965398212, 7.6282648718103658)	(2.2234421214609785, -4.6174200169477935)	(8.2270142289482848, 8.3166645241908661)	(-2.2722372367952461, -6.9410461388555182)	1.0	z	0.691725
3	M	A	B	B	N	A	M	N	B	8	7	shapes	N	8	False	136	(8.1748301997999775, -7.9777035003339414)	(6.8782174157888036, 4.4036238591237353)	(-6.9598800245244439, -5.1274455972933328)	(1.6378890038635525, -6.1476394991377692)	1.0	slash	1.44967
4	N	A	A	B					B	4	1	shapes	A	8	False	136	(4.5605858391281853, 5.2938670902365761)	(-0.12707285484096609, 6.9237175218698148)	(-6.7372654536496972, -4.4280606805311731)	(6.1469423787029509, -0.26342131590485351)	1.0	z	0.839397
5	N	A	M	M	A	N	B	B	N	8	7	shapes	B	8	False	136	(6.1769330325308616, -8.3828456921790746)	(-4.3383039383299895, -4.3119799825455516)	(-7.2511940273006497, 7.1062662950897337)	(0.11229702384611606, -1.3779027448571828)	1.0	z	0.948702
6	M	A	B	N					A	4	2	shapes	B	8	False	136	(-8.173638676070107, -5.2526363965627851)	(-7.4083755314625801, 8.6867430219745145)	(2.1081782971191529, 2.0202387518256266)	(7.40026466758232, -3.526934591648371)	1.0	slash	1.10472
7	N	B	N	M	M	A	B	A	M	8	7	shapes	A	8	False	136	(7.5005007042034606, 8.3129783324028068)	(3.4789087422478868, 5.3812987045480138)	(6.6112961606306104, -0.69455255725569742)	(0.97068316534072885, -7.5181914077764844)	1.0	slash	0.710281
8	M	B	B	M					B	4	1	shapes	B	8	True	136	(4.6955299433115751, -6.9889322698941507)	(7.3505603324628659, 6.2722601373782769)	(-5.1107293621307086, -8.060064089514821)	(-0.26559494872587486, 4.802879900387369)	1.0	z	1.08808
9	N	B	N	M	M	A	A	B	M	8	3	shapes	M	8	True	136	(6.4607309701503421, -8.3830404389519142)	(4.0138585207691886, 1.7620827547470199)	(-6.097094151037993, 6.9908646949035944)	(-1.9083830354307239, -8.5623333750772357)	1.0	slash	1.69752
10	N	B	N	B	M	M	A	A	A	8	6	shapes	A	8	True	136	(-4.0944682944489994, -0.43009880536542688)	(0.76544988831786753, 6.4099578268814437)	(0.215023993597244, 0.93777295060084853)	(-1.0692088943498606, -6.6160406630529707)	1.0	z	1.12119
11	M	B	A	N	B	A	N	M	A	8	6	shapes	N	8	False	136	(-6.81165654789379, -1.6902122349328312)	(-4.8547124954376866, 7.7815272603950625)	(-2.7965412690482641, -8.1551543146366647)	(2.7757566421732509, -2.1242040309969195)	1.0	slash	1.12689
12	N	A	M	M					A	4	1	shapes	A	8	True	136	(-7.9941436185350199, -8.0929273834505331)	(2.0007081196292109, -0.67425449127713755)	(-5.7735780764172571, 0.31747861449960979)	(6.2618493726038658, 5.6672299686802585)	1.0	z	1.22848
13	N	A	N	M					A	4	0	shapes	N	8	False	136	(-6.9931515783757154, 5.6847577558080502)	(-1.7032416312377867, -6.3203357444430317)	(0.28328206982066995, 0.48603005635374075)	(2.4282477998361482, -3.7161285232308288)	1.0	slash	0.960007
14	M	B	B	M					M	4	3	shapes	M	8	True	136	(-0.55407808383411883, -1.7551839921240289)	(-2.6866512469607429, 5.0038463023402553)	(3.8425344260091272, 5.452498620133607)	(8.429654664958516, -3.2608405661143598)	1.0	z	0.897725
15	N	B	B	N					A	4	0	shapes	N	8	False	136	(-4.6537006169176767, 6.963034378755296)	(-1.7872098561870757, -5.8982750542233591)	(0.97089301554937357, -1.8441072930731952)	(5.8505399950001618, 4.3159612838337083)	1.0	slash	0.769322
16	M	A	M	B					A	4	2	shapes	M	8	False	136	(7.8389086925637486, 5.607568637187379)	(-1.0087185425951075, 4.6980144057113318)	(8.3400591095562291, -0.015200559297801064)	(-6.6275939875609584, -8.3730318342348884)	1.0	slash	0.873004
17	N	B	N	A					N	4	3	shapes	A	8	False	136	(-7.1464873702085878, -6.513352853695495)	(-0.55172945140421703, 8.6409775074253012)	(0.23058415855123471, -7.4646053856996009)	(3.60570901405241, 7.4871746227229927)	1.0	slash	0.668808
18	M	B	A	B	M	N	A	N	M	8	4	shapes	M	8	True	136	(-1.6346133676300036, -1.5857565794103499)	(-1.6039997527320971, 6.1567170169753602)	(7.6692548334014425, -6.2654800213568418)	(-4.6460912618580279, -8.6950042649521802)	1.0	slash	0.715891
19	M	A	M	N	N	A	B	B	A	8	1	shapes	A	8	True	136	(-1.3754404840593839, 3.7712749315549257)	(-3.4356143030804676, -1.6181765030285984)	(-7.6153114560249646, 2.9557033954162666)	(3.0154991864089666, 5.9991270975135578)	1.0	slash	0.729845
20	M	B	B	N	N	A	M	A	B	8	2	shapes	B	8	True	136	(-7.8911857011913096, -0.16690032715712988)	(-1.1072658506233966, 7.5237845581713003)	(7.3787207765137346, -7.1131547567135502)	(3.0077646264701485, 1.6358287628285773)	1.0	z	0.933893
21	M	B	M	N					M	4	2	shapes	M	8	True	136	(-0.24853839539499489, -0.92645679356371513)	(-6.5001923691008656, 8.5777876247081082)	(7.3821015485117023, 2.6123835645625526)	(4.8567669682786487, -7.549326513395914)	1.0	z	0.789284
22	M	A	M	B	A	B	N	N	M	8	2	shapes	M	8	True	136	(-6.0598816737034831, -8.5428322774134102)	(2.8433032820205622, 0.77953293923992462)	(8.0782015370928875, 4.2947451178050233)	(-2.1852461830234748, -6.0296798772221791)	1.0	slash	1.57884
23	N	A	M	N					B	4	2	shapes	M	8	False	136	(4.2844626841760078, 7.754389588668186)	(-2.6680742813700382, 4.1110430201688306)	(-5.9988378688184154, -3.9672794596065284)	(5.4378426231415631, -7.3834304252817446)	1.0	z	1.37663
24	N	B	A	A	M	N	B	M	B	8	2	shapes	A	8	False	136	(3.1980000163736015, -3.9917396475613804)	(-1.9245366079568687, -6.5712909910844539)	(-3.4446538851614132, 5.8017372912904985)	(-6.1097641399182594, 1.6904323596838289)	1.0	slash	4.84075
25	N	B	B	M					N	4	0	shapes	N	8	True	136	(-4.5285842794263909, -0.60965908200660301)	(0.67606875372375086, -2.0449821767280811)	(-4.2386548316695851, 4.9379507817765571)	(6.7946319764541325, 2.0465525225126715)	1.0	z	1.32934
26	M	B	M	N	B	N	A	A	B	8	1	shapes	B	8	True	136	(-6.0971825226105993, -6.5747401079676999)	(3.4189989826330613, -3.3826543458537657)	(0.40842040920113831, 1.2744404830011895)	(5.5090291310203359, 8.0266791178270331)	1.0	z	1.33331
27	N	B	N	B					N	4	2	shapes	N	8	True	136	(-2.9230739536171546, -0.9960064627882943)	(2.405180219147077, -7.2429078431355354)	(-4.2155011855606714, 3.0396981971361647)	(6.0267339280517884, 3.6827500131816944)	1.0	z	0.660793
28	N	A	N	A	B	B	M	M	B	8	3	shapes	A	8	False	136	(7.326455461322233, -1.7000767452176078)	(-7.3394727955460777, 5.1616178779809143)	(2.9209425874135935, 1.1889213623049439)	(-4.1593176636073261, -3.8062301736543214)	1.0	z	1.29497
29	N	B	N	B					N	4	2	shapes	N	8	True	136	(1.6960380962710104, 2.6717125732159612)	(-3.7788465901876256, -0.95558532066358737)	(-4.5996896975827166, 4.2393923189104061)	(4.1328185294005841, -4.8030809403800117)	1.0	z	0.734034
30	M	A	N	M	B	A	B	N	M	8	0	shapes	M	8	True	136	(-1.1073182470600633, -5.8065279548986197)	(0.22598161201368683, 2.7911126608092367)	(-7.4539043050547189, -8.4865672486699744)	(1.9580601019276571, -8.3918144067347793)	1.0	z	0.797692
31	N	A	N	A	B	M	B	M	A	8	7	shapes	M	8	False	136	(0.080404208403834332, -1.8628195225007023)	(6.0247917545122576, 0.64217605976210557)	(-3.8560072901931859, 3.0786922308182767)	(8.6086173719402126, 5.3196469848528931)	1.0	z	1.77747
32	N	A	A	M					N	4	0	shapes	N	8	True	136	(0.080920942403929885, -7.9330189199207268)	(-8.4036114478292792, 8.5605467709359395)	(4.8429327112967773, 2.7536968525482717)	(-6.1045833525688238, -6.5873320695400022)	1.0	z	0.81501
