TrialNumber	stim0	stim1	stim2	stim3	stim4	stim5	stim6	stim7	stim.probe	ttl.stims	corr.num	trial.type	stim.corr	block	match	Subject	stim.pos0	stim.pos1	stim.pos2	stim.pos3	ran	resp	RT
1	N	A	A	B					N	4	0	shapes	N	Practice	True	140	(-0.2781723548426065, -1.887299465556727)	(1.1456817152689034, -6.3483535736415639)	(-2.9821326082861335, 7.9814759137134423)	(2.8527982344902227, 6.972340820644602)	1.0	z	2.05071
2	N	B	A	A	B	N	M	M	A	8	4	shapes	B	Practice	False	140	(-1.9665605549097434, -1.1416209409270133)	(4.5793484247713465, -8.0928874395262529)	(2.4461494382187894, 5.8663582829001122)	(-8.1659388217735724, 6.0619931380582379)	1.0	z	2.00992
3	N	B	A	B					B	4	3	shapes	B	Practice	True	140	(-1.065850794898445, -5.6596852908379116)	(-6.4737928539464615, 5.2502283125768674)	(0.028141059130646795, -1.7640912323632465)	(7.1170642141913589, 0.44924155989218306)	1.0	z	1.65756
4	N	A	B	A					N	4	2	shapes	B	Practice	False	140	(5.0523645972190536, -1.3406857413935436)	(1.6166415161620034, 5.4972680094358228)	(-5.1180310752293234, 2.8697210195961009)	(-3.6799326471280649, -7.5277019781296524)	1.0	slash	1.25515
5	M	B	B	N	M	A	N	A	N	8	3	shapes	N	Practice	True	140	(0.27607786185683558, -3.0813823155061195)	(1.9569510420514096, -8.6836980714112055)	(-6.5591242965054581, -8.3446953797468932)	(-5.3466089043566321, -2.1804030055872854)	1.0	slash	2.65686
6	M	A	N	N	A	M	B	B	B	8	7	shapes	B	Practice	True	140	(2.4801672096530645, 7.5687380284445211)	(-4.1728685447043556, -1.9856618064766964)	(3.4518876981726674, 2.555753642625465)	(5.6237342923699583, -1.8376409312357938)	1.0	z	2.0422
7	N	A	B	B					N	4	1	shapes	A	Practice	False	140	(0.1301830779645794, -0.045765584384632518)	(-8.5227362574673435, 0.66567821174728259)	(6.5299604384066701, 4.3222493746250645)	(-2.6641112119594021, -8.3078035468621696)	1.0	slash	1.50792
8	N	A	A	B	M	B	N	M	B	8	1	shapes	A	Practice	False	140	(8.6613929092040394, -3.617159875021092)	(-8.3212548038126393, -4.7126918525706882)	(2.561162040556157, 2.1830392522418034)	(-7.0528334546442455, 3.6972916082496514)	1.0	z	1.64152
1	N	A	M	M					M	4	2	shapes	M	0	True	140	(-4.1750131035013105, 0.21666768158111793)	(-8.6899541254615507, -0.72761677197813412)	(4.031343520231502, 4.2024513587468579)	(6.2611321969284397, -1.1785473406007716)	1.0	z	1.51136
2	M	A	N	A	B	N	M	B	B	8	2	shapes	N	0	False	140	(-8.0466413115275586, 3.6654877571797098)	(3.0241228083449325, -5.9095670693032494)	(6.6899614286454963, -1.9553887534936916)	(-4.3464829674586349, 0.19188177639446735)	1.0	z	0.984874
3	N	A	B	A					N	4	0	shapes	N	0	True	140	(0.49633075829903994, 4.4632342797444231)	(-6.7476251069866588, -5.2469666062418092)	(2.3154562639073433, -5.0357195631160829)	(-8.4904042628233203, 7.7253661374480487)	1.0	z	1.12444
4	N	A	N	M					M	4	1	shapes	A	0	False	140	(-0.74998111692943503, 5.3677878236626153)	(1.7858867766183515, -3.3652560095603041)	(-6.4623115781442548, -8.4085317498884518)	(8.1248973400101541, 7.4336162250929476)	1.0	slash	0.854281
5	N	A	N	A	B	M	B	M	N	8	0	shapes	N	0	True	140	(-2.0421075418046728, 0.095504044451768522)	(-1.3964163202397826, -7.5431538289034705)	(-4.3602688609255535, -4.3990710126040513)	(1.7816925485943358, 7.0409380084182569)	1.0	z	0.52598
6	N	A	M	M	A	N	B	B	M	8	2	shapes	M	0	True	140	(7.1597461629806958, -6.0234099452060139)	(6.416996037186582, -0.85477088327476647)	(-3.8690725330137798, -2.5994591822127431)	(-4.0032030547152253, 2.4805187966710527)	1.0	slash	0.9758
7	N	A	N	B					M	4	2	shapes	N	0	False	140	(7.8379245629164593, -2.6789760758978387)	(-3.4164440595926111, 2.6293775867060685)	(4.5657599157818023, 7.403759933934225)	(-6.9034518751845475, -4.1607449317341203)	1.0	slash	0.503182
8	N	B	A	B	A	M	N	M	N	8	0	shapes	N	0	True	140	(-1.5640756618288609, -7.7941481228333318)	(7.75949990039258, 3.4024360274209187)	(-2.2155199310638878, 1.143255390095721)	(-7.1671429640731095, 7.2004265360935094)	1.0	z	0.454291
9	M	A	B	A	B	N	N	M	B	8	0	shapes	M	0	False	140	(7.0608361444334875, 3.8767812089290636)	(-5.4276920810457767, -8.2986236829232585)	(6.3071668754157493, -2.9182659405997571)	(-6.1934362600753792, 0.0026384346971770611)	1.0	slash	0.958508
10	M	A	N	M	B	A	B	N	A	8	6	shapes	B	0	False	140	(6.6779266559374477, -6.0155832137189007)	(0.20204826456148872, -0.17637172690596969)	(-7.680587191142652, -0.027287902503086769)	(-4.0772177857553098, -2.323689998929872)	1.0	slash	1.0342
11	N	A	N	M	M	B	B	A	B	8	1	shapes	A	0	False	140	(-1.594022321387393, 4.5708040814693476)	(2.0187340297620597, -8.0172552751138149)	(2.0184384669523769, -0.20321082853800654)	(-4.1035392566162576, -0.10549850093479662)	1.0	slash	0.679793
12	N	B	A	N	A	B	M	M	B	8	5	shapes	B	0	True	140	(2.8950190110394303, -8.1980111316443853)	(-5.0714628433381623, 1.7654907903039359)	(-4.108025748402012, 7.784685129440426)	(6.2247201184942949, -3.5578081761267422)	1.0	slash	0.89095
13	N	A	N	M					M	4	3	shapes	M	0	True	140	(6.745096906593421, 7.2919128592092193)	(-1.6435609928013228, -3.7232319833989775)	(-2.5523833551111306, 5.1906441475220166)	(3.4041487467224893, -4.1675542360235953)	1.0	z	0.419098
14	N	A	M	B	M	B	N	A	B	8	0	shapes	N	0	False	140	(1.0160324679676478, 5.8674419488907947)	(-3.6114690211342086, -1.0857769138528308)	(4.7898098437117067, -0.40209140199281279)	(0.42244246093515336, -5.1839022833150903)	1.0	slash	0.700736
15	N	A	B	B					B	4	0	shapes	N	0	False	140	(6.6551302170257749, -2.5101594716014661)	(-0.40164424441503144, 7.5658366602089018)	(7.5716245676691827, 2.5680625251946303)	(-5.0203706177619285, -7.4307809387137382)	1.0	slash	1.03429
16	M	A	B	M					B	4	0	shapes	M	0	False	140	(2.3488982774432188, -2.5487402262959087)	(-7.8803320947856825, 3.349191837936921)	(6.345165434867404, 1.4156335175921075)	(-1.299142932506113, -4.3231619995001731)	1.0	slash	1.30216
17	N	B	A	A	M	N	B	M	M	8	0	shapes	N	0	False	140	(5.0957933749760187, -0.70774562380078798)	(-8.5136902059042523, 1.9795347430754084)	(7.5169470713766238, -7.9254365679869334)	(-2.6425281555910374, 7.9352540722171234)	1.0	slash	0.836936
18	N	A	A	M	N	M	B	B	N	8	4	shapes	N	0	True	140	(-0.53149230846579698, -1.8529228603062631)	(-3.3943601939339834, 3.5359842508593875)	(-7.339552999295857, -1.3770940972132619)	(6.4812676430187555, 5.2618673338563653)	1.0	slash	1.12268
19	N	B	B	N					M	4	2	shapes	B	0	False	140	(1.2908287058616192, 6.785242727296998)	(6.9309093893592095, -1.6124097515277098)	(-0.048583474603029586, -2.1345719610629379)	(-4.0113896630823236, 8.4739077572911725)	1.0	slash	0.716955
20	M	A	M	B					N	4	0	shapes	M	0	False	140	(-0.97523867761510452, -7.3696135013870174)	(5.2629544750047952, 8.3217485988211166)	(-7.3012466760890788, 3.3808152377108556)	(7.755261152073615, -7.2897415423967207)	1.0	z	1.1345
21	N	A	A	N					N	4	0	shapes	N	0	True	140	(3.5011537536870474, 7.3302541005302082)	(3.4928124499970288, -5.8205566381031151)	(-5.8599779492039472, -5.6179496672378484)	(-4.0329400181550934, 5.2542072465655547)	1.0	z	0.53233
22	N	A	B	A					B	4	2	shapes	B	0	True	140	(-2.4641124391739, 0.5456044871141863)	(8.4913353333909214, -4.0251702555195781)	(-1.6523576076674562, -6.5479457543512893)	(3.2137515572820234, 1.5840937346862951)	1.0	z	0.755934
23	M	A	A	B					B	4	0	shapes	M	0	False	140	(6.585305556840142, 4.1230491163375671)	(-3.0051888619514502, -4.5110213449233854)	(2.3985833288651524, -3.2953350193383004)	(-0.9005146461844511, 0.29925932925638499)	1.0	slash	0.69359
24	M	A	A	N	M	N	B	B	N	8	5	shapes	N	0	True	140	(-3.7623784720537952, -7.9393152393231805)	(5.7011603128716217, 6.1369557774217078)	(2.3738668645956285, -2.4002864134180415)	(-5.6848790179655833, 2.9051366746435772)	1.0	z	0.357298
25	N	A	A	M	N	M	B	B	N	8	4	shapes	N	0	True	140	(-2.7151290428508208, -7.3707296513865721)	(5.4425376828997027, -2.5887709614914423)	(-0.21333246734086586, -1.0041748087812294)	(1.9446799969422806, 3.6706053721629708)	1.0	z	0.617015
26	M	A	A	N	N	B	M	B	N	8	1	shapes	A	0	False	140	(7.6623046623361262, -5.2531153454356545)	(-0.8376555332475224, 6.3390966769321491)	(-7.5962694633705503, 0.90114166399750317)	(1.6459553586877629, 2.4202733978897175)	1.0	slash	0.626433
27	N	A	M	A					A	4	3	shapes	A	0	True	140	(8.6366705338086938, 4.283399076150431)	(-7.8781547365399218, 7.3179242309746861)	(-2.6538071157662824, -1.9087399990290406)	(2.6267537629814051, -1.2549125997747934)	1.0	z	0.848293
28	N	A	N	B					A	4	1	shapes	A	0	True	140	(-6.0228973259178691, 6.7826594914870668)	(2.8066596132605941, 7.0456796440826768)	(2.396126522709519, -7.6109288797444714)	(-6.6661206493677287, -7.2565233112937459)	1.0	z	0.453949
29	M	A	M	N					M	4	2	shapes	M	0	True	140	(7.9216770907908334, -8.0945825195946917)	(-0.45829127636245737, -6.4084277203779259)	(3.6823363853176438, 7.5980428728309946)	(-7.3577831095841608, 4.3128801700728889)	1.0	z	0.381699
30	M	B	M	N					A	4	1	shapes	B	0	False	140	(-3.980564896578481, 3.4662727433782266)	(3.5417802003083612, 2.6653212292865245)	(-5.0122548003816334, -2.2319116421453753)	(6.4202693982786432, -0.32984995400184047)	1.0	z	1.17136
31	M	A	A	B	N	N	M	B	A	8	2	shapes	A	0	True	140	(8.3948880665748504, -4.9473123201497131)	(-8.7109953401370444, 3.8646165641619579)	(-4.4743958822961352, 5.1026082334975982)	(2.1275058920194549, -7.3679215501154971)	1.0	slash	0.802981
32	M	B	B	A	N	M	A	N	B	8	7	shapes	N	0	False	140	(-2.8864542592297733, 4.6158538540219141)	(-6.1676825798535599, 7.4630939587463345)	(8.3907175255430992, 7.91352053613819)	(-1.6205819995259949, -5.5362271683722959)	1.0	slash	0.548634
1	M	A	M	A					A	4	3	shapes	A	1	True	140	(-6.2017609610956725, -1.2912815104524782)	(6.2693208951484856, 2.2510561887155021)	(8.3980695134525405, -3.644569891114231)	(-5.2356605678754224, 2.6582490863152408)	1.0	z	0.636215
2	N	B	N	M	A	B	M	A	B	8	6	shapes	M	1	False	140	(1.1660223626058404, -5.5062968646034589)	(-7.5868520330372116, -1.6137600397935641)	(-3.0685474661723173, -4.79631496654694)	(7.215932175987902, -1.052879912283621)	1.0	slash	0.833847
3	N	B	A	M	B	M	A	N	B	8	0	shapes	N	1	False	140	(2.0251209816340889, -0.64844893109762047)	(-4.5317992317585407, -0.18687257216947906)	(-3.7156236364125075, -5.6225446695862962)	(-5.7200563882354452, 6.9325593765837343)	1.0	slash	1.63151
4	N	B	A	M					M	4	3	shapes	M	1	True	140	(-3.1273480845458774, -1.3750049662369754)	(-1.0214882308910456, 2.7334300527815074)	(6.2790565628653461, -8.0357421423016877)	(8.1591844374150142, 3.755161325349917)	1.0	z	0.595071
5	M	A	N	M					A	4	1	shapes	A	1	True	140	(8.2999549487544293, -3.838870781363922)	(7.3581822946560891, 2.048832762762796)	(-1.3727077571481408, 2.8383453197077131)	(-5.3171506165425484, -8.7091555562755048)	1.0	z	0.702886
6	N	B	A	A					A	4	3	shapes	A	1	True	140	(0.30212361639406993, -3.2994609656594109)	(-5.2348122871008131, 0.43660245892143301)	(5.0791180381943821, 0.9676289082306937)	(-2.3410865811396961, -8.2886642169383116)	1.0	z	0.652353
7	M	B	N	B					M	4	2	shapes	N	1	False	140	(4.6044317978172664, -1.9424191824171491)	(-7.5896242478813676, 1.5400786817766736)	(-4.057099709936729, -7.6250456944772678)	(8.6515977007391918, 8.1067769334562421)	1.0	slash	0.692169
8	N	B	A	A	B	N	M	M	M	8	1	shapes	B	1	False	140	(-4.9277074259490856, 8.5476659153824777)	(4.2105839671086454, 1.8606290803910408)	(1.344672876348568, 8.2853170070261584)	(-5.6708330487954663, 2.8801127643019608)	1.0	slash	0.515946
9	N	A	M	N	A	B	M	B	M	8	3	shapes	N	1	False	140	(4.018281732548127, 0.96266714455486735)	(-7.391027215144681, 2.7349500135227416)	(-6.5934221391934242, -4.9857698765162759)	(3.1202667160186444, 6.0641875482141234)	1.0	slash	0.649384
10	M	A	B	N	M	N	B	A	N	8	5	shapes	N	1	True	140	(-0.67856249107802213, 7.5832235265154004)	(-7.9666655528986663, 3.6182637209845616)	(-5.7082667197561294, -1.778164232096306)	(1.295674487564332, -5.7829228804655326)	1.0	slash	0.610513
11	M	A	M	N					M	4	0	shapes	M	1	True	140	(2.4070353374110933, 3.5955261167490207)	(5.3189164212338067, -0.11923107564800617)	(-7.8770179355858208, 8.6407655070925315)	(-4.2592233617114656, -6.5483166184836508)	1.0	z	0.578859
12	M	A	M	N	A	B	N	B	A	8	2	shapes	M	1	False	140	(-6.6659975842306824, -1.1322293919701671)	(1.2074012266451088, 8.1000013371535395)	(-6.9909634906438516, 3.4963649244134096)	(1.9628679973662528, 2.0934714881262391)	1.0	slash	0.79592
13	N	B	A	N					M	4	1	shapes	B	1	False	140	(-8.2254150066883494, -3.6750817716557052)	(2.9193174840211658, 6.8241080135447678)	(4.9791297595117516, -2.7150619433983936)	(-5.2263112480107257, 3.3765121017992978)	1.0	slash	0.472151
14	N	A	B	N	M	B	M	A	M	8	2	shapes	B	1	False	140	(-5.3192254013343838, -2.0111617048233548)	(4.4173012955118942, 2.7937246193446565)	(6.8301429932613562, -7.6930666122313873)	(-2.9039869260269171, -7.0622513543325862)	1.0	slash	1.26107
15	N	B	A	M					N	4	2	shapes	A	1	False	140	(8.5627696162230578, 7.7775107307736597)	(4.3163504155613062, -1.266744423128408)	(-2.1441250274515848, -4.9227525216303558)	(-6.5724381210143665, 0.93549247441779748)	1.0	slash	0.865457
16	N	A	A	M					N	4	0	shapes	N	1	True	140	(-5.6909757937515266, -7.7535303604971419)	(1.4427951633193725, 1.2615074788693459)	(0.87425861390270398, -7.8853256549417692)	(-7.2610815466230791, 6.2724358134510805)	1.0	z	0.535112
17	N	B	A	N	A	B	M	M	B	8	5	shapes	B	1	True	140	(-4.7241097809027064, 2.6141244082733426)	(-8.0479137730430708, -1.501760234559729)	(6.4386668449988846, 6.5292990711663652)	(6.9588386974361427, -1.6663227205715305)	1.0	z	1.43082
18	N	A	M	M					B	4	1	shapes	A	1	False	140	(1.4827977482716221, -8.1740229551102743)	(-5.506172133843406, -7.2200812865446844)	(1.6201540882258882, 2.5808175933510089)	(-2.9765673638166206, 2.6464701775996406)	1.0	slash	1.03431
19	M	A	M	N	N	A	B	B	B	8	7	shapes	B	1	True	140	(-1.2868020962843962, 4.4268009884063453)	(8.3487781401530121, -4.9303866865344084)	(6.4924469154689888, 0.18037271515115805)	(-7.2896390781802518, -0.71381045599476423)	1.0	z	0.84613
20	M	A	M	B	A	B	N	N	A	8	4	shapes	A	1	True	140	(-6.6494419992348472, 3.2108815834144391)	(-3.0512503469277314, -3.1117369687335339)	(8.1172649399149144, -1.1375847467769944)	(6.1864708782481923, -7.5378555493411419)	1.0	z	0.903692
21	M	B	B	A					N	4	0	shapes	M	1	False	140	(0.26053836799307639, -6.5767281915336451)	(2.8966334229419459, 3.1915599805490888)	(-8.3041852015875985, 7.5630235563974715)	(-4.7360503067488287, -8.2801909199701242)	1.0	slash	0.637393
22	M	B	B	A	M	A	N	N	A	8	3	shapes	A	1	True	140	(0.11471962127312096, -3.4559594799403044)	(-3.4537252683100235, 6.5932111655995502)	(2.5452014528292661, 6.9407683151329493)	(-8.2087127802318296, -1.8511738863582687)	1.0	slash	0.961
23	M	A	M	A	N	N	B	B	M	8	0	shapes	M	1	True	140	(-2.0436727912187065, 1.6733814328308512)	(4.4804187234785111, 1.0220499443894262)	(-4.7365927186484775, -6.2165503375121069)	(7.3045188071868417, -3.4809510208172094)	1.0	slash	0.68268
24	M	A	N	M					M	4	2	shapes	N	1	False	140	(1.4425920489188151, 7.5817405802567528)	(-2.1881379261311951, 4.5429234684941573)	(-3.9960991816143911, -7.4944822144160268)	(3.5184067511021855, -6.9818050923270842)	1.0	slash	1.13232
25	M	A	A	M	N	B	N	B	A	8	7	shapes	B	1	False	140	(-3.6118498322464081, -5.8706610500384686)	(-4.3511794790181666, 4.8077255497896143)	(-7.2544404694502509, 8.6174825774993273)	(3.8809665003086167, -0.79939129747887261)	1.0	slash	0.715827
26	M	B	M	A					M	4	2	shapes	M	1	True	140	(3.8665391190418177, -8.5795591690353472)	(-5.6098078703212133, -6.4968858525723352)	(5.363277432155769, 5.1400037827635412)	(-7.1070325167753925, 4.7931836914337271)	1.0	z	1.06344
27	M	A	A	N					A	4	1	shapes	A	1	True	140	(6.1916338101741104, -6.3988628643196348)	(6.0666200027449655, 0.1988868909088044)	(-7.368863221852882, 2.7055240174976696)	(-0.035421345127300441, -7.4256310954373319)	1.0	z	0.87714
28	N	B	M	M	B	N	A	A	M	8	4	shapes	B	1	False	140	(2.1559911621272274, 6.4689402181084503)	(5.3694799716046617, 1.9387976564177443)	(6.4035323270082571, -8.3048081190809135)	(-4.8707441088527759, -5.9529732444367696)	1.0	slash	0.64089
29	M	B	N	N					B	4	2	shapes	N	1	False	140	(3.8471707045834425, 3.7731080125923224)	(-8.2487315375651402, 1.9705527975831529)	(5.0869112218415822, -1.7149622314049822)	(-2.9089807657139994, -7.6861440844161821)	1.0	slash	0.610284
30	N	B	B	M	N	A	A	M	M	8	7	shapes	M	1	True	140	(-3.5637768292162972, -6.7652838109323703)	(0.042462701689798266, 5.0498403787818713)	(-8.6751550010414036, 4.1716231989057455)	(5.4078656358611035, -2.3246663817910278)	1.0	z	1.25826
31	M	A	B	A	B	M	N	N	B	8	2	shapes	B	1	True	140	(1.3095925496652807, 2.0067114743162708)	(0.19272031586560523, 8.5627188120633377)	(5.3190089149483999, -5.4004619905702391)	(-3.9794698889351965, 2.3815767852496545)	1.0	z	0.931235
32	M	A	N	B					M	4	3	shapes	B	1	False	140	(6.6237539534601488, -8.0570543758902655)	(-6.9492272325190667, -5.701962893117436)	(-0.10948161510775911, 5.314147064762361)	(3.4693425670554632, 0.085236925460305812)	1.0	slash	0.82757
1	N	B	M	B	M	N	A	A	N	8	0	shapes	N	2	True	140	(3.5038700178097635, 1.1678467384221456)	(0.6321812544946237, -1.7965446120406394)	(2.123274623949424, 5.1882536999904207)	(-6.0209957634366642, -1.5624920786756409)	1.0	z	0.374158
2	M	B	M	A	B	A	N	N	M	8	2	shapes	M	2	True	140	(4.1766766012394783, -0.64135831514252928)	(-6.1805227901534323, -4.4535056852215638)	(2.2425697308929635, 8.6752254671928988)	(-2.5901872819922112, 2.2512406925846165)	1.0	slash	0.606698
3	M	B	B	N					B	4	2	shapes	B	2	True	140	(4.5688885086636617, -5.3109551680921632)	(-6.9862419817646622, -6.3652108075921472)	(-2.4446029324043561, 5.1176708169460294)	(1.6900438250976872, 8.3436958363046685)	1.0	slash	1.09621
4	M	A	N	M	N	B	A	B	B	8	5	shapes	B	2	True	140	(-4.0008943827852645, 5.3661679937399427)	(5.127634766128585, 6.1076974113479245)	(7.7092117644153397, -0.26427034769630708)	(-5.7048812467500918, -7.4342248159382729)	1.0	z	1.144
5	N	B	A	N	B	A	M	M	M	8	1	shapes	B	2	False	140	(4.3545686140404278, -8.2422884576286251)	(-0.94915744733591101, 6.4723312214874209)	(1.2795930796493593, -0.67773432900072095)	(7.3728679579856191, 4.3814181661637708)	1.0	slash	1.03922
6	N	A	N	A	M	B	B	M	N	8	5	shapes	B	2	False	140	(7.2755286818858202, -7.6627094739670358)	(6.8735942148307529, -1.7584920314559191)	(6.7218379169709088, 2.8206320170279984)	(1.817233796700382, 4.1066704363567528)	1.0	slash	0.980723
7	N	B	N	A	A	B	M	M	M	8	7	shapes	M	2	True	140	(-4.2288957735104251, 4.4730922948764196)	(-6.2191979729250217, -0.68424572780910076)	(-2.7188233749265756, -8.3283210774319905)	(1.681714959048767, 0.021751124574537428)	1.0	z	0.51645
8	M	B	B	A	A	N	N	M	M	8	7	shapes	M	2	True	140	(-4.8195016732672986, -8.3809743787363136)	(-6.4775040335890175, 7.1672896585995538)	(1.0210626001461609, 2.8084466613033214)	(8.3021226207851235, 7.7425137074660277)	1.0	slash	0.832535
9	N	B	M	N					A	4	0	shapes	N	2	False	140	(-5.9837946156878878, -6.8939327436613231)	(-5.8899371641567564, 6.9656769129933558)	(2.4136354425244146, 7.4460187947133463)	(1.4567733118904016, -0.19567989721028667)	1.0	slash	0.73815
10	M	A	M	B					B	4	3	shapes	B	2	True	140	(3.2687864505611746, 1.284111242335582)	(6.355947868869654, -3.5591227768829929)	(-1.4828477016118047, 5.080411398783367)	(-5.7773088342472825, -1.5652334539719623)	1.0	z	0.799826
11	N	A	M	N	A	B	M	B	A	8	1	shapes	A	2	True	140	(-2.5496285182598903, -5.7212392843415572)	(4.1412914468043454, -7.2115754716525089)	(1.3778564896959278, -1.0572243505115271)	(-5.1779736090733044, 1.6030058926307333)	1.0	z	0.779538
12	M	A	M	B	N	B	N	A	N	8	1	shapes	A	2	False	140	(-3.3623932215629271, -3.0231316457584505)	(-6.1469188831650339, 4.6714836663443542)	(6.5724791294308709, -6.5657962417752032)	(1.2480151794651242, 7.6928877130601023)	1.0	slash	0.587502
13	M	A	A	M					A	4	0	shapes	M	2	False	140	(2.3678052630045165, -7.6199684607057936)	(-8.6247766054761605, 5.0201365256051975)	(2.6131811408600125, 6.9406604283898936)	(-2.4439769440900365, -0.57083568804702089)	1.0	slash	0.774831
14	M	A	M	N					A	4	1	shapes	A	2	True	140	(-6.0800499667740144, 5.4340714111221917)	(-5.4203493541688523, -4.8535054008672915)	(0.52318999388424459, -7.8968059186742279)	(6.3768459033449485, 7.2582313926208464)	1.0	z	0.540617
15	N	A	N	B	M	A	M	B	M	8	4	shapes	M	2	True	140	(-8.7361197558299342, 3.2960685940914001)	(8.1665893122074742, 8.5434612231817759)	(3.8249315330865024, 6.9156296676302134)	(6.8136833184633829, -4.5073563946827964)	1.0	slash	0.892358
16	N	B	M	M					M	4	3	shapes	M	2	True	140	(-2.0046300526828844, -2.0298140355271448)	(4.2472039921558746, 1.3032318861991818)	(-7.4579075153075056, 2.7198639269225602)	(5.9576002548051772, -5.7681397061418949)	1.0	z	0.611444
17	N	A	B	A	N	M	B	M	B	8	5	shapes	M	2	False	140	(0.20627364525414116, -0.1700180653468788)	(-1.5043081372878362, 7.5840678444427425)	(2.1678321859310596, 5.5071898477510679)	(2.9951580573806584, -3.2676215144543868)	1.0	slash	0.699418
18	N	B	M	N	M	B	A	A	M	8	2	shapes	M	2	True	140	(-3.6843634332190236, -3.5311200485750973)	(2.0779341731263798, -4.2175366831990404)	(0.94752449038819009, -8.55514641838095)	(3.6270500146398472, 6.6161267326067161)	1.0	slash	0.643183
19	M	B	N	M	B	N	A	A	M	8	6	shapes	A	2	False	140	(-0.093775868677338892, -0.56192775436318065)	(-7.2335995971829856, -5.8613848923853933)	(0.0091679137458307025, -8.1270271788171282)	(7.1745115767042194, 8.6966235713925606)	1.0	slash	0.678304
20	N	A	N	B					B	4	2	shapes	N	2	False	140	(3.7739296461990754, 3.1491414460105087)	(-8.7130655959920027, -5.6990117337428892)	(1.9055004713070556, -4.8841627036157984)	(-7.8910529631215631, 1.2979874489576808)	1.0	slash	0.632684
21	M	A	N	N					A	4	1	shapes	A	2	True	140	(-3.1543312034438333, -2.3628035390909039)	(8.4063336519941032, -4.5799369568730572)	(-0.042134355516601829, 1.1952100748243009)	(3.5412381736242224, 7.0240980862732485)	1.0	z	0.8762
22	N	A	A	N	B	B	M	M	B	8	6	shapes	M	2	False	140	(3.3389626485203951, -0.098724420679465297)	(4.0896982509593673, -8.4488330664979916)	(-5.4555333744257695, -4.4806876396459057)	(-0.38659766286450115, 8.4247590629905815)	1.0	slash	0.583938
23	N	A	M	N					A	4	1	shapes	A	2	True	140	(0.66175863593832851, -0.92411867802437708)	(-4.2298574114594274, -7.0228841519770402)	(2.3663834757591253, 7.7395857709680023)	(-8.6245527555528323, 2.4284481360367618)	1.0	z	0.957499
24	M	A	N	M					A	4	1	shapes	A	2	True	140	(3.3041141503821425, -1.1297747271098597)	(4.0034960733154623, 6.2216891909264582)	(-2.9653843312631318, -3.4474976471146608)	(-4.4143706334967012, 2.9656428093903617)	1.0	slash	0.735366
25	N	A	M	N					M	4	3	shapes	N	2	False	140	(1.3398680660036018, -7.286409015209804)	(-2.2671901552746609, 3.1605555097458726)	(0.22191257090196359, 6.7283048041980571)	(-5.7330575594838873, -7.9631750383311672)	1.0	z	0.644761
26	N	A	N	B	B	A	M	M	A	8	2	shapes	N	2	False	140	(8.140372440492456, -4.8982486666311438)	(-3.196942315164879, 7.0664444978139329)	(6.1864612207952732, 4.5780320641010928)	(3.5942355724606241, -7.5876149916560962)	1.0	slash	0.766488
27	N	B	N	A					A	4	1	shapes	B	2	False	140	(-6.1715008269600684, -2.1598551884008819)	(3.5347919943096873, 0.37376422934010201)	(-5.4619024498888242, 4.8314406095044315)	(4.5143646843756144, -8.6563119072908119)	1.0	slash	0.528116
28	N	B	A	B					A	4	0	shapes	N	2	False	140	(1.8584556144216524, -3.678356456039281)	(-3.7959922198350453, 3.0292078796641988)	(3.7259513283918633, 0.055693530170861649)	(-5.6627859097758044, -1.3046659584928628)	1.0	slash	0.645677
29	N	B	B	M					M	4	2	shapes	B	2	False	140	(3.0537921755509227, -3.3609218720501532)	(1.7304416376461322, 7.7747469522523112)	(-8.2268626403972647, -7.0026749951308771)	(-4.49135299409261, 8.2032448274007415)	1.0	z	0.719356
30	N	B	N	M					M	4	2	shapes	N	2	False	140	(1.1215213019195467, -6.0566216155560895)	(-4.8088504801918663, -4.0086742516614677)	(6.7720212966222277, 5.8095269542936059)	(-2.3177097706092216, 7.5686692872002652)	1.0	slash	0.881179
31	M	A	A	B					M	4	0	shapes	M	2	True	140	(-0.22033369470753961, -3.1528437740180815)	(4.4501150950285826, -6.0266283329428241)	(-8.5819721004450411, 8.1010295173824467)	(4.2084722239324037, 7.2272575352952391)	1.0	slash	0.458623
32	N	A	M	B	N	A	B	M	N	8	3	shapes	B	2	False	140	(6.4912387215351046, 3.4125524363776858)	(-3.8678442437617626, -5.8695293154366102)	(5.2246851958267726, -5.2502946560862949)	(-7.9797953749550441, 6.5010091497408098)	1.0	slash	0.786539
1	M	B	N	B	N	M	A	A	A	8	5	shapes	M	3	False	140	(2.0324064803805051, 1.8318485420887267)	(-1.935765333885807, 6.6427861922714069)	(-8.1351933396944975, 6.0805627314997164)	(-7.0013054317587171, -0.73212669013810583)	1.0	slash	0.408095
2	N	B	M	M					N	4	0	shapes	N	3	True	140	(1.4083379079570726, -0.34611876480175674)	(-8.5473318171327097, 4.125352365059987)	(-8.5837192911549653, -1.1427412008459807)	(3.963534807352719, 6.459045294854949)	1.0	slash	0.911821
3	M	B	A	A					B	4	2	shapes	A	3	False	140	(-8.7342559275640852, 5.0296500984751855)	(2.2735172792775344, -2.2114209964684912)	(-5.7863073606498627, -2.6037654625474262)	(3.6458817035339415, 3.7946293772556228)	1.0	z	1.18751
4	N	A	B	A	B	N	M	M	A	8	7	shapes	M	3	False	140	(-6.5558794104661029, -1.5421959504938085)	(-6.8330699009467954, -6.100823860162933)	(-4.335012526829285, 3.6514075941317685)	(8.0754305850745212, 8.2734324774115429)	1.0	slash	1.03311
5	M	B	N	M	N	B	A	A	A	8	4	shapes	N	3	False	140	(-3.7428527109485099, -8.5510506184680608)	(2.5253839963913105, -5.1566863114593673)	(7.3844162805054978, -7.8846749762414294)	(2.8658889499331366, 4.8443883795721394)	1.0	z	1.08457
6	M	B	A	M					M	4	0	shapes	M	3	True	140	(-8.3707861601831937, 8.4099797478937077)	(-5.2537327751847078, -0.31533944498770516)	(0.90108323273559954, -4.788183851893983)	(6.2538351613262027, 6.349591908201667)	1.0	z	1.09418
7	N	B	A	B	A	M	N	M	B	8	7	shapes	M	3	False	140	(2.6025775709767593, 7.9453856214279277)	(-2.8858805293205911, 0.96930544160765031)	(0.2475905472138713, -6.8312922630425827)	(6.9692054396307181, -3.0641967617749888)	1.0	slash	0.533961
8	N	A	M	N	A	B	M	B	M	8	6	shapes	M	3	True	140	(-7.9829937394447352, 7.017443160587403)	(-3.8882013515662601, -0.3979118631550751)	(0.98440822670452377, 2.5599389688614043)	(4.6516180234049855, -3.0043964993068357)	1.0	slash	0.735245
9	N	A	N	A					N	4	3	shapes	A	3	False	140	(6.6757219701809074, -1.0935217195735394)	(-3.7656991818280989, -2.2309811885227671)	(0.18385107417640612, 0.068480329277971208)	(-6.9524718804172831, 8.4179717282914126)	1.0	slash	0.527278
10	N	B	N	A	B	M	M	A	B	8	4	shapes	B	3	True	140	(7.4113645962941739, 6.7649096715636343)	(-7.3184036482753028, 0.1346206342482521)	(1.2961428338334571, 2.9440886575789911)	(1.3818155472907829, -5.8782923294171301)	1.0	slash	0.520989
11	M	A	B	B					N	4	0	shapes	M	3	False	140	(-5.6445619992313922, -5.9738808908293457)	(5.9331054067805518, 8.5728551541337943)	(3.5227843129844967, -6.2613834796127792)	(-4.9350362454864669, 8.523418087515612)	1.0	z	0.7067
12	M	A	M	N	N	A	B	B	A	8	5	shapes	A	3	True	140	(2.7373907757098639, -2.6684121804124725)	(-5.1408949959778951, -5.74744375991874)	(6.8934411773480342, 8.1395703031181625)	(0.29658057887708722, -8.210404226918385)	1.0	slash	0.480693
13	M	B	A	M					N	4	0	shapes	M	3	False	140	(1.7167087781822925, -3.8246488590373442)	(-1.9307660186035029, 3.0151317298220999)	(3.7496609380804458, 2.4255819527045901)	(-4.1496582484548563, -0.63729843178682266)	1.0	slash	0.954068
14	N	B	A	B					A	4	0	shapes	N	3	False	140	(0.093250537359720553, -2.810329187658887)	(4.400086750147409, 0.5946430226489543)	(-5.4357322867485207, -0.49501262156498882)	(-1.4262765303028697, 2.2752934234827471)	1.0	slash	0.573654
15	M	B	N	A	N	B	M	A	N	8	4	shapes	N	3	True	140	(-4.7468904244378081, -5.1821136291264489)	(-0.81829930871870005, -1.9956773268219861)	(0.90356621301070028, 3.1294652409822703)	(4.2786573124737792, -4.3414056433738839)	1.0	z	0.364464
16	N	A	A	M					M	4	0	shapes	N	3	False	140	(1.2941211525251326, 2.6726174495996258)	(-2.1058161021826685, -2.7885709252558053)	(2.7495111953543212, -1.7110103429624424)	(-5.0369164890340006, 2.4528771949842731)	1.0	slash	0.524901
17	M	B	A	N	M	N	B	A	B	8	3	shapes	N	3	False	140	(-2.9625851292026182, -4.4878647351237211)	(-0.88177890342988352, -0.21777046709727443)	(7.1743559515882804, -7.6802090458716945)	(3.269668529351657, 7.6957407495063244)	1.0	slash	0.614693
18	M	B	M	N					N	4	3	shapes	N	3	True	140	(1.8657642036111834, 3.1168815269813734)	(6.538719146800501, -6.4104017219474336)	(-3.9513091078894824, 6.5791212827152687)	(-7.1518603722520311, -6.6112127223918034)	1.0	z	0.622435
19	N	B	N	A	A	M	M	B	M	8	5	shapes	M	3	True	140	(1.9972802820496227, 6.6986706869128785)	(-5.3178119116025897, 6.3363677154901001)	(-8.3252574565226372, -4.346693535647284)	(-2.5113148114236026, -5.9082441657883855)	1.0	z	1.02945
20	M	A	B	N	M	A	B	N	B	8	6	shapes	B	3	True	140	(-3.5872132642485672, 7.3100507591738619)	(-7.942082369196739, 0.48327828150536511)	(7.8662426795441007, -6.8439131144256269)	(2.5792199805514571, -5.9734614299920903)	1.0	z	0.541062
21	M	A	B	A	B	M	N	N	A	8	0	shapes	M	3	False	140	(-2.95513217414313, -0.27011854675808955)	(6.8449182045967074, 1.2048356942978486)	(-5.2660207394942802, 4.9051598565940342)	(2.7779269043944144, 4.870073558117511)	1.0	slash	0.651298
22	N	A	M	M					M	4	2	shapes	M	3	True	140	(7.3228407883812139, 0.21933938548210818)	(-3.9763834753784444, 5.2278629072881024)	(-6.0445794332045306, -1.1445041942936127)	(7.7800970921357369, -5.635995646360259)	1.0	slash	0.696934
23	N	B	M	A	A	M	B	N	M	8	0	shapes	N	3	False	140	(-6.881826386244609, 0.44518362310214599)	(-0.54149688603754775, -4.0147063849740698)	(8.5647967154994866, -2.0742864331991964)	(6.6875695059871472, 7.7721233019044433)	1.0	slash	0.752765
24	N	B	B	A	N	M	A	M	A	8	6	shapes	A	3	True	140	(2.7243694458894989, 8.253357134071873)	(-6.2885689501040645, 0.24491541728275301)	(-5.1722014098810876, 8.5252253129010853)	(3.6146942392156145, -4.0140968085058351)	1.0	z	0.54823
25	N	A	M	B					M	4	2	shapes	M	3	True	140	(-3.1014937112839602, -1.3361594308920584)	(2.0875565130169456, -5.9704827683841906)	(-2.2320472487141423, 3.270663366406227)	(5.8589416281815598, 6.5268822918685707)	1.0	slash	1.024
26	M	A	N	B					A	4	1	shapes	A	3	True	140	(3.4839137835556713, -6.6525687552352419)	(1.8003906205680913, 5.1413523392341745)	(-4.75031615546935, 0.4880109835833526)	(-0.30524272085338566, -3.5037052943108939)	1.0	slash	1.06157
27	M	B	M	A					B	4	3	shapes	A	3	False	140	(-8.1713603784622695, -4.9817129341963051)	(4.6703145906442032, -5.7405498221319755)	(0.70524102878773043, 4.2653558474641322)	(-1.0961577852678239, 8.0456090248527765)	1.0	z	0.747198
28	M	A	A	B					M	4	0	shapes	M	3	True	140	(1.6917357349510098, -6.1781641626259054)	(-7.2711057262675389, 7.4674777896192595)	(-0.51042631634905433, -2.8080105721951982)	(8.0311799782147979, 5.8108669323133881)	1.0	z	0.460866
29	N	A	A	N	M	B	M	B	B	8	0	shapes	N	3	False	140	(-4.541655086902189, -4.2879452416628094)	(8.3741197975272854, -0.96781092278613468)	(7.5598335270664165, -5.7215682941223065)	(7.9025899917092737, 5.6829880918120335)	1.0	z	0.588539
30	N	A	N	A					A	4	1	shapes	A	3	True	140	(-4.1256089917159171, 3.512248609616945)	(7.1808812529531245, -4.446263163900138)	(7.3032747159215177, 6.882956422205794)	(-4.6433305658956243, -6.4517149527133402)	1.0	slash	0.624226
31	M	A	B	A	N	B	N	M	M	8	0	shapes	M	3	True	140	(-8.5413886396233121, -3.4271886777276368)	(2.3535309490301302, -0.67801188758708619)	(5.331406736957609, 2.380903284067486)	(-1.6949544703040553, 7.1251417781517841)	1.0	z	0.773839
32	M	A	B	A					B	4	1	shapes	A	3	False	140	(4.8606456836451422, -0.2685058512587517)	(-8.2264747605903334, -3.1381408249042133)	(-4.1625948490242601, 1.1458418944876154)	(0.79854785896996106, 7.5728220896206224)	1.0	z	0.533454
1	M	A	N	M					B	4	3	shapes	M	4	False	140	(-3.0310930768053348, 7.5627301089062549)	(-7.8976803018845478, -7.501765658983464)	(5.7430756803712342, 5.5606803393686555)	(2.9185595870658929, -1.4662995301535373)	1.0	slash	0.591248
2	M	A	M	A	B	N	B	N	B	8	4	shapes	B	4	True	140	(3.1126583851964558, 6.7457852366872064)	(-0.5861902662106484, 1.3462020563929435)	(-0.63588761033838281, -8.541767957967739)	(7.632664700855976, -8.4171395550752379)	1.0	slash	0.482689
3	M	A	M	A					A	4	3	shapes	A	4	True	140	(-4.27203117817362, -4.2170335178638565)	(-6.8360118150000293, 0.42987993315091622)	(2.629092517633449, 1.7987636760297168)	(3.5436509940270895, -4.6502702528180198)	1.0	z	0.716564
4	M	A	N	M	A	B	B	N	M	8	7	shapes	N	4	False	140	(-4.1410013248100626, -3.1603568174388696)	(-1.1884294042016306, -8.532172355801718)	(4.7556215797070074, -2.4191452969498082)	(-0.34917274472769044, 6.4950352517381713)	1.0	z	1.15229
5	M	A	A	B	M	N	N	B	N	8	7	shapes	B	4	False	140	(4.4555699376189271, 0.80143421068895293)	(-2.6399462481740192, 7.9033997561583647)	(5.5268439636713413, -5.2563877029817849)	(0.32309873608038231, 3.9873553911575996)	1.0	slash	1.11564
6	M	B	M	N	B	N	A	A	B	8	3	shapes	N	4	False	140	(-5.3481462438816063, 6.1189343259208968)	(2.5351432437784602, 7.3664573521506576)	(-3.8009237293178053, -6.3845473754264788)	(5.6845100308146641, 4.2172747994035458)	1.0	slash	1.19146
7	M	B	N	A	N	B	M	A	B	8	5	shapes	B	4	True	140	(7.8940339115114853, 5.1391765097040167)	(-5.3339632660031633, -0.1495422781004212)	(-0.9777166284151475, 4.8226404629673763)	(8.5780942214750695, -3.0919224572980353)	1.0	z	0.603071
8	M	A	B	N					N	4	0	shapes	M	4	False	140	(0.62150255525809683, -7.2638390903091903)	(7.6447312349650502, 4.9804182903858436)	(-4.0873774692508409, 6.7383504319771053)	(-5.0879990988516521, -1.6235648658339512)	1.0	slash	1.05282
9	M	A	N	A					A	4	1	shapes	A	4	True	140	(0.4330024128864931, -7.799714880336218)	(2.2621267120311721, 1.6391926406128015)	(-4.6841750903996591, -4.4863217119410415)	(-6.7171803547468114, 3.5618007960249756)	1.0	z	0.721754
10	N	A	N	M					M	4	2	shapes	N	4	False	140	(-2.6684373009543236, 0.60848320045476534)	(3.781550192429151, -5.1500877773031153)	(8.3207818810556411, 3.5413538041194972)	(-6.3489946641074848, -8.1010188335805591)	1.0	slash	0.54802
11	N	A	M	M	N	B	B	A	M	8	0	shapes	N	4	False	140	(-2.4672769188900938, -6.5932562184606027)	(3.8035064331169846, -1.9071526930191016)	(-7.9987798179002034, -6.0856729253548076)	(0.51706652111802143, 4.3585161093391598)	1.0	slash	0.763241
12	N	A	M	M					N	4	2	shapes	M	4	False	140	(-6.9783966284484791, 8.4900950976828859)	(-0.97681835624972724, -7.0071060500205196)	(2.7340592051904071, 3.6953239901237307)	(8.2326760138247366, -8.2565716570495624)	1.0	z	0.741294
13	M	A	M	B					B	4	3	shapes	B	4	True	140	(-5.6981848796315111, 3.99835490460476)	(-2.2034212832510711, -7.2755467884689704)	(1.7483860227559429, 2.1890831799511901)	(1.7061931406611315, -5.7557372863821943)	1.0	z	0.395001
14	N	B	B	M					B	4	1	shapes	B	4	True	140	(2.0862434268353223, -1.9460214228102801)	(-2.3225103227956208, -7.5149916098344072)	(-0.52853292246081907, 1.6551364503602919)	(4.7124063942581031, 4.3959616012037355)	1.0	z	0.519015
15	N	B	N	A					A	4	3	shapes	A	4	True	140	(-5.2395138004965798, 3.893197938925633)	(-8.5613190281292155, -2.4622759970173318)	(7.5980133751399279, -1.1151588431260713)	(6.0136802696466241, 6.2155364937370123)	1.0	z	0.768476
16	M	A	B	N	B	N	A	M	B	8	7	shapes	M	4	False	140	(4.3364143746340762, 0.34947515680806873)	(6.573908694753289, 7.4035604567115527)	(-0.62568413215811702, -4.9730670262921475)	(-7.8919496693312157, 3.3294826887150784)	1.0	z	0.657651
17	M	B	A	M					B	4	0	shapes	M	4	False	140	(5.4842369680175516, -8.3688931722543671)	(-5.7721505305617686, -2.8842353187962679)	(2.5741916347044089, 7.797694342432159)	(-6.215217003721536, 1.4776413710646388)	1.0	slash	1.11169
18	N	A	N	A	M	M	B	B	N	8	2	shapes	N	4	True	140	(-5.8221799264969842, -2.9289649893457455)	(6.5958189043933224, 3.5232173369516673)	(-4.9081932660965597, 1.9951281418972986)	(-8.5478299071878006, -7.9279500009208501)	1.0	z	0.819386
19	M	A	B	B	M	N	N	A	N	8	5	shapes	N	4	True	140	(6.9459306513835273, 3.5173988101551625)	(4.2140033475490224, 6.8681124029628542)	(4.6176880560596683, -3.5680411473708737)	(-2.7975837600019755, 1.9084402127881432)	1.0	z	0.602895
20	M	B	M	N	A	A	B	N	M	8	2	shapes	M	4	True	140	(-6.8360314058995257, -3.999872925287244)	(6.2838182114752321, -7.734618856142661)	(0.32314478735304952, -1.4032701397654499)	(7.3975949766556894, 1.92223064081956)	1.0	z	0.436785
21	M	A	B	M					M	4	3	shapes	M	4	True	140	(-5.0396027347729628, -6.1652844475179327)	(1.8945935821998816, 0.98098073003727215)	(-1.5684499740979794, 7.8960168780021824)	(5.1597729724900194, -4.9852487107719687)	1.0	z	0.462394
22	N	B	A	M					N	4	2	shapes	A	4	False	140	(-3.8587762100253551, -8.0798816242293299)	(-7.1104077748479257, 5.6499955920864604)	(1.953130077983225, 1.8262013761589824)	(7.9002746791868397, -5.0983508891230382)	1.0	slash	0.571926
23	M	A	M	B					M	4	2	shapes	M	4	True	140	(-1.4066902059196682, -7.6212320628351913)	(-7.8723890560528496, 2.3131171147540677)	(8.3304912570863472, -5.9610495127745118)	(7.2325217275732694, 2.1471802251790368)	1.0	z	0.369729
24	N	A	A	B	B	N	M	M	B	8	3	shapes	B	4	True	140	(3.6346466111042286, -6.4140118637492822)	(-2.9782039028656726, -2.7179315429807698)	(-5.195168637718699, 6.6941948825207547)	(-0.57032352575066803, -7.2196919609566415)	1.0	slash	0.619464
25	M	B	M	B					M	4	1	shapes	B	4	False	140	(5.268465093619854, -3.8762635682741671)	(-5.0061619983092722, 7.2971692861996473)	(-0.69169037821351864, -6.0011987398759743)	(2.7185269822723157, 0.53153094096958675)	1.0	slash	0.688992
26	M	A	B	B	A	N	N	M	B	8	2	shapes	B	4	True	140	(4.1867944029722945, -1.412299012533742)	(-8.0003509867355049, -4.6533401154601686)	(-1.405663682016085, 2.4802453853493471)	(8.343881274133647, -8.2215001986434171)	1.0	slash	0.626328
27	N	A	N	M	M	B	A	B	B	8	3	shapes	M	4	False	140	(6.509915385443982, 3.506829995297112)	(1.0020634269009161, 4.6715819154722666)	(-5.9399790164308106, -8.2618047472672291)	(-6.9378212757718476, -2.5526292116902765)	1.0	slash	0.584519
28	M	B	N	M	N	B	A	A	A	8	0	shapes	M	4	False	140	(-4.6348104282118934, 0.3822394730334544)	(3.5571082024812206, -3.2582113746006076)	(3.5665805339355536, 7.1252028382707469)	(1.6841860817143104, 1.7148274633010576)	1.0	slash	1.22397
29	M	B	M	A					B	4	2	shapes	M	4	False	140	(5.6869129458588308, 3.7392353467970452)	(-5.2840063691964083, 6.8466253763866547)	(-6.491965051481662, -6.9675800761783391)	(6.1615878718891253, -4.5651700705505203)	1.0	slash	1.28566
30	N	A	A	M					A	4	1	shapes	A	4	True	140	(4.7962024365755784, -6.2960627235937618)	(-4.7227273504558349, 0.58349845225657049)	(4.7310652843353207, 8.4964030408500264)	(-8.4209874870741874, -6.9402430246484936)	1.0	z	1.43932
31	M	A	A	B	B	N	M	N	N	8	7	shapes	N	4	True	140	(7.0638339669077954, 3.8516389540177283)	(-0.97163375539585672, 8.3947695572545484)	(-1.0141645887864854, 2.102446415520248)	(-5.6686234708941399, -3.5833258076753927)	1.0	slash	1.25021
32	M	A	B	N	A	M	N	B	N	8	0	shapes	M	4	False	140	(2.9779933724153249, 6.0159682893697113)	(4.1281203281928178, -7.9311581710009529)	(-8.6343562594885697, 4.9603203348263065)	(8.1186930830603607, 1.3511901457465445)	1.0	slash	1.42212
1	M	A	A	B	B	N	M	N	M	8	6	shapes	M	5	True	140	(4.5855472169632208, -8.689097112790531)	(-2.8486878992970794, 3.2001550845400182)	(-7.5934222588722466, -1.1198137979203553)	(-3.8323954371572366, -7.7588416026242593)	1.0	z	1.32614
2	M	A	M	N	N	A	B	B	N	8	5	shapes	A	5	False	140	(-6.4808484339849741, 6.9302810659245893)	(1.1585611094523323, -8.1322498849945024)	(-2.0196440620712446, -0.02364194118903562)	(2.5198423269674528, 8.7095192034926576)	1.0	slash	2.01541
3	N	A	N	A					A	4	2	shapes	N	5	False	140	(5.2330883763401879, -7.4645135348373515)	(-8.3563323179656077, 4.8576509928672635)	(-3.7131513690058071, -5.4453892267488913)	(6.3977423606821127, 4.5711766383005035)	1.0	slash	1.54329
4	M	B	A	M					M	4	2	shapes	A	5	False	140	(3.9699223892935596, 6.0919715539482144)	(-2.9122223938096186, -3.8517941177654622)	(-1.455864982419854, 7.329270027115971)	(2.5312213463567836, -5.6766842778246405)	1.0	slash	1.1328
5	N	A	M	M	N	B	B	A	M	8	0	shapes	N	5	False	140	(6.6065967782307347, -8.4981516663450467)	(3.2179863108402014, 0.13928767786013907)	(0.56792998991323884, -3.6383820901358277)	(-7.487247426295248, 5.7321644225712198)	1.0	slash	1.20447
6	M	A	A	M	N	B	N	B	A	8	1	shapes	A	5	True	140	(4.2754323040360003, 6.445330191400874)	(2.2738236184697538, -1.1789729831947602)	(6.4543631181794492, -2.6231695318932227)	(-1.0662549630386824, -6.394533496145506)	1.0	z	1.06995
7	M	A	A	N	M	B	B	N	B	8	5	shapes	B	5	True	140	(7.8341038488507557, -3.9834006913722027)	(6.9670781759016869, 2.6586121803076797)	(-6.8011425547559963, 5.6710670914728887)	(-3.2147722986891472, -7.1820421192476189)	1.0	z	1.28374
8	M	B	N	N					A	4	0	shapes	M	5	False	140	(-1.4263428490357688, -5.8443257033947802)	(2.8877673209840022, 7.1531680405284632)	(5.0843674896925464, -2.1365621293008079)	(-5.0168312216736251, 8.173805463569277)	1.0	slash	1.31729
9	M	A	M	B					A	4	1	shapes	A	5	True	140	(-1.9068513616166722, -4.2998263622054669)	(4.8648658587301821, 5.1051118170068399)	(6.6102608557029185, -2.1234655011956054)	(-5.5892311790910245, 1.7205602117970162)	1.0	z	1.56703
10	M	A	B	M					A	4	0	shapes	M	5	False	140	(-5.658693152427178, 3.6990870234912485)	(6.0769954793958192, -4.1260791637020864)	(8.1406652730034033, 2.9760944833684011)	(-3.4354916009450367, -7.6616141172923431)	1.0	slash	1.08033
11	N	A	A	N	B	M	B	M	M	8	5	shapes	M	5	True	140	(4.1466195533484917, -7.8569419091252675)	(-2.5940676535601366, 5.7512978027933901)	(-6.1395846704942514, 3.157098397713316)	(-1.811449251487435, -5.5977242987101095)	1.0	slash	1.48557
12	N	A	B	N					N	4	3	shapes	N	5	True	140	(6.1318908182366272, -6.4802442324596843)	(3.7277269063327889, 5.5594541645007656)	(-1.2231872515055082, 1.7195170055886138)	(-7.0861298792173848, -3.9366972783511178)	1.0	z	1.3336
13	M	B	A	N	A	B	M	N	N	8	7	shapes	N	5	True	140	(-5.675452332148943, -1.042409395013939)	(-1.7611017657531729, 5.5061000236016255)	(4.9579468466830452, 5.9072960556523615)	(-0.42890732213967731, 1.4033510890558691)	1.0	z	1.45861
14	N	A	N	B					A	4	1	shapes	A	5	True	140	(-5.0191534223666281, -1.3273910974288441)	(-6.9015763296587558, 4.5395597599328958)	(2.7177913633922817, 0.41755214421545261)	(6.1374419029793152, -2.2330969287652875)	1.0	z	1.167
15	M	B	M	A	A	B	N	N	N	8	6	shapes	N	5	True	140	(-2.9114073814585382, 5.9615312537976468)	(8.348612155068011, 2.823540323037065)	(2.0994168615145021, -1.4918311440070813)	(1.1006496063101228, -6.5861496398976325)	1.0	z	0.984176
16	N	A	M	B	N	B	A	M	N	8	0	shapes	N	5	True	140	(-1.4031332883963072, -6.9733242858706195)	(-7.9529793310648413, -8.3520063485158627)	(8.6312628512583132, -4.993065666386812)	(2.0085487241301561, 6.1646195394854111)	1.0	z	1.32037
17	M	B	A	B	N	N	A	M	A	8	0	shapes	M	5	False	140	(3.8494633992535832, 4.6002311162177776)	(-6.9227104062931497, 7.6971213675554999)	(-7.6098937121496668, 3.2040854464903816)	(8.5070404116450504, -7.9717275773288501)	1.0	slash	1.1338
18	N	B	N	A					N	4	2	shapes	N	5	True	140	(-4.4645433077249193, 8.1585225605238847)	(1.8537684525298346, -4.2016186335991312)	(7.4865132282317219, 1.8753134568012388)	(-4.1862017410330035, -4.8288235738595127)	1.0	z	1.24557
19	N	A	N	A					N	4	2	shapes	N	5	True	140	(1.733728112931102, -7.6983078859008671)	(4.0615277780357371, 3.9025092761463185)	(-4.3757905690978811, -7.7749303928587921)	(-2.1089717331627522, 6.016030639644633)	1.0	z	1.1832
20	N	B	M	A					A	4	3	shapes	A	5	True	140	(-2.4443551053068751, 2.5688749526797228)	(0.78653392918607601, -7.2474181705315868)	(-6.7770113964462571, -6.2795351558002892)	(6.6957812478924854, 6.2265725672213605)	1.0	slash	1.76074
21	N	B	M	M					B	4	3	shapes	M	5	False	140	(1.7347763729730623, -0.62592138710741807)	(-0.11680352124397864, -5.6801881881592831)	(-1.3024541079771579, 7.459849835677602)	(7.6900213024769961, 6.3337867393994038)	1.0	slash	1.08239
22	N	A	B	M	A	N	B	M	N	8	2	shapes	B	5	False	140	(-2.7093834940229318, 5.9131179172345938)	(-6.731164779911623, 1.7237163798750856)	(-6.7648710081393091, -8.5552044293120382)	(4.9364439194193821, -0.43546797844006768)	1.0	slash	1.1559
23	N	A	B	N	M	A	B	M	A	8	7	shapes	M	5	False	140	(5.3076586693334367, -4.3436029513543595)	(-1.7672923691096587, -1.6307160222962347)	(-5.6540652448735704, -6.0966947370201483)	(-8.5011949218195149, 4.6744245459744995)	1.0	slash	1.09567
24	N	B	N	B	M	M	A	A	M	8	2	shapes	N	5	False	140	(1.9730874953037123, -6.4509501191990752)	(-6.2561288745461479, 1.5896472451449313)	(-2.0663571855808733, -0.32491513527392435)	(6.802146837212474, -3.5895215650321441)	1.0	slash	1.34324
25	M	A	M	A					N	4	1	shapes	A	5	False	140	(6.7946906943554737, 2.5085492411818997)	(7.0455313119811311, -5.1488514258330307)	(-6.2593941663578381, 2.3431915166480177)	(-5.3115715826522898, -2.0297670804374244)	1.0	slash	0.986737
26	M	B	A	B					A	4	2	shapes	A	5	True	140	(-1.2788317894788035, -7.7451898178625838)	(-4.3457495511182156, 0.84795200882266109)	(1.8701631768728575, 5.3167910453923231)	(4.0058780817775901, -1.9746786736257054)	1.0	slash	1.09647
27	M	B	B	M					A	4	3	shapes	M	5	False	140	(-5.7538397985318959, 0.23482936860049364)	(5.8094304774645451, -1.5627141797058739)	(-4.6608360210687048, -7.4620751934403913)	(0.35352587256313406, 5.4191807140181751)	1.0	slash	1.29598
28	N	B	N	B	A	A	M	M	B	8	1	shapes	B	5	True	140	(6.5050098226229878, 2.3698786979541779)	(-7.9913064595109526, 5.8330234061311046)	(8.4414810123805637, 7.5194947265149708)	(-1.403009436321085, 6.4347438692764811)	1.0	slash	1.22351
29	M	B	B	M					A	4	2	shapes	B	5	False	140	(2.3740085809352927, -1.5102079398339834)	(-1.9873185226107024, -2.2585181364805651)	(-8.016390257412505, 4.1925581562112058)	(6.6164322840335377, 4.2651300088642685)	1.0	z	1.26728
30	N	B	N	A	A	B	M	M	N	8	1	shapes	B	5	False	140	(5.684429512310615, 4.7731475221385864)	(-2.8168524568265836, 5.552698303293603)	(-7.3162503576961377, 7.0111809024490448)	(4.5465689344876932, -1.3432127381141123)	1.0	slash	1.129
31	N	A	B	N	A	M	B	M	A	8	3	shapes	N	5	False	140	(-5.1847825631375359, -3.8889930582020007)	(7.1910733695748537, 1.125552440810246)	(-0.13142820792967846, -1.1344910416831695)	(-6.6305942997157539, 7.3572685371181592)	1.0	slash	1.298
32	M	B	B	A					M	4	0	shapes	M	5	True	140	(-5.8639701230245311, -8.2369811842887444)	(-0.045518269184457338, 1.0688098674074258)	(6.9587670361091174, -8.1022333014508039)	(3.5907210728509966, 7.5063855562568307)	1.0	slash	0.952323
1	M	A	M	B	N	B	A	N	A	8	5	shapes	B	6	False	140	(0.83044283908171401, -8.698792822638886)	(7.8788306187061075, -8.2124649724860532)	(7.2434669675411421, 7.887896366412825)	(-6.4605620833723858, -4.4204874992479883)	1.0	slash	0.559261
2	M	B	B	A	M	A	N	N	B	8	2	shapes	B	6	True	140	(3.0657349549754116, -2.80307032232185)	(-3.7065591928883315, 7.7893300397926382)	(7.6382858817389767, 4.3891274743688129)	(-1.0981090151928017, 2.4459189802407959)	1.0	slash	0.474892
3	N	B	M	N					N	4	3	shapes	N	6	True	140	(-4.2951529138758708, 3.4261822416704124)	(0.25606525791136292, 3.0423338620058011)	(2.7503091281858012, -1.1487001267171575)	(-3.3852008050565008, -7.3181959601046431)	1.0	slash	0.815229
4	N	A	N	A					A	4	3	shapes	A	6	True	140	(-1.8869941080540613, -4.0587662737150687)	(3.6626297526658345, 2.6067709252241631)	(3.5715266252296427, -4.829919033031997)	(-0.22429857267161957, 4.1275698212008329)	1.0	z	1.2228
5	M	B	N	A	N	M	B	A	M	8	6	shapes	B	6	False	140	(2.650965339722676, -7.4783556764653385)	(-0.4483052047877667, 8.4164223928441331)	(8.2898536929948037, -2.8201053259097932)	(2.4913118986113343, 0.59255694953393245)	1.0	slash	0.730464
6	N	B	M	M	N	A	A	B	A	8	6	shapes	A	6	True	140	(-6.8476954887039456, -0.50470183634838683)	(7.4021238380771202, 8.1524903856950033)	(-6.0983936497409541, 5.927258853250045)	(-0.004501015132504449, -8.0587941594044281)	1.0	z	0.925604
7	N	A	A	N	M	M	B	B	B	8	0	shapes	N	6	False	140	(1.4095235105105388, -2.022646676957927)	(5.6091144917319955, 2.4292556791373396)	(1.7174725758549485, 5.0517867036037405)	(-6.460342015885522, -7.3100994669724777)	1.0	slash	1.28772
8	M	A	A	B	N	N	M	B	A	8	5	shapes	N	6	False	140	(-4.7422353733375919, -1.9255316685780892)	(6.8656670550446375, 6.9372286477645027)	(7.1624145245568904, -2.1353642966368751)	(3.450611387565667, -8.3429775179960011)	1.0	slash	1.13738
9	N	A	B	A					B	4	1	shapes	A	6	False	140	(-3.8278741300394428, 4.9450029650509073)	(3.2620252808477588, 1.7734638516444807)	(-1.6909850877989792, -7.1657183686247521)	(1.9054683334585292, -2.6011918687258699)	1.0	slash	1.45292
10	M	B	N	A					M	4	0	shapes	M	6	True	140	(2.9659039234760165, -7.9065584530131181)	(4.922531679657995, 6.06878561492519)	(-3.0815889842054904, -8.6347552625534867)	(-7.9567531238176485, 4.2389202066449165)	1.0	z	1.31456
11	N	A	M	M	A	B	B	N	A	8	1	shapes	A	6	True	140	(-0.47062751608899411, 7.2080527404966563)	(-2.0578548897231608, -3.4340272386765838)	(-7.275692311678184, 1.4800560949482797)	(7.9123014440513977, -4.4512984844112911)	1.0	z	1.50213
12	N	A	N	M					A	4	0	shapes	N	6	False	140	(-2.9113848378932223, -3.8567346806381471)	(4.5895798143235211, -1.4691590029780013)	(-0.034081642177776317, 1.2792156830318806)	(7.1643957804978342, 8.3940288849672484)	1.0	slash	1.43373
13	M	B	A	A					N	4	3	shapes	A	6	False	140	(-5.6397770454972731, 8.3965095020504812)	(-8.0717542326007816, -6.2471033291597724)	(6.620390670032636, -5.3059681319461447)	(1.7156029676439406, 7.2176328590933512)	1.0	z	2.6214
14	M	B	M	N	A	A	B	N	B	8	1	shapes	B	6	True	140	(4.308585976366885, 4.94207544152653)	(2.460577383134547, -1.0826815498193048)	(-0.78208345247282107, 4.2439770510441512)	(-8.1662295593252807, 8.5481086605381797)	1.0	z	1.26696
15	N	B	M	N	A	M	A	B	B	8	7	shapes	B	6	True	140	(5.731417247798019, -5.4914277497784454)	(0.41141878016630429, -6.8361187925622247)	(-0.47802137429284564, 8.6741965970684305)	(1.0857446569168392, 0.17585880771040152)	1.0	z	1.20838
16	N	B	N	B					B	4	1	shapes	B	6	True	140	(8.279529673641818, 5.4763810177599694)	(6.5627510572120169, -4.1919109080617831)	(-5.5197097477923833, 1.4383147416670017)	(-5.2684610697824841, -6.8544435308743736)	1.0	z	1.16567
17	N	B	M	N					N	4	0	shapes	N	6	True	140	(-1.7919202091259869, -7.7461303881258905)	(2.3115615201058919, -0.28273002179034101)	(7.2634601719010909, 3.1307077379380974)	(-0.52338628930068154, 6.7285808761066956)	1.0	z	1.16763
18	N	A	M	B					M	4	0	shapes	N	6	False	140	(3.249929464642376, 1.7366131202598645)	(-3.5229435825632311, 8.1899736517607913)	(8.337064113843546, -1.8509648307202058)	(-5.1079779103376222, -0.61707325806187185)	1.0	slash	1.07132
19	M	B	B	N					B	4	1	shapes	B	6	True	140	(2.7334421848532973, -7.9004196606066408)	(-6.7728513866750379, 2.1758884342917764)	(-3.8928887642471093, -6.261826015302244)	(3.63253351962266, 4.5610007906939938)	1.0	z	1.24094
20	M	A	M	N	A	B	B	N	A	8	0	shapes	M	6	False	140	(-4.8229544628790544, -4.0881334777098459)	(4.2929588281785982, 5.64842826814691)	(1.6475827333177122, -4.0307010506725574)	(-2.4148940477345064, 0.43000550643745861)	1.0	slash	1.05821
21	M	B	M	N	B	A	A	N	M	8	0	shapes	M	6	True	140	(5.8329267585721514, 7.1780904128303717)	(-5.0141960516725899, -1.0254781623378815)	(-0.37773702983149704, -5.2092825236960003)	(-2.0217239907425206, 6.4867005574176737)	1.0	slash	1.24221
22	M	A	B	A					M	4	0	shapes	M	6	True	140	(8.3690674204319428, 7.1364036065579857)	(5.6226852412858364, -1.9159985130869819)	(-7.2186534157235256, -5.6038657634769136)	(-3.3939052798860825, 5.1365408659225515)	1.0	z	1.27595
23	N	A	A	M	N	M	B	B	N	8	3	shapes	M	6	False	140	(-6.4459802372011694, -4.8900823245606375)	(-1.7297616322915976, -5.7810751912236729)	(-3.4598459761478724, 3.7527946137570307)	(0.35215352656959631, 2.0416594693527834)	1.0	z	1.21542
24	M	B	M	N	N	A	B	A	B	8	3	shapes	N	6	False	140	(2.7949536807530411, 8.6614480744720161)	(4.3750185972225815, -6.6548279994061073)	(-7.7771585812061215, 0.86363709159611268)	(-5.8964890031279538, 7.1085249610228534)	1.0	z	1.74308
25	M	A	B	B	M	N	A	N	B	8	5	shapes	N	6	False	140	(2.5609021466075585, -7.0579938615760582)	(-2.9476642071595096, -2.7547286427930544)	(0.26178918196662515, 1.6539070624460006)	(-4.3893211928072944, 5.5147139441851429)	1.0	slash	1.17419
26	M	A	B	N					B	4	1	shapes	A	6	False	140	(8.3805478529183262, 1.2851123908469528)	(-3.146838474917562, -0.49853572121847556)	(5.8835324870996502, -1.8761347857303088)	(-8.2492792513274757, 3.2773130996755224)	1.0	slash	1.07823
27	N	A	M	M					A	4	0	shapes	N	6	False	140	(4.5868359943474974, 8.523410397226673)	(3.1090784508471323, -5.9600175479850748)	(-2.1857283560861234, -5.7922276209169308)	(-7.4554016738824807, 3.1531634909995763)	1.0	slash	1.05402
28	M	B	A	M	A	B	N	N	N	8	6	shapes	N	6	True	140	(3.5889195523899957, -2.5884359691439647)	(-7.3494580086271348, 4.3020006027514004)	(-0.62523038295498345, -8.5263441346942024)	(-3.9148540174251849, -1.6277653130205003)	1.0	z	1.35711
29	M	B	A	A	M	B	N	N	A	8	3	shapes	A	6	True	140	(3.2716609811140938, 7.5435458060065201)	(-2.452054369034915, 5.2923630627677465)	(2.3666463606150732, -8.6236223266848366)	(7.6506140959376836, 6.9347175636098317)	1.0	slash	1.86653
30	M	B	A	N					A	4	2	shapes	A	6	True	140	(5.8082647401077772, 3.1385851247384853)	(-5.3144201788975671, -6.0539312958626468)	(2.1689210159549006, -1.2128917246923692)	(-2.2434237861540067, 0.67666872735275696)	1.0	z	1.04884
31	N	B	A	M					N	4	3	shapes	M	6	False	140	(7.3116864930017762, 7.9231755247063518)	(-1.2373624782572028, 3.4461719467002396)	(-8.3719301806126829, -1.6339202074005108)	(0.13618158598927543, -3.7331242988349125)	1.0	slash	1.20848
32	N	A	B	A					B	4	0	shapes	N	6	False	140	(2.2700455905630843, 7.924394381099944)	(-5.2726497626739715, 5.000766234795865)	(-0.57552759432537925, -1.3751773859394669)	(7.5323478386282972, -1.2945326806527548)	1.0	slash	1.06421
1	N	A	A	B					A	4	1	shapes	A	7	True	140	(8.6559144374042916, 0.42805023898948491)	(4.0177215557552906, -5.2173213193898365)	(-2.6957341416547216, 3.8251550961606569)	(-7.6827214034886353, -2.1067631582170732)	1.0	z	1.39569
2	N	A	B	N					A	4	1	shapes	A	7	True	140	(-1.0629914524852113, -6.6316145769233064)	(-1.5856635835423605, 5.5494038380629593)	(8.2747308172435901, -6.5340472386326489)	(2.4915693228443825, 4.9730527467467986)	1.0	z	1.65518
3	N	B	B	N	A	A	M	M	A	8	5	shapes	A	7	True	140	(-7.7973797795071214, -2.4197094757251385)	(-7.8828628229757438, -7.8046733461626125)	(-7.8893092313406683, 3.6732074065372302)	(0.66084149337613063, 6.952514165432758)	1.0	z	1.52676
4	M	A	M	B					B	4	3	shapes	B	7	True	140	(4.1829525281801558, 4.8786952609499679)	(-1.7722865555411875, 1.3027966270045166)	(8.5559908491929058, -6.6882231235331577)	(-5.1064540253668573, -8.5941417162073943)	1.0	slash	1.94444
5	N	B	M	M	N	B	A	A	B	8	7	shapes	A	7	False	140	(-6.3139532973736259, 2.3766447956431289)	(-7.9424777078177824, -3.3282116802110959)	(0.47601716286076012, -3.1694003188697346)	(4.7774809645502359, -3.5429804043724697)	1.0	z	1.32739
6	N	A	N	M	A	B	M	B	B	8	7	shapes	B	7	True	140	(-8.5582156537439378, 0.47152471029425769)	(5.195198257791068, 3.101023651829502)	(-6.944638874306559, -6.2498435068618043)	(4.6608138741299925, -1.6898165572763482)	1.0	z	1.26696
7	M	A	A	N					A	4	2	shapes	A	7	True	140	(5.8172222559022995, 4.0400770748477033)	(-1.6277537760679515, -3.5123617818358497)	(-3.0159993396535247, 6.9533389939665327)	(6.4376337749702373, -0.093392005168967174)	1.0	z	1.1432
8	M	B	M	N					N	4	3	shapes	N	7	True	140	(3.3196689919793645, -3.8023466085701063)	(-1.1019890488906876, 8.4538413308506755)	(-4.4723338787707698, -5.4762197712681413)	(8.5185277257601975, 1.9421753311740808)	1.0	z	1.5648
9	N	B	N	B	A	M	A	M	B	8	3	shapes	B	7	True	140	(4.3004255983407642, 0.95446387021616097)	(7.3620192312324733, 5.1668267695940919)	(-5.5538193637329734, -6.5308099052939923)	(5.5679590659241942, -3.4361809206370877)	1.0	z	1.1505
10	N	B	N	B					N	4	0	shapes	N	7	True	140	(6.6244840679213208, 5.1511118557238493)	(-4.2040468940495224, 3.3310904675935902)	(-4.7999348103939958, -0.62551679170181096)	(4.9339589886986381, -1.4185078373387618)	1.0	z	1.0081
11	N	B	A	B					B	4	2	shapes	A	7	False	140	(1.6114103115746339, -0.28953195359645711)	(-5.3682811120743796, 7.6868949917747571)	(7.0318982637190572, 0.34624764427546317)	(-5.2115571850491627, -6.4674412018036413)	1.0	slash	1.33576
12	N	A	B	A	B	N	M	M	N	8	0	shapes	N	7	True	140	(0.15760205890765633, 1.2512457777083803)	(0.96592179730918204, -2.7793640099042616)	(0.96875319148715278, 8.2023356998288044)	(-8.0328759837864609, -8.0320369907799467)	1.0	z	1.15921
13	M	A	N	M	N	B	B	A	M	8	5	shapes	B	7	False	140	(2.0906635853273787, 5.8171006129198553)	(-8.3640682011152219, -7.0874486279597404)	(7.0739694884184576, 6.6642536866462816)	(4.9955786127444544, -4.3306717911879122)	1.0	slash	1.28286
14	N	B	A	B	M	A	M	N	M	8	2	shapes	A	7	False	140	(-1.4204426833384804, 6.4686985802408685)	(7.8890531937976043, -7.3636569994096011)	(-1.0801370437389037, 0.67785381716443105)	(4.1951220799747642, 3.8228538928219447)	1.0	slash	1.43648
15	N	B	B	N	M	M	A	A	B	8	1	shapes	B	7	True	140	(-8.2910003869321667, -4.833793124282959)	(0.36689728732410209, 5.255045902688444)	(-2.4250441796552415, -4.1079129992086907)	(7.4850462757582754, 7.8609819893594342)	1.0	slash	1.81607
16	N	A	A	N	B	B	M	M	B	8	7	shapes	M	7	False	140	(-0.50630051396047016, -3.3684409720765141)	(8.2936999064677579, -7.7093323935582472)	(-2.1437265117700077, -7.1018228553713225)	(3.7803159726268571, -1.6247369086282601)	1.0	slash	1.5213
17	M	A	A	M					B	4	0	shapes	M	7	False	140	(-3.1610350282226998, 2.0831477974812191)	(-1.5006276652720159, -2.9102556261129617)	(2.9846915190971117, 2.2004900279742543)	(6.4262901252732867, -7.6990794941728717)	1.0	slash	1.35524
18	M	A	A	N	M	N	B	B	B	8	2	shapes	A	7	False	140	(-3.5604378913369032, -6.4718243891415757)	(-1.4100567076768007, 0.79619005415304045)	(7.1107543577068437, -1.024313065239129)	(-8.456643211174395, -7.9768651629543452)	1.0	z	1.51837
19	N	A	M	A					B	4	0	shapes	N	7	False	140	(-7.4009264145311109, 6.3374492730131866)	(1.8192011160100012, 0.91540782988898606)	(7.3910716915597661, -1.8725772518932491)	(-8.6435194343736352, -3.1521773063726037)	1.0	slash	1.60854
20	N	B	N	M	A	M	B	A	B	8	3	shapes	M	7	False	140	(2.4625459877984373, -5.6698696127740629)	(6.9080593582669341, -8.1158978198638358)	(-1.9329426334950943, -4.9802992672664796)	(-5.1927915129737681, -0.78137250715915485)	1.0	slash	1.04162
21	M	B	M	N					B	4	3	shapes	N	7	False	140	(-4.4897659752444907, -0.723723952369415)	(4.1910804057359829, 1.0613510525799477)	(3.5112505995876848, -5.92999359430961)	(-0.24902371384595767, 4.7312418222276484)	1.0	slash	1.17985
22	N	A	N	B	M	M	B	A	N	8	7	shapes	A	7	False	140	(2.9054570820950758, -0.94744439227773025)	(-8.372890472803352, 6.6814064542044669)	(6.8068295835851469, -6.8741104618060707)	(2.9026280297352152, 5.9259539618135548)	1.0	slash	1.16342
23	N	A	B	M	A	N	B	M	B	8	6	shapes	B	7	True	140	(5.8655398911349366, 3.7194634537348215)	(-6.4975112621874329, 7.1800828991454519)	(1.4892690381946245, -6.1843886149474532)	(-8.162391402685806, -2.002609358536855)	1.0	z	1.49254
24	M	A	B	A	N	N	B	M	M	8	7	shapes	M	7	True	140	(-2.1807416855937731, 0.84836177869944507)	(5.0425500120569993, -4.3378510555752055)	(-8.6526260055752697, -3.6614927355699072)	(2.3047176818411472, -8.7422860545418555)	1.0	z	1.15641
25	N	B	B	N					B	4	1	shapes	B	7	True	140	(4.1559869284612692, 8.1836260219262691)	(2.6080253315789861, -5.7932257070558961)	(-3.8863731563800741, 4.6509239341681923)	(-1.5126594640147681, -2.8629892340168919)	1.0	z	1.25609
26	M	A	N	M					N	4	1	shapes	A	7	False	140	(-7.6896475479001145, -5.6041608476621345)	(7.865825897827424, 2.1445334617185861)	(-3.9263271702425966, 6.4962189558661727)	(4.359903788183578, -7.0924861965473101)	1.0	slash	1.19398
27	N	A	A	B					M	4	2	shapes	A	7	False	140	(6.5254142730915987, 5.2067425499885438)	(0.70691571618379534, -0.32549872648448108)	(-7.4959377897868196, -8.4821017509411121)	(-4.3424178217029681, 7.9918846247598516)	1.0	slash	1.28355
28	N	B	A	N					A	4	2	shapes	A	7	True	140	(3.8552149381755303, -1.5048760877135665)	(1.6807516715038133, 5.3747224561102698)	(-4.8109155727058175, -0.18360275846930563)	(-7.6804952075691597, 5.4245933804708546)	1.0	z	1.39716
29	M	A	N	M					M	4	1	shapes	A	7	False	140	(-7.4316884104795262, -5.3368209745127206)	(-0.27837380529140354, 0.80026784723075473)	(4.6603621583787564, 2.050517146324399)	(4.0046420629891113, -5.4327838039093965)	1.0	slash	1.47286
30	M	B	N	N	M	A	B	A	N	8	3	shapes	N	7	True	140	(6.7120970698450062, -3.9606580672238332)	(-1.8293501019384522, 4.3265361987264761)	(6.6028430180169675, 0.20761337967542914)	(2.2364838417291448, -6.6312913551031851)	1.0	z	1.00461
31	M	A	A	B					N	4	2	shapes	A	7	False	140	(3.5042251388116679, 6.5947532544943055)	(-5.577794069452386, 1.9672947029902552)	(5.5728537885199572, -6.8732510369583188)	(-5.266818548595765, -3.6083647756021318)	1.0	slash	1.66197
32	M	B	B	N	M	N	A	A	B	8	0	shapes	M	7	False	140	(3.9174294288303901, -5.7153222701759656)	(8.5328750471736541, 1.0784411701940524)	(3.1764959650816209, 0.035114432993793798)	(-4.1702677379816997, 2.3392774099922757)	1.0	slash	1.13169
1	M	B	M	N					A	4	1	shapes	B	8	False	140	(-7.6004436197473844, 5.5552628489209415)	(0.20720056438464241, -5.3743956237659045)	(8.3867415895967916, 2.6032187218027474)	(-6.9249537257969438, -1.9058585311798524)	1.0	slash	1.02905
2	N	A	N	M	B	M	B	A	N	8	5	shapes	M	8	False	140	(-2.2600154070534719, -7.2681558538386515)	(-8.28754240923476, 7.637447935736418)	(1.107309548724583, -0.29225052653129779)	(-6.7046627616072021, -7.8888456678726824)	1.0	slash	1.66675
3	M	A	B	N					B	4	0	shapes	M	8	False	140	(-2.5133286390933316, -5.0943222754998629)	(4.2963302881646577, 5.1535118301898706)	(-5.2995042282832117, 3.6342404588806598)	(3.8452572811810253, -8.5244515551039601)	1.0	slash	2.98436
4	M	B	M	A					N	4	1	shapes	B	8	False	140	(3.6992083699768159, 3.9562919923855677)	(4.9858118189194922, -7.1041527006341161)	(-2.0542019491397623, 4.3450064728969977)	(-1.2435772261770381, -5.5776976879206597)	1.0	slash	1.69977
5	M	B	B	A					N	4	3	shapes	A	8	False	140	(6.3610196415296194, -3.7619232558600384)	(1.076625532341172, 3.511785138490918)	(-3.8973318373020849, 8.2355261370868043)	(-5.3933135600154305, -8.4860511558863756)	1.0	slash	1.01761
6	M	B	A	A	M	B	N	N	A	8	2	shapes	A	8	True	140	(0.74438301118106764, -1.4459395982250083)	(4.8106625244220709, -7.0725276655844684)	(-5.3297098558698188, -1.3196431288103012)	(-3.4123892777108411, 5.9487978689553866)	1.0	slash	1.73852
7	M	B	M	A					M	4	0	shapes	M	8	True	140	(-1.881304622946443, -6.1268150713798448)	(-3.8087077777284994, 0.97124485611297828)	(7.4576241196263702, 5.1788328039147871)	(7.2614834053177262, -5.2383017296245313)	1.0	slash	0.43262
8	M	A	B	M					B	4	3	shapes	M	8	False	140	(-6.9653580839017355, -1.2458762218788042)	(-0.58400217762166129, 8.6529979044586263)	(7.582051938299827, 8.0584100338652398)	(3.9086985983720357, -3.9183497674251688)	1.0	z	1.14029
9	N	A	M	N	M	B	B	A	N	8	1	shapes	A	8	False	140	(-0.8990033377133182, 7.8524083699284226)	(-6.7472285416404567, -5.933759244746124)	(-3.4586934492809078, -0.66094978315798869)	(6.4947669669943906, 2.3242068218848448)	1.0	slash	1.23602
10	N	A	M	M					N	4	2	shapes	M	8	False	140	(5.6363775119994148, 4.3925856571032611)	(6.9044520483684071, -2.849499024196092)	(-3.3080013622166096, 6.5415761055390913)	(-7.8201162520032641, -7.2447360799820419)	1.0	slash	0.991902
11	M	A	B	M					M	4	3	shapes	M	8	True	140	(-8.3485608996765421, -2.8500484961253765)	(1.5511061346420654, -7.6393022180126042)	(-6.3245870587345703, 1.7532647162273118)	(4.4127308287463958, 7.0892103154217558)	1.0	z	1.5233
12	N	B	A	B	M	M	N	A	N	8	6	shapes	N	8	True	140	(-2.8761228352862069, -3.2677088426451997)	(-8.0097081827836796, -0.69918781197933377)	(5.3037147556113293, -7.2148185538466914)	(0.22244365621753026, -7.1592607035278384)	1.0	z	0.910968
13	N	A	B	A	B	M	M	N	M	8	6	shapes	M	8	True	140	(1.1097745007264024, -7.5698782112730694)	(-0.0296227628214627, 4.7744915154587204)	(-7.2373146983769665, -3.0047583954478725)	(1.126176448123779, -0.91621058682789513)	1.0	slash	1.22839
14	M	B	N	N	A	A	B	M	B	8	6	shapes	B	8	True	140	(-5.0252115763531631, -6.4159322708998268)	(1.1638161884293652, -5.2553459724199323)	(1.0147502635783017, 8.3463916106452523)	(6.8269606666195628, -2.0828642961058659)	1.0	slash	1.32169
15	N	B	B	M	M	N	A	A	A	8	7	shapes	A	8	True	140	(5.7086847902314055, 2.6965041603526103)	(-2.5488144977263518, -3.686324261187127)	(4.0617301457861839, -1.7431002475774919)	(-3.7005156696123604, 3.5129956819286665)	1.0	slash	1.16353
16	M	A	N	M					M	4	0	shapes	M	8	True	140	(-8.3210019061581892, -1.5084435500953468)	(-6.8122255007057486, 2.7941468703056032)	(7.944705362960967, 6.5521132127958648)	(7.7099876790588162, -4.2044381842680529)	1.0	z	1.11742
17	N	B	A	M	B	M	N	A	N	8	5	shapes	M	8	False	140	(-0.15588321441306796, 7.0750871747580621)	(6.8661425309711657, 2.1313940169827958)	(-7.6460540691086782, -0.29491615592344189)	(-5.1015383821407543, -5.3442030938216103)	1.0	z	2.00087
18	M	A	B	M					A	4	2	shapes	B	8	False	140	(0.91575264291383718, -2.330984992137366)	(-1.3609749545500396, -8.722470025543327)	(-3.0352957008929957, 3.3818260271396579)	(8.374892692401751, 7.7657065619138876)	1.0	z	1.0105
19	N	B	A	M	M	A	B	N	B	8	5	shapes	A	8	False	140	(0.38022813634026953, -7.4508839562975533)	(5.8113394019971683, 5.3786894318823144)	(-0.50660780922044424, 6.7566323176024792)	(-4.0176922616131483, 4.0237785629812866)	1.0	z	1.79606
20	M	B	A	M					M	4	3	shapes	M	8	True	140	(1.9015229664386837, 2.0538042949298898)	(-1.8962694232468271, 5.7202820259210352)	(-4.5032044687938084, -7.5173917760075364)	(7.8524688437115024, -5.4024671085370599)	1.0	z	1.11978
21	N	A	B	N					N	4	0	shapes	N	8	True	140	(1.3126071153139343, 1.2738909698461036)	(-7.4335048987868566, 8.2764894571770142)	(-1.7790112206403226, -4.6415215120715558)	(8.5310798561766781, -4.4091196259404137)	1.0	z	1.19943
22	N	B	N	A					N	4	2	shapes	N	8	True	140	(-6.5228492511231142, 4.0394406628573432)	(-3.0979088627564382, -1.2194247940416743)	(0.31350199054356942, -8.4832264624059768)	(5.7465617785792258, 7.6363201461704939)	1.0	z	1.04281
23	N	A	A	N	B	B	M	M	B	8	3	shapes	N	8	False	140	(-5.3331896515139583, 2.1043275246080402)	(-7.8585861361739662, -1.4542812796666542)	(-1.1873941544474249, -3.9807244219448794)	(-4.6725480164156687, 7.4069737682632457)	1.0	z	1.2267
24	N	A	N	M					A	4	2	shapes	N	8	False	140	(1.6074057496907255, 1.3731760671594824)	(-4.9190014428550315, 8.1213121010731655)	(-6.9646778364483568, -0.59172202239925653)	(6.730881590789302, -1.6513336799779301)	1.0	slash	1.3042
25	N	B	A	N	M	A	B	M	B	8	6	shapes	B	8	True	140	(-1.9930149218987125, 6.5934472502526003)	(0.70380154209109591, 1.4764324001734632)	(-2.2137861472007625, -8.3874942269697286)	(6.7967429989079182, 7.6570613333214297)	1.0	z	0.919497
26	M	B	B	A	A	N	N	M	B	8	3	shapes	A	8	False	140	(-6.9357857332000989, -1.0544719363164941)	(-1.74472494053677, 0.95724233105393708)	(-6.1862203480877902, 3.8121608080324645)	(-3.3459290768185861, -6.896054512339779)	1.0	slash	1.41152
27	N	A	A	B	M	M	N	B	N	8	2	shapes	A	8	False	140	(0.59646307026994627, -3.7615523381946305)	(3.3007116668452365, 8.5906638961230612)	(-0.57561228762589067, -7.6174231020826184)	(-7.8701633496624908, 1.4902789954493461)	1.0	slash	1.13914
28	N	B	A	B	A	M	M	N	B	8	1	shapes	B	8	True	140	(-1.3214090041454307, -5.488861243502881)	(-2.6429210007170045, 7.6676753260489896)	(-6.7563802465273035, 0.49824934156036349)	(4.6484333859661771, 7.3309699160423456)	1.0	slash	1.69024
29	N	B	A	B	A	M	M	N	N	8	1	shapes	B	8	False	140	(-0.30531310904942011, -7.6962557252208761)	(3.2069948389565592, -3.7762106090432459)	(-4.8968811500793787, -5.6364106283048141)	(4.0163085849421698, 4.0381973186640838)	1.0	z	1.83068
30	M	B	A	M					B	4	1	shapes	B	8	True	140	(4.3018999208561439, -0.9188541586762673)	(-3.8184611590041868, -5.8512579013957673)	(-1.9279531755991801, 0.64897090095210075)	(0.16162826241033734, 7.2753358744287695)	1.0	z	1.39988
31	N	A	N	A	M	M	B	B	A	8	3	shapes	A	8	True	140	(-6.3350416785570385, 6.6166344955857301)	(-0.75282738486937806, -7.4371696712984079)	(-3.9369002159021713, -4.6795475125932473)	(-0.63874051114035879, 5.7845166508588886)	1.0	slash	5.7874
32	N	B	M	B					M	4	2	shapes	M	8	True	140	(-6.0388625963136136, 2.8705077636187841)	(1.2410159588188403, -7.7360126131921998)	(5.8068711025125683, 0.22939789699221613)	(-5.6111361430439217, -2.5826692199557604)	1.0	z	1.24879
