TrialNumber	stim0	stim1	stim2	stim3	stim4	stim5	stim6	stim7	stim.probe	ttl.stims	corr.num	trial.type	stim.corr	block	match	Subject	stim.pos0	stim.pos1	stim.pos2	stim.pos3	ran	resp	RT
1	N	B	M	A					M	4	3	shapes	A	Practice	False	141	(-7.9609923841840375, 6.2026792015922982)	(-1.3214738223643216, -2.5374691155936429)	(3.2693864491015372, -1.8623121018723481)	(6.9592984412408949, 7.0789513037901042)	1.0	slash	1.33976
2	M	A	N	B	N	A	B	M	N	8	5	shapes	A	Practice	False	141	(5.8537326318736351, 0.65703311210005921)	(0.074406641923703276, 4.7038898567221672)	(-6.8040778597199427, 1.0639828112749594)	(2.274846149007919, -8.2300322335338425)	1.0	slash	1.39494
3	N	A	M	M	B	B	A	N	N	8	0	shapes	N	Practice	True	141	(8.4840196449748824, -6.3224317505758219)	(-6.62199674409145, -3.8471946757241566)	(7.750396805704483, 6.7312952517296072)	(-8.3733732459519636, 2.7203798158209249)	1.0	z	1.01445
4	N	B	M	N					N	4	3	shapes	N	Practice	True	141	(0.20788835450337118, 5.2104017557631082)	(-2.1934248253632962, 1.0907513879161801)	(-1.8593818490944862, -3.8113090379796386)	(2.6925360606796591, -0.6830443208474879)	1.0	z	1.02281
5	M	A	N	N	M	B	B	A	M	8	6	shapes	B	Practice	False	141	(-4.0971907988107246, 8.1156593760337152)	(6.804815454454225, -1.954036396685912)	(2.7612057985376595, -3.7894062979601193)	(1.2458804552031708, 0.51038030794435585)	1.0	slash	1.01942
6	N	B	A	M					N	4	1	shapes	B	Practice	False	141	(-2.5268426449173935, 8.4588451334450063)	(-7.171903696057905, -7.0111917582267322)	(2.3950450173494531, 0.95202011900946637)	(0.94482610896813668, -6.4855074215665143)	1.0	slash	1.42594
7	N	A	A	N	M	M	B	B	A	8	1	shapes	A	Practice	True	141	(6.3962155856498839, -4.9069275530435643)	(-2.8116049414101756, -4.3622263892250874)	(3.9892632367025609, 1.5729804242472998)	(-7.2155719913237899, 6.3882101716800896)	1.0	slash	1.05676
8	N	A	A	B					A	4	2	shapes	A	Practice	True	141	(-1.8133137554752095, 3.1445372941842553)	(-1.0277993625125745, -8.6062743671193864)	(0.93760245785464491, 7.7404959938173512)	(0.41650176318071175, -2.2750502060135123)	1.0	z	0.798749
1	M	B	B	A	A	M	N	N	M	8	5	shapes	M	0	True	141	(4.3903890776508323, 7.154678736825236)	(1.0611176274284357, -1.139284526165504)	(-3.0727407360306112, 7.065727727283539)	(5.9462688450410308, -4.2231271573565801)	1.0	slash	0.646444
2	M	A	A	B	M	N	B	N	M	8	0	shapes	M	0	True	141	(-7.289226375552432, 2.9921580055610306)	(1.327212586842661, 1.1885644218974178)	(5.4915179982367679, 5.7214956624270137)	(0.93991117780048761, -4.4594852385900152)	1.0	z	1.01082
3	M	A	A	N	B	M	N	B	N	8	4	shapes	B	0	False	141	(-4.7397125726618707, 1.9972801357059584)	(0.018316364230187787, -5.3692595521287787)	(8.3062988186614852, 7.0920034885156831)	(4.6407017971541151, 0.30388978994285765)	1.0	z	1.22837
4	N	A	M	M					M	4	3	shapes	M	0	True	141	(4.4333068901396082, 6.8722563164830799)	(6.3929170837929572, -7.4073360804129615)	(-6.7509160325895063, -7.8090324446135719)	(-1.0657667165086648, 0.67267880590607021)	1.0	z	0.849832
5	M	B	B	A					N	4	1	shapes	B	0	False	141	(-2.8338810291818168, -6.6591537149624997)	(4.274332351541835, 3.3191808017352642)	(6.9920037862924502, -4.7906030529165253)	(-6.1884891918941136, 8.2557603806724238)	1.0	slash	0.752912
6	N	A	B	M					M	4	3	shapes	M	0	True	141	(-2.812950068487738, -7.3335989625508837)	(6.0014921198889919, -8.0308791362081244)	(-2.2864853755249124, 4.9002344261730304)	(2.0090080494386484, 6.1196629571505312)	1.0	z	1.18891
7	N	A	M	A					N	4	3	shapes	A	0	False	141	(-7.7484234575333613, 2.0343859533275079)	(7.7026405512611227, -2.746509508498689)	(-4.9514909652530541, -2.3289108197369224)	(4.3965160093451203, 4.3003977127298629)	1.0	slash	0.928269
8	M	A	B	M					B	4	2	shapes	B	0	True	141	(8.1262535613312785, 5.8530675461626114)	(-1.6534849005191328, -3.4504516369461751)	(4.6096911812186985, -6.9099270906563595)	(-4.4257495809582803, 3.4085590472703071)	1.0	slash	0.560533
9	M	A	B	M	B	A	N	N	M	8	0	shapes	M	0	True	141	(-6.5277956915007636, 0.75162092170655015)	(6.8105718900176377, -0.6198021906717095)	(-0.69786809105801062, -5.7293525028369876)	(5.6797360961379812, 4.1907538592405729)	1.0	z	0.763665
10	N	B	B	A	M	A	N	M	N	8	0	shapes	N	0	True	141	(-8.3324798048669351, -2.1206873095809522)	(1.9232357619982441, 1.0862964056047009)	(3.8771776199413566, -2.5270336219984157)	(7.0225963792090376, -5.3683257190663198)	1.0	z	0.549066
11	N	A	B	M	B	A	N	M	N	8	6	shapes	N	0	True	141	(4.1818554543676001, 3.6323181295019342)	(-3.8159442534091408, -8.447735404552164)	(-8.3571727517907277, -7.1193721790731495)	(3.6338509450668912, -7.5246818670650075)	1.0	z	0.666904
12	M	B	M	B	A	N	N	A	B	8	0	shapes	M	0	False	141	(-5.8697892369008873, -3.1051754155917859)	(-0.37483344730342694, 8.487189174126172)	(8.4065944214280819, 8.1675110584907706)	(-2.0152946974862749, 3.2432052212309941)	1.0	slash	0.632757
13	N	A	M	A					A	4	2	shapes	M	0	False	141	(5.8867965122471411, 8.663652389542122)	(-8.2199219947247215, -8.2948290610851778)	(-2.2863770329102708, 8.5122561430387442)	(3.0596124413263386, -3.8806424096698526)	1.0	z	0.772391
14	N	B	M	N					B	4	2	shapes	M	0	False	141	(8.7354409703123785, -4.475723853050722)	(-2.6188994065290769, -4.3182587592525836)	(-4.7429817441746858, 3.8628274682689376)	(6.9086528099350097, 8.2698634759996565)	1.0	slash	0.73195
15	N	A	M	N	B	B	A	M	N	8	3	shapes	N	0	True	141	(4.2399039002704999, 3.8970657936957451)	(-2.4370418334165116, 2.0914151001553787)	(-8.6623401571237242, -6.2432123631701852)	(-0.7907372152888108, -6.0142207947828155)	1.0	z	0.731499
16	N	A	M	M					M	4	1	shapes	A	0	False	141	(-7.2760217005099754, -4.6654237459247216)	(7.481745129608516, 0.30594170858226732)	(8.6843810331247013, -4.9049801581080175)	(-3.8910125064487948, 4.3504111531901177)	1.0	slash	0.936944
17	M	B	M	A	A	N	B	N	N	8	1	shapes	B	0	False	141	(-1.9129091532747191, -6.4715759428876138)	(3.0984561608516632, 7.2619189421458437)	(2.258562745480921, -5.1418785080838134)	(-5.1898698648666617, -1.7350505661520375)	1.0	slash	0.898864
18	M	A	A	N	N	B	B	M	B	8	0	shapes	M	0	False	141	(-7.0001190015500399, -8.0926028598917412)	(-0.82095447562990209, 5.4670241573424736)	(-6.1641975442715351, 8.4878062937433292)	(6.2960124300842608, 8.2567278507021733)	1.0	slash	0.851185
19	M	B	A	M					N	4	1	shapes	B	0	False	141	(3.5540718562096281, 2.393303780980407)	(7.4687051351004143, -7.7542135751424741)	(-0.87504148747551014, 6.1337497127368756)	(-7.2743855286698107, -2.0777773063652303)	1.0	z	0.546632
20	M	B	B	N	M	A	A	N	M	8	4	shapes	M	0	True	141	(8.4006051591613478, 1.8229407271277509)	(-5.6334189232962588, -2.4159673184085495)	(-3.6707520584452222, 3.3231916878047389)	(3.1297522152836699, 5.7347789765615378)	1.0	z	0.489874
21	M	A	B	M	N	A	N	B	B	8	6	shapes	N	0	False	141	(-7.3022279862153887, 6.7781680430354072)	(3.5584843367155869, 7.1760572332591384)	(-4.8603281173853183, -0.35350306047228308)	(-1.2891228302919266, -3.9506194326831485)	1.0	slash	0.900294
22	N	B	N	A					N	4	0	shapes	N	0	True	141	(3.478501660698516, -6.0591511179188657)	(7.5322756185158077, 4.150811839182543)	(-6.6775256866257591, -0.20025581760429922)	(-2.6092628992583631, 5.6932258984118427)	1.0	slash	0.958968
23	M	B	A	N					M	4	0	shapes	M	0	True	141	(-1.9011784219237207, -5.71411698403206)	(6.2375515706639302, -0.18617512136296632)	(-0.019468371539586471, 7.5723545611573968)	(8.7444427829837856, 4.347787467544018)	1.0	z	0.393247
24	N	B	A	B					B	4	1	shapes	B	0	True	141	(3.5891792984194755, -8.4643627821739731)	(-1.529952045991358, 2.47498257945138)	(1.934056662117225, 5.9065395337765541)	(-1.2392306264875366, -6.0214105076350961)	1.0	slash	0.667008
25	M	B	A	N					A	4	2	shapes	A	0	True	141	(2.9900377664948401, -6.7657658922997088)	(-4.9598047118149129, -7.4468812363142423)	(-3.8230560590073308, 0.85559335924926394)	(6.326690977942949, 1.6930253576267589)	1.0	z	0.896588
26	M	A	A	N					N	4	0	shapes	M	0	False	141	(-2.59429930661166, 2.9052736695317005)	(0.65387641140775443, -1.7351892596061704)	(2.4436883679843859, 7.9217245560863283)	(-4.7790503825717181, -1.9617817354781542)	1.0	z	0.750246
27	N	A	M	M	A	N	B	B	N	8	5	shapes	N	0	True	141	(2.6046932619415237, -3.1730879705482735)	(7.4410027866186752, -3.8423441957281534)	(-3.7059698483261991, -2.1519195803185394)	(-1.5627693443543746, 7.6312046141961609)	1.0	z	0.660017
28	M	A	A	B	M	B	N	N	B	8	0	shapes	M	0	False	141	(4.1692286466820825, -1.4838930037121738)	(-0.77702464534337246, -5.5143954793407168)	(7.9427519843522134, 0.71755447152203722)	(2.8338783016815015, 3.8233202993112148)	1.0	slash	0.515013
29	M	B	B	N	M	N	A	A	N	8	6	shapes	A	0	False	141	(6.1903948586185997, 3.0162924668982463)	(-2.9988276735529267, -8.029802612916038)	(-7.9984970398592932, -5.7123852417243288)	(2.9940935392463448, -5.0105812328323971)	1.0	slash	0.817485
30	M	A	B	M	B	N	A	N	N	8	1	shapes	A	0	False	141	(-7.2519504298430251, -5.4295724855080376)	(-6.018612181897395, -1.4294745035588052)	(5.1376191956605908, 1.0714415237556398)	(2.545817513615475, -3.3241567998421324)	1.0	z	0.584186
31	N	A	M	N					M	4	1	shapes	A	0	False	141	(7.7739276918862394, 1.0434526594831546)	(-3.1055689593476323, 2.5906245439872144)	(-1.5179864698753569, -5.5769855868181661)	(2.9548516186250229, -2.4059385012199099)	1.0	slash	0.588776
32	M	A	N	M					A	4	1	shapes	A	0	True	141	(-1.3566652814771398, -8.2985195341803983)	(1.8910255647504091, 8.5770584109804737)	(-6.959493815783329, 2.8912279605773605)	(7.4556057343276443, -1.446685476840182)	1.0	slash	0.598192
1	M	A	A	N	M	B	N	B	B	8	4	shapes	M	1	False	141	(-1.379846844576722, 0.58252141302895666)	(-1.56115769740207, 7.6950090007823704)	(7.4851720036719236, -3.7101113716553105)	(4.1527611679765233, 5.14616033233834)	1.0	slash	0.959972
2	N	A	A	N					A	4	2	shapes	A	1	True	141	(3.1507335544462851, 5.5076023897782171)	(-0.49548123325230264, 7.435851478932193)	(8.7089368097516235, -5.0483032401643921)	(-1.3570353187258259, -5.8829756979486874)	1.0	slash	0.425819
3	M	A	A	N	N	B	M	B	N	8	3	shapes	N	1	True	141	(-8.3731895726175125, 1.5788990286168598)	(-2.0507381052336351, 4.9655561998198241)	(2.7466861694408866, -5.5904829343362934)	(-3.0565753413688777, -4.7896858893171865)	1.0	z	0.358893
4	M	B	B	M	A	A	N	N	N	8	3	shapes	M	1	False	141	(6.3426281915267797, -8.5940419774086081)	(1.5279890941326837, -2.7195341862573148)	(-3.5938235875543914, 0.2009164892852322)	(-7.5835187068715406, -5.7135484166476997)	1.0	z	0.578466
5	N	A	B	B					N	4	0	shapes	N	1	True	141	(5.5271972702633683, -3.6724128193607886)	(7.0703401474592766, 1.9605307454894785)	(-1.7570719427908914, 6.5953504213276037)	(-2.5865567379174275, -4.0233994342988222)	1.0	z	0.791736
6	N	A	A	B	M	B	M	N	M	8	2	shapes	A	1	False	141	(1.8604590861304739, 4.1518772860885598)	(-1.9718478355280054, -6.7747400776792706)	(4.823804349757614, -5.4540510726079905)	(-8.1833018485184574, 4.1430686175894742)	1.0	slash	0.899724
7	M	A	M	N	A	N	B	B	M	8	2	shapes	M	1	True	141	(1.4606140829090712, 2.9950863110559887)	(-6.9071618849327931, -2.3916796328306473)	(5.3155895246326939, 6.286721953225511)	(1.807417544865018, -1.852187495324376)	1.0	slash	0.907382
8	N	B	N	M					M	4	0	shapes	N	1	False	141	(-0.083414147754742984, -6.3223035226163979)	(1.4523853960937227, 1.5252547886589038)	(3.704495098325749, -8.1729825489583749)	(-7.2737448617360467, 3.5960454330313301)	1.0	z	0.702977
9	N	A	B	M	N	A	M	B	A	8	1	shapes	A	1	True	141	(6.4251207218782813, 8.2202828091214712)	(5.4397302085391992, -7.6598110838103253)	(-4.2241563394041055, 1.4569910602152785)	(-2.2732830720015489, -5.9249920675127701)	1.0	slash	0.895397
10	N	A	N	A					M	4	3	shapes	A	1	False	141	(6.9839698885802264, 6.5462854228434537)	(-3.7817136764168602, 2.2516107850064557)	(3.2290623260497071, -3.8499437468127775)	(-5.2806568040162851, -3.3305357030679206)	1.0	slash	0.708015
11	N	B	M	N	A	A	B	M	M	8	7	shapes	M	1	True	141	(5.8888588876825629, -7.7701047922611597)	(-6.8206822603165351, 7.672767778111524)	(-4.0798946478240037, 4.0590162832195897)	(0.22563319685075278, 7.5476354687335672)	1.0	z	0.633997
12	N	B	N	B					M	4	1	shapes	B	1	False	141	(-5.2821046516497798, -6.0311808963994995)	(-6.1931952367995287, 0.14309913284298581)	(6.3350611926519313, -4.0166241597919168)	(3.7294671993681128, 0.42415652287770378)	1.0	slash	0.629568
13	M	B	A	N	N	M	B	A	N	8	7	shapes	A	1	False	141	(1.8454959922197798, -8.5201460794564614)	(-5.2074995501412156, -0.71559826811841276)	(-0.34161190303177236, 5.6703651522335221)	(4.1626441035859383, -1.8962292106158829)	1.0	z	0.965406
14	M	A	A	N	B	N	B	M	M	8	4	shapes	B	1	False	141	(-0.1789317639183956, 1.4769396322438375)	(0.37734114877989455, -2.7017661116249538)	(-3.1548272898259455, -5.2612224590027967)	(8.2452725711286874, -3.2313934924574959)	1.0	slash	1.04715
15	N	B	B	A	A	N	M	M	A	8	4	shapes	A	1	True	141	(0.36042091027809597, -7.7800750046998708)	(-1.9600384533933113, 7.4522234081874217)	(2.4673651523099505, 3.9155171418129768)	(8.0772945225704156, 6.4002516262252627)	1.0	slash	1.09025
16	N	A	B	B					A	4	0	shapes	N	1	False	141	(1.4137553394674676, 1.2370488771312953)	(5.6016630165654266, -4.0992983322044445)	(-5.7502370993117857, -4.0484288071646439)	(-5.2520963727759291, 8.4550865334541285)	1.0	slash	0.952248
17	M	A	N	A	M	N	B	B	A	8	0	shapes	M	1	False	141	(-1.9476650380837732, 1.7472206035038766)	(-2.4765781163719316, 6.5938314988252813)	(8.1410776526936139, -8.6426022442163486)	(-6.12083920772921, -6.503984872038453)	1.0	slash	0.796589
18	N	A	M	B					N	4	0	shapes	N	1	True	141	(2.2248624492088407, 4.3024008791921489)	(-8.2760816088183891, -6.1536311901826206)	(-7.6280626813109134, 3.4920639728632032)	(3.4429204302799441, -2.5072978289236429)	1.0	z	1.28003
19	N	B	M	A					B	4	1	shapes	B	1	True	141	(-7.8296181623523333, -0.35117550135282016)	(8.0916526841604508, 3.708844660531982)	(-5.5024110739619712, 5.1532866551726215)	(4.3243552503314149, -0.67148975012967149)	1.0	slash	0.489381
20	M	B	M	N					B	4	0	shapes	M	1	False	141	(4.9517437652958964, 2.846596684242833)	(5.3614990286023776, -3.6273962220739095)	(-3.6324814014791444, 5.3029003935874961)	(-5.6285024873661689, -8.5827229446415334)	1.0	z	0.753432
21	M	A	A	B					N	4	3	shapes	B	1	False	141	(-8.3205778968783513, -4.4389717797437136)	(-3.5988311277739413, 3.1495272537726979)	(0.44352972243583189, 8.675082823495746)	(3.9258876781155152, -1.4291236054490213)	1.0	slash	0.869024
22	N	A	A	B					B	4	1	shapes	A	1	False	141	(0.80581261949879668, 0.6841966670145716)	(-0.42662095907931885, -5.3474802370340218)	(-6.2297067917849862, 7.8669579178186524)	(5.6617751171392179, -4.406778361474414)	1.0	z	0.750164
23	N	A	B	M	B	A	N	M	M	8	3	shapes	M	1	True	141	(7.9199195782920064, 6.2057721261346774)	(6.9110165374173356, -8.2186356779213448)	(6.8988837719396372, 1.5154124656631467)	(-7.3039623854862246, -6.8588940226751944)	1.0	slash	1.4437
24	N	A	A	B	B	M	N	M	M	8	2	shapes	A	1	False	141	(3.8799003700298265, 2.9795848086262442)	(-2.7445008451688029, -0.41238094055131924)	(7.8616321903988933, -7.2230757016529346)	(-0.022970039628802397, -7.9477275634707025)	1.0	slash	0.949384
25	N	B	A	M	M	N	B	A	A	8	6	shapes	B	1	False	141	(-2.9577910623404922, 1.1714722116174556)	(-6.6490867682475043, 4.3338664770032267)	(7.0341220109933023, -6.7425739783360452)	(-6.8492832467746592, -0.26922464986420813)	1.0	slash	0.619628
26	M	B	A	A	N	N	M	B	M	8	6	shapes	M	1	True	141	(-7.3800943575069482, -4.371272393628443)	(-0.654899976009645, 3.2075863639992939)	(-6.7134005799780176, 3.3189282204687327)	(3.877275380047104, -0.92799716512150265)	1.0	z	0.452753
27	N	B	N	A					N	4	0	shapes	N	1	True	141	(-1.5883261072161732, 5.6461697952819723)	(4.5390788465719982, 4.3230057238312476)	(4.6705736580054715, -6.0606172045604803)	(-6.3434974126727193, -8.7076658455747769)	1.0	z	0.876969
28	N	B	N	A					N	4	2	shapes	N	1	True	141	(-2.1833066101845606, -4.746460378710613)	(-5.8032990389187287, 4.1787029514853113)	(5.7037063361903897, -8.5707513602559295)	(6.1176110322353932, 8.4045404950552793)	1.0	z	0.816011
29	M	B	A	B					M	4	3	shapes	B	1	False	141	(8.6405930265198094, 7.9430276440260172)	(-5.2503155127785526, 2.6769636624436597)	(4.0171195299979647, -2.3907041501705919)	(-2.0269569505154008, -6.8513610953097395)	1.0	slash	0.760012
30	N	B	A	N					N	4	0	shapes	N	1	True	141	(1.5764036418060332, -1.9888756190755927)	(1.6011894168844716, 6.882885258552129)	(-5.2819385944559292, -3.2336800298749386)	(-8.4260815410898413, 6.0667481467633628)	1.0	z	0.673991
31	N	A	A	M					M	4	3	shapes	M	1	True	141	(-3.0401767645689786, -1.5540720140265751)	(5.5891425464776479, -1.3242685500790721)	(4.4990717344341284, 3.671459509225496)	(-5.194432797585085, 7.0990477714107527)	1.0	z	1.03763
32	N	A	N	M	B	M	B	A	B	8	4	shapes	B	1	True	141	(-3.241349039565919, 3.8959099948695144)	(1.6380163583752587, -0.039606495622182436)	(8.1618601709768512, 8.2882399944838667)	(6.6980815338997512, 2.3158628841348019)	1.0	slash	0.994453
1	M	A	A	M	B	N	N	B	M	8	0	shapes	M	2	True	141	(0.39877741024475277, -0.37232166951126366)	(1.8683634293322307, 3.8778051472605188)	(8.3036442711911889, 4.0230050124082375)	(7.1686044363542649, -2.1253002859227337)	1.0	z	1.08249
2	M	A	A	M	N	N	B	B	M	8	7	shapes	B	2	False	141	(-5.4633155027019917, 4.7023756254940512)	(5.9493632686227862, -6.8014936879828083)	(2.0331301015178074, 3.1624922179878396)	(-6.7506044031314651, -6.7158496838867023)	1.0	slash	0.670035
3	M	B	A	N					B	4	1	shapes	B	2	True	141	(-8.1061672305174284, 3.279974246313822)	(-5.2894025307417776, -2.0986618625281173)	(3.5128185092279338, -1.0294759078118139)	(8.3875088081788114, 3.7980329538013962)	1.0	slash	0.986057
4	N	B	N	M					N	4	0	shapes	N	2	True	141	(2.5512102735998212, -0.22692166916353251)	(7.0885906167034349, 5.6930408108940629)	(-7.8070831343320375, -2.9053258954239123)	(-1.341349114385725, 5.8318377879912404)	1.0	z	1.17577
5	M	A	M	B					B	4	3	shapes	B	2	True	141	(2.3763636981053082, -0.094264331548000513)	(1.7277572329305215, 5.7824545398855793)	(-6.9115891679916928, -1.6641023856929227)	(-6.5130870376570247, 6.3491324348850977)	1.0	z	0.927484
6	N	B	A	A	N	M	B	M	A	8	7	shapes	M	2	False	141	(-8.2205133487587592, 3.3223572493868172)	(1.662626850902404, 7.3204526592710124)	(-3.0659940457840422, -3.4548951503195049)	(4.7028951896859397, -7.2723707461309148)	1.0	slash	0.266531
7	M	A	A	M	N	B	N	B	N	8	1	shapes	A	2	False	141	(7.7427879829761466, 5.1282889207629605)	(-5.6296365023786565, 0.61157196504149525)	(-5.1698320015570687, 8.5925017070704364)	(0.80279321265458137, -5.5487067923131521)	1.0	slash	0.8908
8	N	A	M	N					A	4	2	shapes	M	2	False	141	(-0.060731898011519903, -0.67018341464679132)	(6.2741374319508338, -4.5536625663566728)	(8.0934258268249692, 7.2330218937318307)	(-3.5662053646571952, 4.8305534331071893)	1.0	slash	1.08152
9	N	B	M	A					M	4	2	shapes	M	2	True	141	(6.4623039324628717, -4.6365995710332815)	(4.3837895499933026, 3.0678475932201721)	(-5.8792576151013751, 7.4394813825434447)	(-0.56687256838820943, -5.3785002690016199)	1.0	z	0.66801
10	M	B	M	N	N	A	B	A	M	8	2	shapes	M	2	True	141	(6.9275884314994585, -0.48168366902447168)	(1.0056616330215125, 3.0379379340583927)	(-5.0844545335493674, 0.7289412483022577)	(-6.3955132142114497, -7.0289093958903095)	1.0	z	0.529757
11	M	A	B	A					N	4	1	shapes	A	2	False	141	(0.86488025269302682, 8.4737199727374062)	(-6.8085035604631274, 7.0258111636701983)	(0.18324289050207021, -3.1985020926291066)	(-6.7815150752089624, -4.3565711075855447)	1.0	slash	0.921185
12	N	A	A	N					M	4	3	shapes	N	2	False	141	(1.5092991917716692, -3.9530946520582004)	(-3.7934532650316273, -3.9965553429880503)	(7.4350688971828482, 4.102514322323918)	(-8.3580582963107481, 8.3161811366870246)	1.0	z	0.747073
13	N	A	B	N	A	B	M	M	N	8	3	shapes	N	2	True	141	(-8.2542015996397069, 7.968755619860719)	(0.44465197086226382, 0.77562683916842268)	(8.3565257091497926, -5.2549478399131608)	(5.66283963433529, -8.290459395649215)	1.0	slash	0.890597
14	M	A	A	B	M	B	N	N	N	8	2	shapes	A	2	False	141	(7.2402612840568246, -0.82352405536279072)	(-3.8724427491852467, 1.9623158135015206)	(2.7596822956753915, 3.637752419300865)	(-7.3589069161022405, 6.0392982116059777)	1.0	slash	0.982323
15	M	B	A	A	N	M	N	B	B	8	7	shapes	B	2	True	141	(-0.30692409249125951, 1.561865926137898)	(6.2341633251114619, -5.3061868505520913)	(-0.28082833533954421, -6.7343975899554023)	(8.1056250361762707, 8.5764692262532058)	1.0	z	0.947228
16	N	A	B	A	N	M	B	M	N	8	3	shapes	A	2	False	141	(-8.1797052357511664, 2.2779802469107917)	(-1.2517494958450008, -5.8371959078949152)	(5.6624275041699104, 7.8762367134436957)	(4.6407799399376319, -5.2510362207450649)	1.0	slash	1.40896
17	N	B	M	B					M	4	0	shapes	N	2	False	141	(4.0619147641036069, -4.9995829444755699)	(-8.7443395644271966, 0.94231161495078375)	(-8.4833249049807637, -4.6802608421858478)	(8.0766264332998183, 8.6077601012463454)	1.0	z	0.729425
18	M	B	M	A					N	4	2	shapes	M	2	False	141	(-1.8917671135737057, -0.093156444084407042)	(3.1995658331179868, 1.3976640738967667)	(2.5680491878953671, -4.2726104344226981)	(-4.8112492758369321, 8.0832063503676821)	1.0	slash	1.88012
19	N	B	A	B	N	A	M	M	A	8	5	shapes	A	2	True	141	(2.4051483541415877, -2.7772230570237095)	(-3.2032905848142006, -4.0142461759362025)	(-5.3255675074287847, 6.9554903839959525)	(5.6947634035378787, 1.1724353926730053)	1.0	slash	0.934439
20	M	A	A	M					A	4	0	shapes	M	2	False	141	(-8.234770357821219, 2.1663913415311313)	(7.0060405431978321, -0.8056161140146223)	(-4.555880626866637, -1.5770856603701393)	(4.8377771129612963, 6.9379258122325655)	1.0	z	0.8372
21	M	B	A	B					M	4	0	shapes	M	2	True	141	(3.0208037545320803, -6.2555051452206829)	(-7.5340945778695403, -2.9915292956029198)	(3.1736743507827647, 2.4271090572835909)	(-5.7771190340346266, 6.6708690155464474)	1.0	z	0.637791
22	M	A	M	N					N	4	3	shapes	N	2	True	141	(-2.9065672566440082, 6.5052250432295153)	(5.9544510663520782, -0.055813247843575553)	(1.5548408912682223, 3.5507858813315067)	(-3.8075813916720094, -4.7725246246461719)	1.0	z	0.62545
23	N	A	N	B					N	4	2	shapes	N	2	True	141	(-6.5835819323484115, 5.9160754599263345)	(-6.756352307701242, -4.348588063440805)	(2.2301158330118831, -0.97385294955786605)	(4.0580518473689775, 7.1227835039821841)	1.0	z	0.614974
24	N	B	M	B					A	4	3	shapes	B	2	False	141	(0.70502778620069328, 2.5873727231758075)	(-4.2988790410930706, -5.5642399617392861)	(0.43047589166939915, -7.8470809001273043)	(-5.1385917571110182, 2.8921480207580856)	1.0	z	0.590212
25	M	A	N	M	B	A	N	B	N	8	6	shapes	N	2	True	141	(7.756256059996538, 3.8411880879735421)	(-3.119040729502367, 0.8458753023940595)	(6.7336762051268568, 8.3182077277817612)	(6.6321042459372972, -0.69373660289739369)	1.0	z	0.745721
26	M	A	M	N	A	N	B	B	B	8	5	shapes	N	2	False	141	(8.5645849746781444, -4.5052435103384632)	(2.0992172697429492, 6.8977603097266655)	(5.8223477957150092, 1.7245796006449865)	(-2.6364048272961229, -2.7821762470474631)	1.0	slash	0.489417
27	M	A	N	N	M	A	B	B	A	8	0	shapes	M	2	False	141	(2.3343583535358619, -0.3565536489588208)	(2.1373907353448356, -7.7933670605538348)	(-5.3758849244193048, -1.0790675455788747)	(-8.5568029844411448, 4.2946602439290089)	1.0	slash	0.763964
28	N	A	B	N					B	4	2	shapes	B	2	True	141	(4.7598738705195878, 6.853514508566418)	(-8.1626914315977626, 2.0636461345243315)	(-8.131911045766552, -6.2726505120263827)	(8.7330300306379982, -5.6911539921018139)	1.0	z	0.700749
29	N	B	B	N	M	A	A	M	M	8	4	shapes	M	2	True	141	(8.6826528116066015, -3.4938961969013409)	(2.633240098239634, 5.4770836354401666)	(-8.2347842371644777, -1.1544664849859734)	(1.8920454832806985, -8.0457044017285781)	1.0	slash	0.764826
30	M	A	A	N	N	M	B	B	N	8	2	shapes	A	2	False	141	(-2.7550200825601383, 5.4315555054406044)	(6.5363292645518403, -5.8129734829608459)	(-3.9264909029888786, -1.8345467165271518)	(1.2999310679140645, -4.5045117071180494)	1.0	slash	0.854314
31	M	A	N	B					B	4	2	shapes	N	2	False	141	(-5.97141849060338, 2.0987071012617413)	(5.0238532922961898, -5.2941801890155498)	(4.8871117020204125, 8.244505329740079)	(-2.8710852946898875, -3.8921973640910741)	1.0	slash	0.830392
32	N	A	N	B	B	M	M	A	M	8	5	shapes	M	2	True	141	(0.96997122258308544, 8.202956264113265)	(3.7265603793303725, 1.808092363021002)	(-6.0269673903445966, 4.256182898952007)	(8.6290085902630409, -6.5979740620464415)	1.0	z	0.941888
1	N	B	B	N					N	4	1	shapes	B	3	False	141	(-7.9340681402052162, -7.8645856124682227)	(5.8430859906343553, 0.20078333929468428)	(-2.4934154456203377, 2.0388375254755378)	(2.9666378075386959, -4.9196704345794995)	1.0	slash	0.769595
2	N	B	B	A					M	4	3	shapes	A	3	False	141	(-6.618637127582927, 8.68604681150304)	(2.1649202363564033, 4.3552361773531718)	(6.8127886717735873, -1.466383439506699)	(-0.054857592234117902, -3.1391449621364043)	1.0	slash	0.865165
3	M	A	B	B					A	4	3	shapes	B	3	False	141	(-1.6921133915194764, -0.15580087336385695)	(-1.4784643216234565, 6.7144639054766415)	(8.4302533361562659, -3.4501695885416677)	(3.7695260350702533, 6.414575919502882)	1.0	z	0.934239
4	N	A	B	B					A	4	3	shapes	B	3	False	141	(-4.1103137259195615, -3.7789056708546758)	(4.1073292197326712, -0.91414944746991988)	(-6.4255913911138709, 7.2466507393330062)	(6.0775057334460758, 8.0332861124311279)	1.0	slash	0.854499
5	M	B	N	A	B	M	N	A	M	8	0	shapes	M	3	True	141	(-2.7245570066120575, -6.3684813229252084)	(-7.2128080878519301, 4.5201935906295105)	(-8.4974267798288423, 8.7114073740667628)	(8.6387408690228789, 7.8975156000113813)	1.0	slash	0.861761
6	M	A	M	N	N	A	B	B	A	8	5	shapes	A	3	True	141	(2.6086083716127408, 0.48745670156701948)	(3.8297564545888267, -6.4451246620622449)	(-7.7829271705367749, 0.86077437236151333)	(-5.6692592516716012, -3.4401786935263869)	1.0	z	0.901444
7	M	B	B	M					N	4	3	shapes	M	3	False	141	(-3.8332541360548653, -8.0659076978362982)	(2.1152063398573127, -5.9512922869422784)	(-0.021604756039675266, 0.79342446455603444)	(8.0985268370687784, 4.9436530252812165)	1.0	z	0.715539
8	M	B	A	B	A	N	N	M	A	8	5	shapes	N	3	False	141	(-6.6904101153309963, -8.0499047199188585)	(-2.5962759230718069, 1.5377917894898729)	(1.6802368441949778, -6.3099479385677881)	(-7.7642288176618575, 1.3407311606813739)	1.0	slash	0.960637
9	N	A	B	N					N	4	0	shapes	N	3	True	141	(-2.0021232352232099, 5.6949877497540609)	(3.7696729492713601, 8.348446902712805)	(2.3286183198462531, -7.0859879969321948)	(-7.4273292524425196, -3.8966482870487287)	1.0	slash	0.9121
10	M	A	N	B					B	4	3	shapes	B	3	True	141	(-7.6386715023876786, 2.2666312038241525)	(1.3051618839642334, 0.66939613745510407)	(0.044329094468846364, -5.6298298554977952)	(-5.9889061058099351, -5.1964989902076066)	1.0	z	1.61023
11	M	A	M	N	B	A	B	N	N	8	1	shapes	A	3	False	141	(-5.3230907520258341, -5.0669096734051955)	(-3.7530093502836444, 5.0710145177909087)	(6.4792453317183671, 1.1941413126070408)	(3.472374676246444, -8.5011200910112823)	1.0	z	0.595866
12	N	B	B	A	M	M	A	N	A	8	0	shapes	N	3	False	141	(0.20851467261228152, -0.54557265036092595)	(8.5567609460547658, -1.4678759163914155)	(-0.18907444615437718, 6.1103610528195311)	(-8.1261896044523123, 2.6791770242142174)	1.0	slash	0.929167
13	N	A	B	B					N	4	0	shapes	N	3	True	141	(-6.6388540281080104, -4.1331080489142877)	(3.7428537718795898, -6.74185361353591)	(7.4808670820880785, 7.0551155651560933)	(-3.8046751440577227, 5.2407221730389697)	1.0	z	0.672789
14	N	B	M	B	A	N	A	M	N	8	1	shapes	B	3	False	141	(3.4188485543394247, 6.1114430812840457)	(1.9672654182739748, -6.9014945619368895)	(-2.0268435417455724, 2.2815410983849045)	(-1.7685475812631193, 8.2113884850393326)	1.0	slash	1.27108
15	M	A	N	B					B	4	3	shapes	B	3	True	141	(-2.8252896322075873, 2.9688902295890962)	(7.4085469023293697, -2.9569271191435886)	(-5.2393636254230982, -0.25727251976154442)	(7.8156674285364858, 2.4585263173332486)	1.0	z	0.842694
16	N	B	A	M					M	4	1	shapes	B	3	False	141	(-0.65983148209805975, 3.3228143166257116)	(3.9463427684384893, -7.6755490897060774)	(7.6401167528310872, 5.9222021583993971)	(-3.118873573446324, -6.4488313438674982)	1.0	slash	0.858216
17	M	A	M	N					A	4	1	shapes	A	3	True	141	(-7.816238176877552, -7.9434765668530121)	(-1.7860687156300772, 7.2842949631532079)	(4.0710244365313439, 3.6007051228587486)	(2.7149591787018412, -4.9184590346405708)	1.0	z	0.76788
18	N	B	N	A	M	M	B	A	B	8	6	shapes	B	3	True	141	(-8.0424593010863976, -3.5284358854663802)	(-8.0451303978709419, 1.4165097796715678)	(1.6845274268120214, -6.1456253259526159)	(3.7670596061482033, 2.6056932383240312)	1.0	z	1.07346
19	M	A	B	A	M	N	N	B	N	8	4	shapes	M	3	False	141	(7.9582759341476326, 3.7138545759200952)	(2.7559655029156129, 7.1347628057774894)	(6.0865487492586627, -7.8299833813094271)	(-6.417615613667996, 7.0457760636504645)	1.0	z	0.950315
20	M	B	A	A	B	M	N	N	N	8	7	shapes	N	3	True	141	(0.10718489949955234, -4.4113936747851863)	(-1.2674388008125561, 5.7159970593020795)	(-4.0147625297037433, -1.3922267161401969)	(-6.2147464508836645, -5.6576571867874996)	1.0	slash	0.676151
21	M	A	N	A					A	4	3	shapes	A	3	True	141	(-1.7482453631201329, -2.7741368771572947)	(0.28965488072291556, -6.5475308507921133)	(-5.515789228426776, 1.4703596643454304)	(8.1773937482629542, 8.6548470464135647)	1.0	slash	0.710004
22	M	B	B	A					M	4	2	shapes	B	3	False	141	(2.5693983523735717, -5.7979145826934806)	(-1.2884250488187519, 5.7396334527186657)	(8.278236985960806, 1.3998651388477246)	(-5.014370954058208, -5.0749338792115584)	1.0	slash	0.896245
23	N	B	B	N	M	A	M	A	A	8	5	shapes	A	3	True	141	(3.2527676371111838, -1.1467456073975812)	(0.60114542558669548, 3.3086569448120482)	(8.1755960003028036, 4.4869792280749898)	(-5.3165660199029485, 1.3675514975727658)	1.0	z	1.32545
24	N	A	N	M	B	A	B	M	M	8	7	shapes	M	3	True	141	(7.7991611962213803, -5.8738536379171915)	(3.7788368227893692, 1.5435353482065981)	(2.4630112669473316, 5.5349701454512044)	(-2.1919022090805012, 0.032824997246972742)	1.0	z	0.927663
25	N	B	M	A					N	4	0	shapes	N	3	True	141	(-1.0596392205143141, 3.0569029597975348)	(6.8294684738594658, -0.7399125873220207)	(-8.3039607707199519, -4.968624393949888)	(6.5123327200783567, 3.2571359879943351)	1.0	z	0.855127
26	N	B	N	B	M	M	A	A	A	8	5	shapes	M	3	False	141	(-3.9905453181526092, 3.9076350166069904)	(-8.2864292024741637, 3.1863662508415125)	(3.0612748540336145, 0.41765010631335642)	(5.8619512370096789, -7.5142538522063358)	1.0	z	1.39816
27	M	B	M	N	A	A	B	N	A	8	6	shapes	B	3	False	141	(8.064593709699718, -0.285881931392721)	(-7.8590180891252901, 3.1217867226147291)	(3.2585316707621725, -3.1847391472943833)	(-0.8103431823438596, -3.8421383478589881)	1.0	z	1.5376
28	M	B	A	N	M	B	N	A	M	8	4	shapes	M	3	True	141	(6.9075496866174131, -0.14004099504659173)	(-6.314980775438201, -4.057713940557373)	(-1.7322595548642141, 0.90449331906195596)	(0.5316037781791163, 7.6813293924133674)	1.0	slash	0.848141
29	M	A	N	M					N	4	3	shapes	M	3	False	141	(4.6033520732784456, 3.2615817310871069)	(-7.6596291479487482, -1.1132590085651284)	(6.7239672824119072, -5.9462776848980869)	(-7.229790169112297, 3.1680522155735904)	1.0	z	0.660752
30	M	B	B	M	N	N	A	A	N	8	0	shapes	M	3	False	141	(-5.4049679432901669, -5.2668663635422854)	(-8.1091655789502468, 7.486589590876207)	(-2.4774054989986176, -1.3292175389550813)	(3.3800473461864176, 7.7183260991188867)	1.0	z	0.871253
31	N	A	N	M	B	B	M	A	B	8	4	shapes	B	3	True	141	(-0.21411253984984135, 6.5724317579945453)	(7.2024825504223653, -3.5457776643541212)	(-7.6610139304393208, -2.4064874118645863)	(2.7527292437468152, 1.8968234303067035)	1.0	slash	0.694515
32	M	B	A	M					M	4	0	shapes	M	3	True	141	(-7.2795137640211012, -2.9070315038700159)	(2.4100116284032023, -3.7621003516771454)	(-5.8031720753865343, 5.5978382205528359)	(0.39199682506187017, 7.3359851997669985)	1.0	z	0.726564
1	N	A	M	A	M	B	N	B	N	8	6	shapes	N	4	True	141	(-6.9569844279931434, 0.52577542440007541)	(-2.814852025096247, 3.9005525415335143)	(7.5154033149135948, 2.8493505544729469)	(-7.9824511198969894, -7.9924068293593926)	1.0	slash	0.772125
2	N	B	B	M	N	A	A	M	B	8	4	shapes	N	4	False	141	(-6.093741289870497, -8.3746182251971657)	(6.8785543685788095, -7.5059093108407087)	(-1.5591079487757691, 1.9703472009342189)	(1.1724838217362663, -3.6596724116902779)	1.0	z	0.76489
3	M	A	B	M					M	4	0	shapes	M	4	True	141	(7.5568937435811847, 5.4567638454775835)	(-4.8499173788497316, -6.2794219853691065)	(6.9247092262234204, -2.0871257879464711)	(-5.6997915152890464, 8.1387726389895256)	1.0	z	0.933453
4	N	B	A	B					A	4	0	shapes	N	4	False	141	(-7.2845633372877838, 3.5345515891733399)	(-1.8921792664240007, -3.4570527045472987)	(0.48164747236958405, 1.8523178003664142)	(8.1259490551947451, -5.0218256525939289)	1.0	slash	0.907344
5	N	A	B	N	M	M	B	A	A	8	5	shapes	M	4	False	141	(-7.5522630301232603, -5.8394432851135392)	(-3.0254004259149685, 2.3599960762670751)	(3.5915173798402833, 5.972830306702706)	(5.7891034204986767, -7.4841397765268658)	1.0	slash	1.01824
6	M	A	M	N					N	4	2	shapes	M	4	False	141	(-6.8098121709538519, -2.0825574139063159)	(-7.5547348355489969, 2.3496917087769926)	(4.9824308632482399, -0.16046278043737594)	(2.5349948239383, 8.2077677795097301)	1.0	z	0.632543
7	M	B	M	A					N	4	0	shapes	M	4	False	141	(4.5447427059839836, 3.9864018668416943)	(-8.7031172780805264, 5.325350539445413)	(5.6730058760428186, -5.7602918885991663)	(-2.6614105405491504, -4.759433861434017)	1.0	z	0.64364
8	N	B	A	N	A	B	M	M	B	8	2	shapes	A	4	False	141	(1.4086081601854676, 6.8885932209774037)	(-5.3050540466324785, 7.9487943471221065)	(1.0620846072907071, -4.0826254329891007)	(-8.7463861500396849, 1.6728687152181312)	1.0	slash	0.709254
9	N	A	M	A	M	B	B	N	M	8	4	shapes	M	4	True	141	(5.7189214413898579, -7.7021310863004864)	(0.26775507368840934, 7.7959479937651608)	(1.1201812717721804, -8.4756807541043298)	(-7.3503946279335137, -2.9332951940363836)	1.0	z	0.642728
10	M	B	M	B					A	4	1	shapes	B	4	False	141	(6.5443596786260976, 5.8379195295055766)	(6.6403453244366819, -7.7344032733833012)	(-8.1315326664464234, 7.2717532033849714)	(-3.1306455978713261, -0.62011791621510071)	1.0	slash	0.333067
11	N	A	M	B	A	N	M	B	N	8	0	shapes	N	4	True	141	(5.4448029598889534, -7.353091888679705)	(1.7545879889557394, 6.5252810074083314)	(-3.1555536371954807, 5.5444019949646783)	(-0.17957503330169722, -7.3054249893229262)	1.0	slash	0.900746
12	M	A	A	B					B	4	3	shapes	B	4	True	141	(6.9364512974699988, 8.7217095982576396)	(-6.9266468046157703, 3.21804174490976)	(-8.273707468362451, -7.0931293731078302)	(0.23750403010514987, -2.8428308553866533)	1.0	slash	1.37785
13	N	B	N	A	M	B	A	M	N	8	6	shapes	A	4	False	141	(-1.4908607301042069, -5.0375085831918192)	(-4.477427588332926, 7.9072872245248718)	(5.7839411851217832, 6.9870416571112504)	(0.31096479241553965, 0.10227505609647025)	1.0	slash	0.795222
14	M	A	N	N					N	4	3	shapes	N	4	True	141	(0.22778448080109648, 1.107801255239961)	(-4.0426874015473473, 7.531745719209713)	(-7.3558909418714844, -1.0257629688546945)	(4.2382827695089187, -5.6479475734478042)	1.0	z	0.535114
15	M	A	B	A					N	4	0	shapes	M	4	False	141	(5.4615035974002968, 0.58542053321211718)	(2.15941848156824, -6.9298308897110319)	(-8.0403369685669226, -7.9187941709485488)	(-3.4533669363739765, 3.8838146136144545)	1.0	z	0.68507
16	N	B	A	A					A	4	3	shapes	A	4	True	141	(-3.2024092705939182, 7.6871182834931595)	(3.9586240015237273, -2.6222245883111874)	(0.098804666307394484, 0.22384299741521474)	(-6.6195296983991305, -8.5663623782658753)	1.0	z	0.84645
17	M	B	N	N	A	B	A	M	N	8	0	shapes	M	4	False	141	(6.0838772030696795, 0.15016992748678959)	(-1.0800609723916699, 0.84588124754146143)	(-6.7566232013132899, 4.1530493328953693)	(2.9967670319235076, 5.8233713817466874)	1.0	slash	0.872059
18	M	B	M	N	N	B	A	A	B	8	6	shapes	A	4	False	141	(-5.7696701605659788, -0.94343609187673483)	(-2.6716675542846486, 8.6805407394574985)	(-7.1111902601423269, -4.7431688531665266)	(5.8583706118469863, 3.8529002138977173)	1.0	slash	0.813859
19	M	A	N	M					M	4	3	shapes	M	4	True	141	(3.8083261065928138, -6.892126211621509)	(-1.632615945370854, 6.6131750895525201)	(-4.0200418349528704, -5.877822670531657)	(8.1526991483561559, 5.2676718046362687)	1.0	z	0.657342
20	N	B	A	B					M	4	1	shapes	B	4	False	141	(-6.2967553401683354, 1.6882487222167875)	(0.73259108072073786, -2.118665089936723)	(-7.3271680579656948, -4.157033405817451)	(6.4939989366952755, 5.0611466660884172)	1.0	slash	0.757729
21	M	B	M	B	A	A	N	N	A	8	4	shapes	A	4	True	141	(-6.136477407502948, -4.0374088208918879)	(-6.915097157876156, 6.5906531013106537)	(-0.68978815202337351, 2.186380587815858)	(-2.6238119329677065, -7.0713247038974156)	1.0	slash	0.811028
22	M	B	A	A	N	B	N	M	A	8	4	shapes	N	4	False	141	(-8.2746413742869489, 2.766441580093522)	(-4.1776283713475628, 6.7278474944464932)	(0.60791418291784183, 6.957990150678274)	(3.7691776243374253, 1.935545263239602)	1.0	slash	1.04631
23	N	B	B	M					M	4	3	shapes	M	4	True	141	(0.78585040406671069, 8.2092764952409887)	(2.6691185412310823, -4.2537290935580732)	(-1.528514560701054, -6.2060157620071505)	(-6.5238249054160722, 8.3261891850648482)	1.0	z	0.6781
24	N	A	B	B					N	4	2	shapes	B	4	False	141	(-1.3054719040798863, 0.72155550312382921)	(-5.6267959871150861, -0.49627314219547003)	(5.059571298530896, -1.8513939854874835)	(7.9413490785401883, 8.2912768334390528)	1.0	slash	0.776323
25	M	A	M	A	N	N	B	B	N	8	5	shapes	N	4	True	141	(7.6810219578466707, -3.9222578296600528)	(-6.191572326955729, 1.9125732040959598)	(-0.17699403284795778, -5.8825637655041643)	(5.7759127931663699, -0.099460229896459751)	1.0	slash	0.737334
26	M	B	N	N					M	4	0	shapes	M	4	True	141	(8.2115095071358901, -5.3468058597567705)	(-1.3770145169916725, 7.058601268839551)	(-8.6081164489861557, -5.3822891946285463)	(3.9342628693757202, 3.4830587487260942)	1.0	z	0.585395
27	N	B	N	B					N	4	2	shapes	N	4	True	141	(-0.080273000435603592, 6.5286950907407117)	(3.6278778590459719, -8.0650077041641719)	(-1.6744091026113406, -7.4590887685312772)	(5.1857113147475573, 7.4517086683991813)	1.0	z	0.454597
28	N	A	N	B	M	A	M	B	M	8	4	shapes	M	4	True	141	(0.45115074428800916, -6.7617390837404088)	(-6.2549046132291961, 3.7349076236249807)	(4.6983909101150303, -3.0998363344425863)	(-4.4537848779534688, -7.1300031608239616)	1.0	z	0.688984
29	N	A	N	A	B	M	B	M	B	8	4	shapes	B	4	True	141	(6.6557412407116505, -2.1537309945843015)	(5.6572519387407549, 5.6784041702988848)	(-6.2977976598729359, 2.8727303444806296)	(-0.70516217613205789, 3.0112417642029001)	1.0	slash	0.898568
30	M	B	B	A					N	4	0	shapes	M	4	False	141	(3.8575508460330106, 0.77285186500538039)	(0.93538933875065489, -4.7705515605177293)	(-1.6693187075569949, 0.94410677645730345)	(-8.3555287477671154, -6.1373804024825453)	1.0	z	0.623994
31	M	B	B	M	N	N	A	A	N	8	3	shapes	M	4	False	141	(-4.7700589200109853, -6.4823662784133838)	(6.3539252705428879, 2.5286680270318449)	(8.5168985751160946, 5.9232470212565005)	(-0.85436180359293168, 7.5438343815130438)	1.0	z	0.911484
32	M	A	M	B	N	A	N	B	B	8	3	shapes	B	4	True	141	(3.0817742441315339, 6.3355620393551249)	(-0.87147288259548361, -4.1520375561731928)	(-3.4131926173317293, 3.4787093063912042)	(-7.9584945813329, 5.5963055209695014)	1.0	z	0.453014
1	N	B	A	A	M	N	M	B	B	8	3	shapes	A	5	False	141	(7.992746845532217, -3.5406829107191147)	(-7.6102450300305664, -5.4846504627114694)	(2.5365155471227219, 1.8949066879794643)	(-0.87754240863004807, 6.9177915930206524)	1.0	z	1.51728
2	N	A	N	B	M	B	A	M	N	8	0	shapes	N	5	True	141	(-0.64601446598958034, 0.51790480781868098)	(-6.4182364797196794, -2.9682454826327778)	(-2.4082926897228027, -3.5186567759888661)	(-1.8905326457810929, 6.620727420083222)	1.0	z	0.952041
3	M	A	B	B					N	4	0	shapes	M	5	False	141	(-2.8433906087964882, 7.1465974732965449)	(7.7803738144564427, -4.113351413024076)	(-3.8322595163913302, -0.84677890823800617)	(7.0560244188605115, 7.1095374604110955)	1.0	z	1.22049
4	N	A	N	A					A	4	3	shapes	A	5	True	141	(-1.603128539256363, -5.0765046049275409)	(-6.7405688194291278, 4.2829665421154743)	(1.9923879682341319, 0.68244864172958941)	(6.1294350597537708, -5.7537069971542278)	1.0	slash	0.497437
5	N	B	A	B					N	4	1	shapes	B	5	False	141	(-6.7971991059497121, -7.9547234695526443)	(-2.1124570006615366, 7.9121234660804731)	(6.8086274625987677, -6.5166791520885212)	(3.4702146390518447, 1.0041172803270193)	1.0	slash	0.759825
6	N	B	M	B	A	A	N	M	A	8	4	shapes	A	5	True	141	(-5.1273578955850105, -5.9269454388595104)	(-1.400003171776909, 1.7825731529808948)	(-6.7464732657590734, 0.68441860152234213)	(2.973872165183284, 7.2809420465372519)	1.0	slash	0.75555
7	M	B	A	B	M	A	N	N	B	8	2	shapes	A	5	False	141	(-2.3190177625958999, 7.8378468238117911)	(2.5624633579229865, 7.587889241734743)	(8.7276882807052267, 1.3273899140237955)	(-0.50738691982202511, -4.5051697352953166)	1.0	slash	0.806522
8	M	B	M	N	B	N	A	A	B	8	0	shapes	M	5	False	141	(-5.9176361762794283, 2.6334517496640313)	(-0.79308562136723371, 6.7528178031814399)	(-0.72868462533384459, -1.8422226415114817)	(6.4712025239343092, -3.8598457365863288)	1.0	slash	1.10214
9	M	A	B	N					B	4	2	shapes	B	5	True	141	(2.026909469165032, 6.4193686455279)	(2.4711573758416847, -1.0763214869276023)	(-4.4736705942598141, -7.0947369048634732)	(-5.4122187377051922, 4.1082299963526943)	1.0	z	0.979748
10	M	A	A	B	N	N	M	B	B	8	7	shapes	B	5	True	141	(7.4263842253780048, -7.1042871652995139)	(-3.3218065876305065, 1.5736147976278225)	(-8.4771542353077916, -6.119294035951552)	(3.7656631590858876, -4.9250534073928955)	1.0	slash	0.955503
11	N	B	B	M					N	4	0	shapes	N	5	True	141	(-8.1269190084009377, -1.4132196878763841)	(2.5057351180750036, -5.2770605766144438)	(0.02556477227394538, 3.5004442931330502)	(-4.299757019497628, 6.7392072176502928)	1.0	z	0.695625
12	N	B	N	A					N	4	3	shapes	A	5	False	141	(-6.6931347942401214, -1.4479119281161594)	(-4.4233272470973732, 4.2693061081996202)	(4.3417414879451837, -2.5357425121329129)	(3.4406267437221949, 5.2460896068876242)	1.0	slash	0.734704
13	M	B	B	A					B	4	2	shapes	B	5	True	141	(-8.2456210961208996, 0.68827427985901934)	(-1.1162858440368479, -0.99916130301463024)	(3.9612970482682339, 2.0287659800882665)	(7.505076874993275, -3.0778637061402137)	1.0	z	1.51647
14	M	B	N	N					M	4	0	shapes	M	5	True	141	(-6.4555995132365709, -7.9222037132790035)	(1.5051105899220456, -3.8208086118250968)	(5.1363829917832184, 1.2148820316078641)	(-7.8261617510691757, 0.87242222523341084)	1.0	z	1.144
15	M	A	B	A	B	N	M	N	N	8	6	shapes	M	5	False	141	(-0.65733431376435902, 6.2502111000594898)	(-4.4455571593266647, -5.8909809297520592)	(2.2359238064408711, -5.858336054618376)	(-8.2335702606097385, -3.1319486888247026)	1.0	slash	1.05562
16	N	A	A	N					N	4	2	shapes	A	5	False	141	(-3.3354927613980028, 0.49026507341026893)	(7.5486717171394666, -5.0432740603540243)	(-8.3194960644180913, -7.0690900603993567)	(4.6301630345332558, 8.1974891213581458)	1.0	slash	0.709802
17	M	B	A	N	N	M	B	A	B	8	6	shapes	B	5	True	141	(-5.5083272585385172, -2.6243721159845785)	(-7.5390241855085778, 7.2066093428066829)	(4.6155647151814172, 0.82410468836892292)	(-0.031662115940308766, 1.034633448261939)	1.0	z	1.10095
18	N	B	N	B					N	4	1	shapes	B	5	False	141	(7.9671847218104723, -4.8774313730466838)	(-4.4836499464732427, 3.6951086940710915)	(5.5381594880446592, 1.2620084258085758)	(-3.0626522100922937, -8.3946776603782336)	1.0	slash	0.787177
19	N	A	B	N	B	M	A	M	B	8	5	shapes	M	5	False	141	(1.0843835047536245, 3.3276251325617601)	(-5.5975260466551156, 6.0373817829838377)	(-8.2814820560233589, 2.9167997536016781)	(2.0467037888558579, 7.4057278077748592)	1.0	slash	0.784321
20	M	B	B	A	N	N	M	A	B	8	0	shapes	M	5	False	141	(4.3337832823193185, -3.5775909401271235)	(-0.015063191239288898, -2.9670005877355976)	(1.2946687973511253, 5.0120829421301938)	(8.2271261785596188, -5.6164666065969175)	1.0	slash	0.511927
21	N	A	B	A	B	M	N	M	A	8	3	shapes	A	5	True	141	(3.8410322577778402, -0.042782700340010749)	(-5.82449435935251, 2.7449443505888507)	(-7.6666972283707988, 7.9314063227854881)	(8.5073165952102343, 5.3798534191288958)	1.0	z	0.443395
22	N	A	N	B					M	4	1	shapes	A	5	False	141	(-5.3667709521471183, 4.3068388105076618)	(-1.8060958001559921, -8.2732047803277275)	(0.11250544299874576, 0.67850735772908166)	(4.2257712828951792, -4.1193780323348328)	1.0	slash	0.637742
23	N	B	B	N	A	A	M	M	A	8	5	shapes	A	5	True	141	(4.4248741752545975, -2.5424812409623305)	(0.98837706631293365, 5.6887181273108727)	(-2.9817835545291969, -0.39588998800931208)	(5.4798404079658933, 7.6431781573349227)	1.0	z	0.856802
24	M	B	B	A					A	4	1	shapes	B	5	False	141	(5.2134069400782437, -8.0575427339052279)	(-2.6265516154597197, -0.5300609205224962)	(-8.0638047353613498, 2.2563452183091552)	(0.47972951776044326, 3.4091985639884488)	1.0	z	0.952335
25	M	A	B	B					B	4	1	shapes	A	5	False	141	(-2.0465056552306207, -3.417824036664209)	(6.2732210294699424, 0.76429625411909186)	(-4.2613456763108095, 4.897977893192623)	(5.7640800012043076, -3.2353516098735691)	1.0	z	0.756664
26	N	B	B	N	A	M	A	M	B	8	2	shapes	B	5	True	141	(4.4619983977810662, -2.5963800415756566)	(-0.54969458037393437, -3.394297504266274)	(6.8952222581664859, 7.0834838657686667)	(2.2002774486766743, 6.0072277896910879)	1.0	slash	0.720471
27	N	A	A	B					A	4	1	shapes	A	5	True	141	(3.3627578911085152, 3.1690103104437064)	(-7.0140162766492313, -6.8891380690924997)	(-2.6767501627520449, 5.4528953160073108)	(5.6630419022012113, -5.6400435168262346)	1.0	z	0.929349
28	N	A	M	A					A	4	3	shapes	A	5	True	141	(-6.5105141295448483, -3.2237445058656515)	(3.9944381439945662, -8.7169511581675501)	(-6.6923222612963746, 5.3461191531599539)	(6.7832902391018948, 5.0960353318049822)	1.0	z	0.889111
29	M	B	A	M					A	4	2	shapes	A	5	True	141	(3.7644330835755877, -5.6181694172371541)	(5.5375237937435244, 3.500609578622047)	(-7.7004747701865774, 1.6462591267218603)	(-5.8112205830956905, -2.1699936524656689)	1.0	z	0.68881
30	M	A	M	A	B	N	B	N	B	8	5	shapes	N	5	False	141	(2.8697579291539075, -7.3908782225367462)	(0.9289115175795466, 1.8526364320562774)	(-4.713913272649064, -2.3072586719629991)	(7.368066607154649, -2.9791889782249275)	1.0	slash	0.541069
31	N	A	B	N	A	B	M	M	B	8	2	shapes	B	5	True	141	(4.7228262665201957, 4.9196874396824786)	(2.8259533282125169, -1.3169650817869263)	(-7.9303241825147595, 5.9107002398255268)	(-5.1184101211012187, -7.2062241012232171)	1.0	slash	0.676057
32	N	A	A	B	M	M	N	B	B	8	6	shapes	N	5	False	141	(4.5462620019187661, 0.17846533057481828)	(-3.7690523407888206, 7.6190086359937652)	(-8.4524897743087433, 2.1979367577076676)	(-5.7651167640426442, -1.6611558978132184)	1.0	slash	0.797761
1	M	B	M	N	B	N	A	A	A	8	5	shapes	N	6	False	141	(5.8786580479614017, 0.45030519661296786)	(2.9726817609339236, -3.1812439666472319)	(6.4746051081925664, 7.0194537252570282)	(-6.2768937399013724, 2.8793719073861865)	1.0	z	0.611324
2	N	A	A	M					B	4	1	shapes	A	6	False	141	(-4.2352686089703031, -2.7473951437991246)	(4.9859865069119245, 2.4149442840933144)	(-2.7919767007809639, 1.7675219292582938)	(5.6556155150611733, -7.8453759584422897)	1.0	z	0.675018
3	M	A	N	B	B	N	M	A	N	8	2	shapes	N	6	True	141	(-2.6067607154476811, -0.59186441125803668)	(6.9998411465656236, 3.8119030804290759)	(-2.1758675716316462, 6.3171895628861243)	(-8.3229189988768191, 2.712325168715882)	1.0	slash	0.824743
4	N	B	B	A	A	N	M	M	B	8	1	shapes	B	6	True	141	(-7.8282388961370541, 8.224954594770125)	(5.9105174460985328, -8.010780541938221)	(-5.6676329763674183, -2.824562172727406)	(2.5451441793551108, -4.8647631331316674)	1.0	z	0.73296
5	M	B	B	M	N	N	A	A	N	8	6	shapes	A	6	False	141	(0.68902049145284039, 0.5842659850050218)	(5.1863614859579972, 2.0168114907005634)	(-0.39008482033815461, -5.2419226721118353)	(5.4354960811034942, -2.6490351051375827)	1.0	slash	0.564966
6	N	B	B	N	A	M	M	A	N	8	7	shapes	A	6	False	141	(-0.6959062114351493, -6.6743448682736943)	(-6.4870265665446665, -2.9368032404642683)	(-5.6814606622083961, 7.3036586888716499)	(6.8207236255387969, -1.8653288465023943)	1.0	slash	0.687837
7	M	A	M	N					A	4	3	shapes	N	6	False	141	(-5.3436381817770631, -5.7308149811594316)	(-7.9394370064990412, 0.089255616875052013)	(1.8276019050085583, 5.7578905625221992)	(0.45937483207148766, -0.66061361530117857)	1.0	slash	0.670226
8	N	B	M	M					M	4	2	shapes	M	6	True	141	(-8.3231725550191538, 5.5266489210670269)	(-5.7374419190003234, -1.6179861556602013)	(8.7230304555388614, 0.77795325118619196)	(2.5842334301302134, -3.6508475014533825)	1.0	z	0.743482
9	M	B	N	M					M	4	2	shapes	N	6	False	141	(-8.3631481226817534, -6.7813847391279047)	(3.4806176468061292, -2.7916004082208383)	(8.1050353940876683, 4.8161573244634539)	(-6.4889061356707636, 8.6801575942239957)	1.0	z	1.07699
10	M	A	N	M					N	4	1	shapes	A	6	False	141	(-5.9897474436953626, -8.5693626096648501)	(8.63346889533031, 5.9287085475003529)	(-5.9109157066563016, 2.3599711975525519)	(2.9958225334364705, -3.80053756221497)	1.0	slash	0.800134
11	M	A	N	N					B	4	1	shapes	A	6	False	141	(4.0187284358028172, 3.3133775436749495)	(-5.3552775371587913, 7.48924432662103)	(-7.0549231605231268, -3.4792236695220744)	(6.9892935657995547, -4.8145826246222025)	1.0	z	0.850103
12	M	A	N	A					A	4	3	shapes	A	6	True	141	(-6.1293299997293857, 6.7465178877898957)	(8.3038173180644499, -1.850539775360291)	(-2.7650079007456831, -3.9257317629243742)	(7.035553383033589, 2.5884667443223321)	1.0	z	0.632172
13	N	A	N	B					N	4	0	shapes	N	6	True	141	(5.1163324856474901, -7.1450301481930065)	(-0.47576571169609672, 3.375054669199347)	(-6.2528593366665923, -0.91733873319159986)	(4.2719489991397364, 0.5062299010524427)	1.0	z	0.675802
14	M	A	A	M	N	N	B	B	B	8	6	shapes	B	6	True	141	(5.6401162608756081, -8.3226716515786432)	(8.3743540819359659, -2.5995800347646618)	(7.7301616129384954, 5.639636933160519)	(-1.3110398722286352, 5.9428176829856145)	1.0	z	0.624909
15	M	A	N	B					A	4	1	shapes	A	6	True	141	(-2.2160798889352753, 1.9630934218280256)	(-8.463280857861232, -0.55719257654200938)	(6.8125851634358252, -1.2283964957335689)	(3.7164720768741653, 4.8183372206439525)	1.0	z	0.438767
16	M	A	M	A					A	4	3	shapes	A	6	True	141	(-3.4231700529952143, -5.4002890769951826)	(6.1496141966803712, -0.71141558439978247)	(4.3708858998418609, 3.8761073863813635)	(-4.8569198699510627, 1.8681078530407191)	1.0	z	0.527037
17	M	A	M	B	N	A	B	N	N	8	6	shapes	B	6	False	141	(-1.0197896116111762, 0.47834923710457744)	(0.67425045993042154, 6.2016353897450784)	(1.7055015074660282, -4.6616120875895533)	(7.6431613805670402, 0.32192885061886933)	1.0	slash	0.560194
18	M	A	A	N					A	4	0	shapes	M	6	False	141	(1.3107092201583619, -3.036088880861409)	(-5.2633743516543925, 0.60893436867005946)	(8.0978584958792936, 5.208707288328446)	(-1.2267209520713473, -7.2187872116450738)	1.0	slash	0.561779
19	N	A	B	M					B	4	0	shapes	N	6	False	141	(3.8052510539950308, -0.5822008806788368)	(-5.0959511781515445, 8.0588435432896119)	(8.0395532509227507, 5.5232160481257626)	(-1.7351140197933299, -2.5401892005327378)	1.0	slash	0.6339
20	N	B	B	A					M	4	2	shapes	B	6	False	141	(7.5666313732336725, -7.6077611821051709)	(-2.6850204988599131, 3.1941729951508453)	(7.9460461504516431, 5.6703775914345069)	(-4.0429177357399038, -6.6973765188400014)	1.0	slash	0.477514
21	N	A	M	A	N	B	M	B	A	8	4	shapes	N	6	False	141	(5.0222781565936447, -3.184368372866782)	(5.6872346966669429, -8.4583892244920165)	(8.7238300382019531, 0.074646611371704807)	(0.32241783638004051, 0.57151586419914402)	1.0	z	0.369907
22	M	B	N	B	M	A	A	N	N	8	2	shapes	N	6	True	141	(8.3264604554722759, 2.470578745400088)	(-5.9782151761455014, -1.0904621101049878)	(4.1266034390344242, -3.1912371821094982)	(0.98328260881770646, -6.3820205672241217)	1.0	z	0.794364
23	N	B	B	N					N	4	0	shapes	N	6	True	141	(4.7214440175188539, -7.8349334087702154)	(-2.905001246569145, 3.9172591300242701)	(-0.16723500309116268, -2.1935264354667323)	(3.8811509048276598, 8.2326844778662114)	1.0	z	0.622654
24	M	A	M	N	A	N	B	B	M	8	6	shapes	B	6	False	141	(5.6518062996167924, -5.2630557905185311)	(-1.1975632567014163, -1.4710684342186351)	(7.3270274886960358, 3.183168393608879)	(0.19813426862816996, 8.4337770158387286)	1.0	slash	0.540267
25	N	A	M	M	A	B	N	B	B	8	4	shapes	A	6	False	141	(0.99766110347391468, -3.1350400308314104)	(-8.5867445094402886, -1.5666204293523291)	(3.0912332602769688, 1.7019987085637123)	(-2.8922148111524431, 4.1037504199290833)	1.0	slash	0.577982
26	N	A	A	B					B	4	3	shapes	B	6	True	141	(-2.8141179105967637, -0.26393671157658538)	(8.3016051496370444, 4.0295030918999402)	(5.0915095112717133, -3.5733915627374273)	(-0.3526610920807034, 6.017571931765243)	1.0	z	0.989154
27	N	B	B	A	M	A	N	M	B	8	1	shapes	B	6	True	141	(1.3663145707926372, 4.5910962013385781)	(1.5040999214755519, -6.0535214558005244)	(7.8299997069252925, 2.8647507713730569)	(-8.4074662697412865, -3.7638215949248295)	1.0	slash	0.826505
28	M	A	M	B	N	N	B	A	N	8	5	shapes	N	6	True	141	(8.7390208455193985, -3.6801285727377371)	(-6.5728857822923068, 7.6608951720225207)	(-7.2958058102168755, -5.0140295631919125)	(-1.1724571931554486, -4.7922207582969518)	1.0	z	0.816575
29	N	A	B	A					N	4	0	shapes	N	6	True	141	(-7.1697040161143608, 2.1194622977304522)	(4.6549029010055989, 1.6502733539802446)	(8.1865219113537115, -5.8985388925595021)	(-8.5342378253923989, -2.0375708931621039)	1.0	z	0.724792
30	N	B	B	A	A	M	N	M	M	8	5	shapes	M	6	True	141	(-5.9770757905170955, 6.8910396321309211)	(-0.31905177076792413, -0.56758237987324023)	(3.6611475898693495, -1.6267753771701825)	(4.2788029159162662, 3.7176798103144293)	1.0	slash	0.377684
31	N	A	B	A	N	B	M	M	N	8	2	shapes	B	6	False	141	(4.9485035773845851, -5.5545932929135944)	(-3.126177187787091, -1.6196110882883605)	(-4.3610281450399704, 2.5195457501468184)	(4.234633122878785, 7.5611538872544486)	1.0	z	0.851497
32	M	A	M	N	B	B	N	A	A	8	7	shapes	A	6	True	141	(2.4177166537088404, -0.36451546534348012)	(2.0983257889022315, 7.9525296544407809)	(6.185235175602573, 5.2833231930694602)	(-5.9419126547019108, 6.0910406845132439)	1.0	slash	4.66692
1	M	B	M	N					A	4	0	shapes	M	7	False	141	(7.7946154350372652, 1.3080882760677408)	(4.3394607208494698, -3.34937856920439)	(-6.4888914356091041, -8.2196897695867772)	(-0.8975536766277088, 7.0851523264664387)	1.0	slash	1.08233
2	M	B	M	A					B	4	1	shapes	B	7	True	141	(6.5964298086866844, -6.5213527784040544)	(3.1867250040013886, 5.7302465477318307)	(-6.9258130395542068, -4.075255970281491)	(-0.95702550298275746, 1.0581089903912044)	1.0	slash	1.04465
3	M	B	B	N					M	4	0	shapes	M	7	True	141	(-2.1307898412513042, 1.6974745499792263)	(5.7726660388350357, -1.4417339854741851)	(3.2628162687876969, 7.8452137829568649)	(-0.82614724806725448, -4.9017298553224737)	1.0	z	0.757591
4	N	A	A	B					M	4	1	shapes	A	7	False	141	(-3.9691950387234654, 5.0056170825294224)	(4.1105473035384357, 3.0442568493586002)	(2.2795461766340477, -1.1050994819386126)	(-5.9765663984844881, -5.0308960283261097)	1.0	slash	0.623297
5	M	A	B	M					B	4	2	shapes	B	7	True	141	(5.8396602853982369, -7.5045157155292346)	(5.7901308590735585, 4.3226912147416261)	(-6.3851826395035935, -0.5668927268213082)	(-2.5264887892764625, 5.7380195977874635)	1.0	z	0.677559
6	M	A	A	N					A	4	2	shapes	A	7	True	141	(5.953238721518245, -3.2223648453873253)	(0.091824659145521181, 7.3014913066753415)	(-1.7741664445818053, -0.1036190364206675)	(-7.0835005574760901, 1.7989131387190529)	1.0	z	0.784654
7	M	A	M	B					B	4	0	shapes	M	7	False	141	(1.3459742698047776, -4.0707722855774557)	(-2.7073349053282376, 4.3338350557039718)	(-3.884902925706319, -4.8956320829633597)	(4.8515745832124235, 8.6745560282455223)	1.0	slash	0.694925
8	M	A	A	M					B	4	0	shapes	M	7	False	141	(-0.89117702646237884, -7.3724695264481577)	(8.3263659947571647, -6.5357256195357625)	(-5.2778920392533513, 7.4102244973610567)	(4.1312698563108423, 5.7650443332117902)	1.0	slash	0.830453
9	N	B	A	B	N	A	M	M	B	8	3	shapes	B	7	True	141	(7.3877621902055814, 4.6818089942250154)	(-8.3089268779004257, 1.0386335637042183)	(2.4128586956635178, -5.825471762117731)	(-4.4628126339539627, -1.0407754185059925)	1.0	z	0.685668
10	N	B	M	B	A	A	M	N	M	8	0	shapes	N	7	False	141	(-3.9571441050459191, 6.9832549613683117)	(-4.542878014043632, -3.8414215596415753)	(4.520207750129849, 8.201315635168708)	(-1.568276709112105, 0.36717136443861342)	1.0	slash	0.863179
11	M	A	M	B					M	4	0	shapes	M	7	True	141	(6.3901260631402401, 0.30365625650362915)	(-7.6452429393497727, 7.5437217422701366)	(-4.9098011185915773, -3.8674127230664723)	(6.211770283343224, -8.2901721720114363)	1.0	z	0.619406
12	M	B	M	N					B	4	2	shapes	M	7	False	141	(-6.0766050627606099, 6.4441880874257382)	(5.2175546162873907, -0.91005543429255109)	(8.0377123072554966, 6.0070490104471954)	(-1.2521036021104059, -2.608795566211926)	1.0	slash	0.688512
13	M	A	M	B	B	A	N	N	B	8	6	shapes	N	7	False	141	(-0.56952498520983497, 8.7166971885217812)	(4.8948144073771456, 6.4970602738934495)	(8.3386392892183494, -8.3253546657141655)	(6.6789865969941378, -1.7463339131645368)	1.0	z	0.548599
14	M	A	B	M	A	B	N	N	N	8	1	shapes	A	7	False	141	(-6.0804585815557006, 5.7911870911142316)	(3.0242871298439002, 3.9371314142302474)	(-2.3646842637000161, -0.19852794898363335)	(-7.0083941224447663, 0.60751469059750463)	1.0	slash	0.721733
15	M	A	M	B	N	A	N	B	A	8	5	shapes	A	7	True	141	(5.5378154949294167, 7.8033232849088243)	(-3.7255960058223749, 7.1325301385304325)	(3.3628211282204479, -6.0720374652253648)	(-5.1004735542456778, -4.5131832500644542)	1.0	slash	0.493716
16	M	B	M	B	A	N	A	N	N	8	3	shapes	B	7	False	141	(-0.50140792683686719, 3.5201239743160198)	(-6.4490083099344266, 2.2865780948405998)	(-5.0305646509525301, -7.0123503919478702)	(5.1802390324145886, 3.7242871359241061)	1.0	slash	0.715089
17	M	B	B	N	N	A	A	M	N	8	4	shapes	N	7	True	141	(-5.2720174045840116, 2.4998981906476505)	(6.0708890068581152, 0.8095382717565176)	(-0.75690686195052503, 3.4346466163734046)	(3.7808170970658548, 7.7170049380496835)	1.0	slash	1.04698
18	M	A	B	B					N	4	2	shapes	B	7	False	141	(8.0060585759090515, 3.8862805963228908)	(-7.5663997131713385, 7.9715500438794784)	(0.93468775892163158, -2.429996145751053)	(-3.0911912440725766, -6.3834156176338652)	1.0	slash	0.572593
19	N	B	A	A	B	M	N	M	A	8	6	shapes	N	7	False	141	(1.0419447695717672, -1.0461439355317159)	(-4.8052944014938577, 4.3071934341143141)	(4.9841490038847862, 0.418144108437426)	(3.6483115930301135, 7.7641111712617992)	1.0	slash	0.740764
20	N	A	A	B	N	B	M	M	M	8	2	shapes	A	7	False	141	(-3.6242986371719894, 0.67507701119342833)	(1.7355439480816042, -1.637646681678115)	(-3.3486322012359899, -5.893401381615937)	(1.6732523561901473, -8.6692462157905066)	1.0	slash	1.18572
21	M	B	A	B	N	N	A	M	B	8	1	shapes	B	7	True	141	(-6.2723110467867125, -8.596605765177376)	(-6.1655467378890538, -0.98867551079220828)	(3.967333762345767, -4.3342538234327916)	(-1.6699117998056137, 3.0320786408049738)	1.0	slash	0.727503
22	M	B	N	M	A	B	N	A	B	8	1	shapes	B	7	True	141	(-7.7059017546528015, -7.4131421490115876)	(-6.9027050534493508, 4.1030482391652949)	(7.8657717331127088, 5.4225684518757049)	(4.5002305555802593, -7.7001921985806767)	1.0	z	0.879001
23	M	B	A	A					M	4	0	shapes	M	7	True	141	(5.1894635493722223, 6.3317647599138844)	(-6.7487748199915956, -0.95068705382707019)	(0.95333196586266133, -7.9630121336428568)	(-3.388008886939601, 3.8586439789694307)	1.0	z	0.680845
24	M	B	N	B					N	4	3	shapes	B	7	False	141	(2.2053259446451321, -5.5727564759704888)	(-5.5669974937793594, -7.392830512905892)	(5.739186647268081, 4.2591727139705391)	(-2.5250854826640339, 2.2838277284466706)	1.0	slash	0.496633
25	M	A	M	N					N	4	3	shapes	N	7	True	141	(6.8560977582687759, -8.3097825745150171)	(-5.9810237549648679, 7.068075045081148)	(3.3509672276284181, 1.3084195945029702)	(-7.1816454872907984, -4.7039781095598947)	1.0	z	0.464081
26	M	A	B	A	B	M	N	N	N	8	1	shapes	A	7	False	141	(-4.3655560164982381, -2.0290482977363888)	(-8.5117329218319036, -6.912550981389729)	(-8.0399374898752605, 6.3391190293928883)	(-3.8625544776745713, 2.9236457808340468)	1.0	slash	0.750314
27	M	B	N	N					B	4	3	shapes	N	7	False	141	(3.2822259438798955, 3.5813984677057249)	(-7.2294372247438492, -8.228962770820873)	(-1.6162710701733545, 8.2285976188150833)	(0.97542842122129336, -7.1532898488358434)	1.0	slash	0.857922
28	N	A	A	M					N	4	0	shapes	N	7	True	141	(2.7417750784123989, 1.1037841856165116)	(5.6598207156345879, -3.747710471370473)	(-6.9203961694306901, -2.9147275575631904)	(-5.2634096696050854, 5.4191764263368185)	1.0	slash	0.887098
29	N	B	M	A	B	M	N	A	B	8	4	shapes	B	7	True	141	(-3.2275537962267578, -1.7745180379405374)	(-8.1093095464509108, -7.100358358918319)	(5.351487492882617, 5.7462287743257328)	(-5.218221332586876, 3.3033047655463665)	1.0	z	0.728731
30	N	B	N	A	B	M	A	M	B	8	7	shapes	M	7	False	141	(-3.0693360471816504, -2.0852795447581363)	(-8.0721484430416837, 0.84544198482951494)	(-7.9075271166437142, -8.3256716546570804)	(-4.2542725711792189, 7.8404159871276953)	1.0	slash	0.834504
31	N	A	M	N	A	B	M	B	M	8	2	shapes	M	7	True	141	(4.5713784189729534, 0.12757880302443958)	(-5.9850821841900945, -4.3455535892140942)	(8.5369941416411734, -5.7417891567815262)	(-7.5976115806619777, 6.305354464264834)	1.0	z	0.504306
32	N	B	M	N	B	M	A	A	A	8	7	shapes	A	7	True	141	(7.7138865806408141, 0.28674143382147754)	(3.1361899747131137, 3.0171079866787132)	(-1.0362110487945531, 2.0939537787599427)	(-4.0271764548097577, -5.9192502957035273)	1.0	slash	0.59586
1	N	A	N	B					N	4	2	shapes	N	8	True	141	(-1.4305565775338573, -5.1752574506203697)	(1.4066456795596878, 0.44941885212192645)	(-5.6629474867805492, 7.6673703400748785)	(3.86237496825904, -7.273321815224822)	1.0	z	0.509264
2	M	A	N	B	B	A	M	N	M	8	1	shapes	A	8	False	141	(3.9751699014672912, 6.6446134894017757)	(-6.847787727586681, 8.0445866740822609)	(6.9680889933111168, -1.7462322464877253)	(-7.1267431690084413, -3.7933398566622092)	1.0	z	0.794936
3	M	B	M	A					A	4	2	shapes	M	8	False	141	(3.3622881521071442, -4.8134307665162055)	(-7.480679954495109, 1.7679361939585938)	(1.1136156611268415, 8.6421305388897345)	(-3.5393856983679282, -8.0550208618811183)	1.0	slash	0.475178
4	N	B	M	A					M	4	2	shapes	M	8	True	141	(-8.1016261830140621, 2.402410533315118)	(0.3145787914998337, -5.9221660850796871)	(5.4302596991708239, 0.80997278613657642)	(-6.5972856699015754, -6.0471136459284853)	1.0	z	0.726246
5	N	A	N	M	A	M	B	B	A	8	3	shapes	M	8	False	141	(7.9090557148678862, -3.6801180192298171)	(0.97432473056585422, 5.0508753899452934)	(-7.891717617881973, 3.2531213920925364)	(6.2073608653185861, -8.2758947542268366)	1.0	slash	0.248663
6	N	A	A	N	M	M	B	B	A	8	2	shapes	A	8	True	141	(7.2537354816213089, -6.6287173781806148)	(-3.3817291894064017, 8.7354686830743091)	(-3.7870104782839977, 1.4910033081002858)	(6.6847237022501194, 5.2911565182247031)	1.0	z	0.562082
7	M	A	B	N	M	B	A	N	M	8	0	shapes	M	8	True	141	(-0.91877493217534223, 3.3205095485355756)	(1.6818965480821912, -6.3465758258495724)	(3.8953664761254974, 2.5577429963650129)	(7.0759734357908073, 6.7537965164925016)	1.0	z	0.235465
8	M	A	A	M	B	N	N	B	M	8	1	shapes	A	8	False	141	(0.83730146319479815, 5.1410049619007179)	(-2.0675125260522185, -2.7918333089922882)	(-6.879561936582725, -0.67921457317666167)	(0.80707356324206714, -5.620248434771943)	1.0	z	0.853606
9	N	A	A	B					B	4	3	shapes	B	8	True	141	(-8.400873385961221, 6.9410572286117205)	(6.5073009386205314, -1.8682241160665161)	(-0.28892892348787491, -8.6186607902125338)	(7.7086296190232559, 7.2876315155273268)	1.0	z	0.488305
10	N	A	A	N					M	4	2	shapes	A	8	False	141	(7.2246744226436288, 1.2200834781232412)	(-6.1866930042681867, 7.89145874395345)	(8.0960124993043792, -3.884186945555034)	(-2.4680385062124444, -8.7415204319848172)	1.0	slash	0.664399
11	N	B	B	M					N	4	0	shapes	N	8	True	141	(-7.2139155805623494, -4.9582459072202187)	(-3.4024693280664513, 8.11160420284682)	(5.1819137892830458, -3.4135901217461555)	(3.1396361504105119, 4.4584228986003485)	1.0	z	0.540758
12	M	A	B	M	B	A	N	N	N	8	0	shapes	M	8	False	141	(-5.8778240709201537, -7.8212459949898419)	(-7.7554001097372973, 3.2595915716186408)	(5.6001224307250581, 6.7243890801492672)	(5.3407679347251857, -4.4091891100179366)	1.0	z	0.389767
13	N	B	N	B					A	4	0	shapes	N	8	False	141	(-8.3656752863261641, -6.0919174967639362)	(-6.4452349620110994, 2.9247622914391798)	(0.92408274238648858, -2.0298126490169066)	(2.6974704264936484, 4.4133183615538147)	1.0	slash	0.457551
14	N	A	M	A					A	4	1	shapes	A	8	True	141	(1.8659404083194033, -1.7277788447552371)	(-3.9134668084906732, -3.8990521980605815)	(4.9239478955179639, 6.5449135266651641)	(-5.356726230764842, 0.4025487246164392)	1.0	z	0.727673
15	M	A	M	N	B	B	A	N	A	8	2	shapes	M	8	False	141	(-0.95731710686774907, -4.2464368177903129)	(4.5201924820918915, 4.7925716561100487)	(6.698195033189176, -2.4605547118099942)	(-4.84655523676944, 8.5978313095516974)	1.0	slash	0.584706
16	N	A	N	M	B	M	A	B	N	8	2	shapes	N	8	True	141	(-6.9940914208564049, -6.1030591311647102)	(-8.5952788865100569, -0.53002352812861453)	(2.4887646808960309, 6.1627784422033081)	(0.54593902601134126, 2.1179186636440122)	1.0	slash	0.792736
17	N	A	M	M					A	4	1	shapes	A	8	True	141	(7.1463658007183106, -6.2635733050249467)	(-7.6452529432673995, 1.2425076697861268)	(8.2563665092044154, 5.1089281703574425)	(-2.0982206530225431, -7.7767394754648391)	1.0	slash	0.771954
18	N	B	B	N					A	4	2	shapes	B	8	False	141	(6.4671253446537875, -1.2276989336247093)	(-6.1017500550829169, -7.8581974161805466)	(3.3062274072413018, 4.2292068617808862)	(-2.9206467794243069, 3.3825200832624649)	1.0	z	0.54831
19	N	B	N	B					A	4	1	shapes	B	8	False	141	(-2.240588425683157, -6.3365344510850061)	(3.4363515579055868, -7.5702461046104172)	(-0.96355298098716169, 0.66447688424790563)	(0.87484708064833328, 6.9071858149912764)	1.0	z	0.975985
20	M	B	A	B					A	4	1	shapes	B	8	False	141	(0.45476873582099664, 1.9122842202076367)	(-4.2428620453430783, 1.5293246949056076)	(-2.6206333622956128, -4.5121773808239345)	(7.4734569564609394, -3.0281512575213521)	1.0	z	0.351636
21	M	A	M	N	N	A	B	B	B	8	7	shapes	B	8	True	141	(-0.12287546663878857, -5.4259899194872272)	(-6.8062741118619563, 0.35518911603009862)	(-5.8311626456526984, -7.6215609870240399)	(0.48404253983077794, 0.4331236573087125)	1.0	z	0.662839
22	N	B	M	N	M	B	A	A	N	8	3	shapes	N	8	True	141	(-0.1571018575242622, 1.9571325492564426)	(3.9683933207892661, -8.6340005294745534)	(-8.6782269506249339, -2.5316867358579405)	(8.5009899716377646, 4.0951266960775943)	1.0	slash	1.15834
23	M	B	A	B					A	4	2	shapes	A	8	True	141	(7.8124387813446141, -6.5014781503028845)	(6.2883275181492433, 1.9012334224005194)	(-0.79202963362754009, -1.1328462948781359)	(-5.5610969533593444, 5.5208916019750554)	1.0	slash	5.87045
24	M	B	A	A	M	N	B	N	A	8	4	shapes	M	8	False	141	(-6.9521408473756043, 5.6741074370691749)	(-6.4606146923366286, -1.3284605944805197)	(-1.829791111562562, 5.7516729798430291)	(-1.6937967341994025, -7.1271561079987178)	1.0	z	0.84324
25	N	A	A	B	N	B	M	M	A	8	1	shapes	A	8	True	141	(-4.5455092902782406, -2.7935758426808963)	(-8.1217488528336794, 2.2158517764924195)	(7.9642403294240403, -0.21763042507006602)	(1.4381860183709936, -6.7080891799022062)	1.0	z	0.669026
26	N	A	M	N					N	4	2	shapes	M	8	False	141	(5.2949955146278693, 5.7881936901259952)	(-2.9383879393230332, -1.9594219326478628)	(7.494592449233636, -4.7609769289898374)	(-8.3631974009572083, 7.0621424198085787)	1.0	slash	0.601041
27	N	A	B	B					M	4	2	shapes	B	8	False	141	(7.7348825640680907, -1.3685681273798185)	(-1.5992808766531823, -4.7423605520770815)	(7.4500578345007007, 8.6279127630949866)	(-3.4739821789360352, 5.975124857772812)	1.0	slash	1.13889
28	N	B	N	M	M	B	A	A	M	8	4	shapes	M	8	True	141	(3.4976179079638925, -5.1715022147422349)	(3.7089232566723407, 1.9796740294504627)	(-8.1809488145699589, -6.8479225869398332)	(-7.007019978500554, 7.3931160112437517)	1.0	z	0.874186
29	M	A	N	N					N	4	3	shapes	N	8	True	141	(-7.658977594441871, -6.3473845210721853)	(2.3382009637982186, 1.0889046364777375)	(-3.9893199764357927, 6.5600390178833479)	(7.4068638259878128, -7.6799945815608659)	1.0	slash	0.387626
30	N	A	B	A	N	B	M	M	B	8	5	shapes	B	8	True	141	(8.0144403768066645, -1.1747882987712996)	(-6.4985787635685224, 0.88842477495596306)	(7.0081353884210333, 3.5253970865118145)	(-1.1734159491296019, 5.792843361033972)	1.0	slash	0.513392
31	N	A	B	N	A	B	M	M	A	8	5	shapes	B	8	False	141	(2.8183539830053554, -4.2227497008853936)	(7.4276945007419712, -3.8347200741448271)	(-4.3799370782857929, 4.8267753058263647)	(-0.3237414730631567, 6.6617873235499161)	1.0	slash	0.759657
32	N	A	A	B	M	N	M	B	A	8	3	shapes	B	8	False	141	(2.667905373365782, 6.7699599590342441)	(5.1943623356178357, 1.9293358636614748)	(-5.176778530491287, 4.1921686357329602)	(-4.0678980823283792, -4.5094201003640197)	1.0	z	1.07257
