TrialNumber	stim0	stim1	stim2	stim3	stim4	stim5	stim6	stim7	stim.probe	ttl.stims	corr.num	trial.type	stim.corr	block	match	Subject	stim.pos0	stim.pos1	stim.pos2	stim.pos3	ran	resp	RT
1	M	A	M	N	N	A	B	B	B	8	6	shapes	B	Practice	True	142	(7.6880441641616635, 1.8083281757479472)	(-5.5861100059107862, 3.3530890812161793)	(0.13605060856863105, 2.6802137424680446)	(7.7600616153144664, -6.9754047779693575)	1.0	z	3.39669
2	N	B	M	N					M	4	1	shapes	B	Practice	False	142	(-3.6820540828799437, -3.6783231433811858)	(-2.673687227645388, 6.0200048572749498)	(1.6765573243862093, -3.6307231337969297)	(2.4496143357973637, 2.2895382082901357)	1.0	slash	1.27198
3	N	B	A	A	N	M	M	B	B	8	0	shapes	N	Practice	False	142	(-0.97523570149753525, 3.2858761526232865)	(3.6673069318853102, -7.4259626666346206)	(-2.6687649937752038, -1.5373536082555654)	(-7.4093374320566294, -4.8099954137671332)	1.0	slash	1.18739
4	N	A	B	M					M	4	2	shapes	B	Practice	False	142	(-4.1661262934812351, -4.3139798869283297)	(-5.917638678272465, 5.413416873364179)	(1.7773290957384074, 0.96770635611636635)	(0.37025944853159842, -3.3576541941638469)	1.0	slash	1.10293
5	N	A	M	A	B	M	N	B	N	8	0	shapes	N	Practice	True	142	(-5.8289453014209602, 6.3724324144387037)	(2.3621087823616982, -6.0805803474801774)	(-7.9544087182918934, -6.9895536605690749)	(-5.1752787573029977, -3.1639099947651754)	1.0	z	1.32501
6	M	A	B	N					A	4	1	shapes	A	Practice	True	142	(6.9673640853781098, 6.492232749445872)	(-7.7716803723732877, -0.014083160743625811)	(4.8415198966679558, -1.8269176612678635)	(-0.20416988688188908, 5.6352528381650036)	1.0	z	2.38863
7	M	B	M	B					M	4	0	shapes	M	Practice	True	142	(4.6035882855528918, -5.789481015125614)	(-2.8666105371369213, -5.8051909896224858)	(7.112599823878865, 3.5569087247732618)	(-0.37642306495866151, 2.7711663243557734)	1.0	z	1.27008
8	M	B	A	N	M	A	B	N	A	8	1	shapes	B	Practice	False	142	(-3.901367367743334, -3.0606898907739346)	(-8.5615375261503246, 8.1429482354798495)	(4.9895969474953823, -8.3170579208693685)	(0.13349073818310941, -4.5610806700909681)	1.0	z	1.53186
1	N	B	N	B					B	4	1	shapes	B	0	True	142	(-5.44226811610904, -6.8700691284301065)	(3.6267589827647164, -7.6652454403821046)	(0.46952588540966289, 4.9668813855580769)	(-4.1645583129807289, 4.8681155579138071)	1.0	z	1.35204
2	N	A	N	M					M	4	0	shapes	N	0	False	142	(-5.2401868553370878, 0.62278731121819852)	(3.5669462486482111, -1.72025216579393)	(-8.3080032656943512, -3.7482242858543637)	(0.22302428231185267, 5.3421871034345241)	1.0	z	1.26072
3	M	A	A	B	N	N	B	M	N	8	4	shapes	N	0	True	142	(0.39270926325077937, -0.21679419580111237)	(-8.2385215010070549, 6.1039538366607164)	(5.3633585195439082, 7.0576706599543488)	(-0.34123656879173403, 6.9973370233043859)	1.0	slash	1.14668
4	N	A	A	M					M	4	3	shapes	M	0	True	142	(6.1908254922536869, 4.3954091902753696)	(4.1304150769548862, -4.5038044049636436)	(-0.44796318650558931, 6.5216190239755161)	(-1.1474476785531946, -5.7184848543938021)	1.0	z	1.09678
5	N	B	M	M	N	B	A	A	M	8	2	shapes	M	0	True	142	(5.8672016810405907, 2.1627967623732012)	(0.75884511517005571, -2.6975420916349124)	(-8.2131190731707733, 4.6070410858403701)	(5.9014847109225244, -3.7928048403153465)	1.0	slash	1.46377
6	N	A	A	M	N	B	M	B	B	8	5	shapes	B	0	True	142	(-0.31788011916180992, 1.6948153312809513)	(-6.9240162934805234, 0.40173487069785985)	(7.2870103103802286, 1.6319879206198493)	(-8.0177259076699627, -7.5790422640980895)	1.0	slash	1.36531
7	N	A	M	B	M	A	N	B	M	8	1	shapes	A	0	False	142	(-8.5541296537093121, 3.8173046955675431)	(6.7889170376317161, 4.4867290788335232)	(-7.6438813860686121, 8.5386382407575141)	(1.2029658217157433, 8.2148379640888045)	1.0	slash	1.07922
8	N	A	M	A	B	N	B	M	M	8	3	shapes	A	0	False	142	(1.0431104425839219, -5.9127309843354929)	(7.737995828609332, 1.4601563350754851)	(-7.200072300138423, -2.5449310392955757)	(-0.73112943158327326, 6.1936784370970432)	1.0	slash	0.805269
9	N	A	B	A	N	B	M	M	B	8	2	shapes	B	0	True	142	(-7.805880678090654, -1.9601850889483341)	(-2.7150597748914356, 0.74409835732726215)	(6.3133883160670337, 3.0729318557955168)	(-3.2076269674704569, 4.8000864051866845)	1.0	slash	1.25494
10	M	B	M	A	B	A	N	N	B	8	6	shapes	N	0	False	142	(-4.5754813518106685, -7.7235493313773826)	(4.6599294806043385, 3.6998988553056833)	(6.2278810251821728, -5.960150193017272)	(-0.988769518361579, 3.9266870022910982)	1.0	slash	0.894464
11	M	B	A	M					N	4	0	shapes	M	0	False	142	(-2.6335525780044113, -1.7708672843357611)	(5.1681024761132086, 6.0042504685685234)	(-1.9448238548041994, 7.1640508722813241)	(7.3751466541968149, -0.13446742325047545)	1.0	z	1.1822
12	N	A	B	A	M	B	M	N	B	8	5	shapes	B	0	True	142	(-2.9559491176721391, 7.7556856117026243)	(3.6456459223347526, -2.5731751515357404)	(5.8331622974306168, 6.4966396636410764)	(1.4366570721851311, 4.763782343095464)	1.0	z	1.36379
13	N	A	A	M					B	4	3	shapes	M	0	False	142	(-5.9215323945440339, 7.9149139544219018)	(-5.604985987583202, -2.6213270310557242)	(7.0656876566429503, -8.4399913242139775)	(2.7890957755951167, 1.200523997357525)	1.0	slash	0.789546
14	N	B	A	A					N	4	1	shapes	B	0	False	142	(3.8523627408069316, -8.0053282669432235)	(-4.9143996374598498, -8.6830806364448776)	(-3.593060292151355, 0.78033031390079444)	(2.936905954570987, 0.0079456735543992352)	1.0	slash	0.967068
15	N	A	B	B					N	4	2	shapes	B	0	False	142	(6.656003638681657, 2.9765370126903363)	(-6.1222863007195185, 0.65078821821179389)	(-4.2404125534699197, -6.3258164196490121)	(4.2054544126593676, -6.9296620967874674)	1.0	slash	0.640773
16	M	A	N	M					N	4	2	shapes	N	0	True	142	(0.065721636678233608, 8.6389107809111714)	(-0.99428917795630145, -1.1611031449622722)	(-7.4471714380932834, 5.7779583001251673)	(8.6808871215348269, -5.9822449708813696)	1.0	z	0.890312
17	M	A	B	A					B	4	0	shapes	M	0	False	142	(0.15086485563534247, 5.2529422626670801)	(-1.2099572514875545, -6.570885489201082)	(7.9397512291795174, -2.5273560673961626)	(-6.557227823957076, 0.14320053746271455)	1.0	slash	1.20813
18	M	B	B	N	M	A	A	N	B	8	1	shapes	B	0	True	142	(-2.2414541223437867, -8.6878405651530191)	(2.2155738775143679, 7.7518643443052966)	(-0.47402052590468102, 4.5804697221107897)	(-8.3513852227388217, 2.9861617310825466)	1.0	slash	0.849489
19	N	B	N	A	A	M	B	M	A	8	5	shapes	M	0	False	142	(3.3046497191078448, 2.3311827145054416)	(5.8602991277636711, -6.8062669121671275)	(-5.9371788568677735, -1.5241995719731127)	(0.97298515202193592, -2.361690673179826)	1.0	z	2.53926
20	M	B	N	N					N	4	2	shapes	N	0	True	142	(3.0468710482190993, 0.3669398937184436)	(6.1131129320936228, -2.8903041086263936)	(-1.5468095560491459, -0.014889844340492786)	(-3.2657777232101903, 6.6617564537069835)	1.0	z	0.83294
21	N	B	N	A					N	4	0	shapes	N	0	True	142	(-1.2403289289212811, 7.5316747589908317)	(6.168085737041757, -1.0816619508645742)	(4.4370916508892435, 4.676458241562031)	(-6.7539906043677735, -4.4054230029914878)	1.0	z	1.07647
22	M	B	M	B					A	4	0	shapes	M	0	False	142	(-6.3905895472825467, -2.2165237433692306)	(0.8180986656385123, -1.311086419639766)	(-2.4616484614081457, 3.6847298848714498)	(8.496086674018688, 6.0066653753207255)	1.0	slash	0.968344
23	N	A	A	N	B	M	B	M	B	8	2	shapes	A	0	False	142	(1.9735652596545457, 1.1416321559163922)	(-5.3459671094001395, 3.292706894539938)	(6.9231713411620674, 5.1872159831812628)	(-7.2050575499860736, -0.8716108681146828)	1.0	slash	1.29185
24	M	A	B	B					M	4	1	shapes	A	0	False	142	(8.0540931444182675, -6.2169709449013766)	(-0.60171657094438302, 5.234807358603291)	(6.6983233533781892, 3.2187840437906825)	(-2.3269735498736575, -0.9375505348290547)	1.0	slash	0.779202
25	M	B	N	A	A	N	B	M	A	8	2	shapes	N	0	False	142	(-6.8641588242474771, 6.6852977008575234)	(8.0173229951897085, 1.3363144146959289)	(-2.3585820503348485, -1.0062803350812271)	(1.2798946584360174, 6.7243554550361306)	1.0	slash	1.22705
26	M	B	A	M	B	N	N	A	N	8	7	shapes	A	0	False	142	(-7.0939622668863116, -4.6012614835100401)	(6.3430361983895622, -4.3331486649664379)	(-1.4304140171170303, 7.0346578350813633)	(-4.1517062306101984, -8.2189435979464633)	1.0	slash	1.83205
27	M	A	A	B					B	4	3	shapes	B	0	True	142	(8.6741163307775118, 7.1916596086060363)	(8.6778087304424183, -6.5815840488286312)	(-7.4516255009109056, -6.8285076575357539)	(-7.4873754277119096, 4.462095897350876)	1.0	z	0.844161
28	M	B	N	A	A	N	B	M	A	8	4	shapes	A	0	True	142	(-2.5677924335260922, 6.2593282666207664)	(3.4218027303858101, -2.4442692633691303)	(0.91318986957114845, 0.75443628946291597)	(7.5336431952001952, -3.2539483372884801)	1.0	slash	1.84601
29	M	B	M	N	A	N	B	A	B	8	3	shapes	N	0	False	142	(-2.7945786791389366, -1.8478026610192009)	(1.2856180289079564, 6.5911002619107144)	(0.69099386959023334, -4.7691878653392026)	(8.5981752156605111, -7.5448969356577047)	1.0	slash	0.87094
30	N	A	N	B	M	A	M	B	B	8	3	shapes	B	0	True	142	(0.83734228525652377, -1.3915319186949286)	(1.6996350180422617, -6.5669111460677829)	(-4.2635835797894552, 5.5564778243772128)	(-5.1179989787962388, 1.3871493560771686)	1.0	z	0.860535
31	M	B	N	B					M	4	0	shapes	M	0	True	142	(5.9048778362491063, -5.9731108848540586)	(-4.8848968159007455, 7.8940152058279303)	(6.5258505544743244, 8.4190243537980223)	(-3.8254486744669052, -2.5950581224979663)	1.0	z	1.0749
32	M	A	A	N					A	4	1	shapes	A	0	True	142	(-0.33538946695113125, 1.9900445505573288)	(-7.634542225855605, -1.046506407345305)	(7.2408219408329604, 1.3005786955965473)	(4.7406508440125918, -5.5610504298891241)	1.0	z	0.694279
1	N	A	B	B					B	4	3	shapes	B	1	True	142	(4.7266117908932106, 4.1600936783039053)	(-1.412690762054468, -0.16618167105002968)	(-1.0862941537803028, 6.2479475358479117)	(4.91937185517512, -3.6767920021896705)	1.0	slash	1.16407
2	M	A	N	M					M	4	0	shapes	M	1	True	142	(-7.3667229926846201, -0.98059876451725891)	(3.0267902308507786, 1.0706165588207952)	(0.51371066806415833, -5.5422506947954417)	(-1.8298664891645897, 3.5643731483264407)	1.0	z	0.869521
3	N	A	B	B	M	N	M	A	N	8	2	shapes	B	1	False	142	(6.8324609814995121, -5.8652475704580311)	(4.436617092154961, 7.6765591566063591)	(6.705380118695663, -0.53868078563604804)	(-7.1371116269742023, 0.74835159020266317)	1.0	slash	0.953464
4	M	A	N	N					A	4	1	shapes	A	1	True	142	(-2.8173421886111152, -2.8672672159380008)	(8.2415062927787623, 3.7602426581777948)	(1.2512319373864322, -5.1739813107997872)	(-7.1055172619174582, 6.9393207968475163)	1.0	z	1.125
5	M	B	B	A	A	M	N	N	A	8	3	shapes	A	1	True	142	(3.2213004870931243, -6.264401735899396)	(0.65093185871517534, -3.0186897595570095)	(-8.6086286952037394, -2.3505293773814877)	(-1.5231402425408502, -7.4074776218147216)	1.0	z	1.43846
6	M	A	N	N					M	4	0	shapes	M	1	True	142	(4.2663546845565641, 4.2992364435678105)	(-5.8590846421812657, -7.0452591897881174)	(1.6073656798196581, -0.43797543839773034)	(-0.6827936383042772, 8.1829873421932824)	1.0	z	1.22219
7	N	B	A	N					M	4	3	shapes	N	1	False	142	(7.3583516555960387, 4.8953952311504416)	(2.5427367909766794, -1.3060627296003835)	(-5.1146289333215309, -7.7989412749829077)	(-8.1507727338664591, 0.73590733983182588)	1.0	z	1.1218
8	M	B	A	B	M	A	N	N	A	8	2	shapes	A	1	True	142	(6.7464847386604632, 7.1658775346000745)	(-4.3271978129667277, 0.42072825346780895)	(-0.049297297569529164, 7.9500769748337099)	(8.2421661664358723, 2.1637851097966081)	1.0	slash	1.31548
9	N	B	B	N	A	M	M	A	N	8	1	shapes	B	1	False	142	(8.7144726296445896, -4.5384132672535227)	(-0.79559189901928917, -5.5875982188639792)	(-4.1756563049660045, 8.7468000952014648)	(-0.62725156257367587, 3.5841365518756909)	1.0	slash	1.21648
10	N	B	M	N					N	4	0	shapes	N	1	True	142	(5.2960115691464473, -2.0578374952206264)	(-5.0134018472195709, 0.12437585894115522)	(-2.7080884466038926, -7.5034020170802647)	(1.3809077366119649, 7.9353135449538854)	1.0	z	0.920747
11	M	A	N	A					A	4	1	shapes	A	1	True	142	(1.0461562540096896, 7.5719331623096053)	(-5.4188509072558979, 2.8528493538228421)	(2.148704109808973, -6.5993225835478739)	(-8.3303165699534336, -4.6903134245863214)	1.0	z	1.05034
12	N	A	A	M	B	B	M	N	B	8	3	shapes	M	1	False	142	(1.2454694865450104, 6.1253699727127877)	(-7.449913280678083, -4.2482909288244119)	(1.817399307082205, -1.3294790581794338)	(-7.02555919655659, 6.1088579846824818)	1.0	slash	0.747285
13	N	A	B	A	M	N	B	M	B	8	4	shapes	M	1	False	142	(-8.1904122481669006, 7.1347101126123711)	(3.9220351211379114, -2.6493912751765327)	(-6.9089299325270384, -2.3558141499193841)	(1.1390702774128165, 2.4251383100159636)	1.0	slash	0.569145
14	M	A	N	B					B	4	0	shapes	M	1	False	142	(-7.8183196741922893, 5.8340604071228324)	(7.6334120220423678, -5.789481876022978)	(-4.95377882024078, -1.8478919196578714)	(5.2343769782696707, 6.5461467359244949)	1.0	slash	0.697272
15	M	B	A	A					B	4	3	shapes	A	1	False	142	(-0.084425949658093913, -5.1019867382339079)	(0.82953517584664382, 2.2667548940221867)	(4.8625072549482802, -2.5570513368501055)	(-6.9328455217568647, 8.3080209538361665)	1.0	slash	1.157
16	N	B	M	N	M	A	B	A	M	8	4	shapes	M	1	True	142	(6.1760306387620343, -1.0627786803722472)	(-8.3501779762176298, 0.83983787635042262)	(-2.1690412714137279, 4.4317995704474527)	(0.93376173160299381, -1.6922885378287358)	1.0	z	1.18661
17	M	B	M	N					A	4	0	shapes	M	1	False	142	(-6.3272827810991501, -1.4601400794811719)	(0.17924669971136886, 2.9429771847972432)	(7.5618187747170751, -6.4365820848942672)	(-8.0044931425340451, 4.442013911716872)	1.0	slash	0.638347
18	M	A	A	B	M	B	N	N	N	8	7	shapes	N	1	True	142	(8.2269030570273785, 0.39386970626290996)	(3.9316680752563649, 8.2666750205012676)	(-2.7221144477374919, -2.4944367297147263)	(3.2380642870771261, -8.5176783574999106)	1.0	z	0.882
19	N	A	N	A					M	4	0	shapes	N	1	False	142	(5.8553956032820746, 1.7472285892887154)	(-3.8831917850236488, 2.2605554250129334)	(-2.9626527982563946, -6.7260362492910133)	(2.1078795794535434, -6.3860840613799779)	1.0	slash	0.667598
20	M	B	B	A	N	M	N	A	N	8	0	shapes	M	1	False	142	(-1.9997634715794925, 2.5680886663883928)	(0.77616104980370437, -5.4564440067441531)	(-6.4402835865440498, 0.061915698652599716)	(0.92410771677442227, -0.61203892469051269)	1.0	slash	0.913263
21	N	A	A	N					N	4	3	shapes	N	1	True	142	(-5.9685904188653973, 3.5981526590590338)	(1.2499044373700112, -3.6668552731450195)	(-7.1435365768666914, -7.882449257967405)	(0.51985477016037152, 5.5939572200004282)	1.0	z	1.10896
22	N	A	N	B	M	B	M	A	M	8	6	shapes	M	1	True	142	(7.4329482070596242, 6.9550728549254028)	(-4.382617561841851, -6.5246940641075497)	(2.0072757756250539, 7.9624370550990591)	(-8.2742138028582879, 7.9635463403920106)	1.0	slash	1.46564
23	N	B	B	A	A	M	N	M	B	8	1	shapes	B	1	True	142	(-4.2394670756078128, 2.9863289460175704)	(4.1033408571649286, -2.6700953745252622)	(-7.3920050170477269, 8.16606676360961)	(-6.9017154112787011, -4.4534337133125375)	1.0	slash	1.22353
24	M	B	B	A					A	4	0	shapes	M	1	False	142	(4.4520056698651409, -2.1364722134527181)	(-0.17953965742334077, 7.5678547596753738)	(-4.2364296515970841, -2.9256271622181513)	(8.1959668835488273, 0.96779030046811876)	1.0	z	0.589607
25	M	B	B	M					M	4	0	shapes	M	1	True	142	(8.5674036601362324, -4.668753284052543)	(-2.1615107917196426, 0.27742042777533449)	(5.5326100628312194, 8.0731276992094116)	(-8.3317396115275155, -4.7547965956873153)	1.0	slash	1.46537
26	M	B	A	N	B	N	A	M	B	8	7	shapes	M	1	False	142	(8.6690586730711843, 4.9213588055934494)	(-5.1295676556825889, -5.5121301488824237)	(5.7099203753806904, -6.0383866884676571)	(-8.6145782505148745, 4.3851122504215549)	1.0	z	0.471053
27	M	A	A	M					N	4	1	shapes	A	1	False	142	(1.3273292864815236, -6.6528082692585144)	(-7.6740909047116679, 2.1654364102011634)	(-4.5265234406625918, -6.9748541472707632)	(4.9325906856949224, 5.3760699074096223)	1.0	z	2.03654
28	M	A	N	B	A	B	M	N	N	8	0	shapes	M	1	False	142	(-6.7330120448330559, 4.4026438452460255)	(-6.5228763183615541, -7.1580022370518215)	(-2.2409041702598129, -2.9849973836151982)	(1.2824807608881379, 5.9985195001786398)	1.0	slash	1.71167
29	M	B	N	M	N	B	A	A	A	8	2	shapes	N	1	False	142	(-1.9252050461453223, 7.9665664177748532)	(7.0300110353659182, 4.3510798058739812)	(1.5414102059411547, -7.9080344579348223)	(-4.1141286164070454, 3.574910156831498)	1.0	slash	0.595765
30	M	A	M	N	A	N	B	B	M	8	0	shapes	M	1	True	142	(-8.4537195133673286, 7.1884854102866562)	(6.3623354221686359, 3.6300629225295822)	(-5.0961074352041908, -0.51898363280628068)	(2.4364231450791145, -1.5217816476589885)	1.0	z	1.30278
31	N	B	A	B					M	4	2	shapes	A	1	False	142	(-5.8314866253602222, 3.6910990118359912)	(0.21813582193229131, -1.8236514514612487)	(6.7723681758174639, 1.1177114744924701)	(-3.9858916820482024, -6.8114737934470169)	1.0	slash	0.604915
32	N	A	N	A	B	M	M	B	M	8	6	shapes	M	1	True	142	(6.2876245085714917, -8.2374344666664925)	(1.2514556759649533, -8.4782733342427985)	(-5.6657042007463527, 3.1581599840523253)	(-4.426190948944579, -8.0234943705555057)	1.0	slash	2.52607
1	M	B	B	A	M	N	A	N	B	8	1	shapes	B	2	True	142	(-0.24867765973114864, -5.248324417181724)	(-5.1781737796579819, -8.4872714894488315)	(-2.3989909274263095, 3.6290611264052632)	(6.128056179818735, 2.4685600446910509)	1.0	z	1.30026
2	M	B	A	B	A	M	N	N	A	8	2	shapes	A	2	True	142	(4.6112983453670271, -4.4566214364416012)	(-2.0811270995684543, 3.7782542232215199)	(5.279965665205431, 5.5941825869558723)	(-7.8096801230077855, 0.87425458110732635)	1.0	slash	1.4117
3	M	A	N	B					N	4	0	shapes	M	2	False	142	(3.4638411092760339, -8.0365017536830639)	(8.4379437211033341, 1.3419540781848251)	(-7.1625703294754679, -6.6057907666711291)	(-2.4434647554015703, 4.3605901324033081)	1.0	slash	1.06733
4	M	B	N	A					B	4	0	shapes	M	2	False	142	(-1.5003710424586476, -6.9936512125601968)	(3.9406246629130202, 3.2536274720254177)	(5.5060855823680797, -1.2898850126475114)	(-2.3409945728732033, 5.3799057397050447)	1.0	slash	0.664999
5	M	A	N	N	M	B	A	B	M	8	1	shapes	A	2	False	142	(5.0245781827998837, -1.2082461465856857)	(-5.2073049331833676, 4.5281150896804867)	(-8.3052983822635404, -2.7641412943213002)	(4.8796394046362863, -6.971672582791264)	1.0	slash	0.870783
6	M	B	A	A					B	4	2	shapes	A	2	False	142	(3.1489856563015124, 5.4208354924937687)	(-5.5308742757664255, 3.4686471133943044)	(-7.3949733985065169, -4.8223004752741234)	(8.3688023961367541, -5.1284593191082894)	1.0	z	0.898327
7	M	B	B	M	A	A	N	N	A	8	4	shapes	A	2	True	142	(-2.7038633345627501, 6.7318863842065948)	(4.3794082213253951, 1.9641014237095984)	(-5.6838706201212705, -1.9367635317066254)	(2.8727756045560717, -4.5470521067643253)	1.0	z	0.778145
8	M	A	A	M	N	B	B	N	N	8	4	shapes	N	2	True	142	(-2.6813749651139389, 7.52477847004997)	(-4.5810666775947926, -3.9712254491816337)	(7.9736840497264119, -7.6354979833053793)	(6.9218074274084618, 3.4039385757186942)	1.0	z	1.17715
9	N	A	N	M	B	M	B	A	N	8	1	shapes	A	2	False	142	(-3.4860736179889269, -8.7444768738202452)	(-5.2239494464499643, 6.9403907525881845)	(8.714536010146837, 8.2236874436845255)	(7.2483690997107804, 1.5944021245713049)	1.0	slash	1.05738
10	N	B	A	N	B	M	A	M	N	8	4	shapes	B	2	False	142	(-3.4135737652081461, 3.0543730689130921)	(1.2571083738079505, 6.0177219910607747)	(4.2777449637447322, -4.8790757448994544)	(-2.0944761751146599, -1.0750823693540186)	1.0	slash	0.767035
11	N	A	M	B					A	4	1	shapes	A	2	True	142	(-1.2391947865906099, 5.8364651377766208)	(6.0260309266784109, -0.65107891078758229)	(-5.0774170965333365, -0.022971516468722086)	(5.9841652966150658, 6.6129120273582984)	1.0	slash	0.480698
12	N	B	N	M	B	M	A	A	B	8	4	shapes	B	2	True	142	(6.2283376052568666, -6.5569059957499345)	(-3.3207892321973276, -4.9750846478267912)	(-4.2565519837821455, 2.9781411433688909)	(-8.3525538767112764, 1.3003829225158405)	1.0	z	0.580283
13	M	A	A	B	N	N	B	M	M	8	0	shapes	M	2	True	142	(-8.0844431403204791, -7.9804619909764583)	(-5.5249648554040256, -1.9236350352960692)	(-0.40925391984070458, 4.4959289208975299)	(4.3502530369089705, 8.1524373871505738)	1.0	slash	0.755837
14	N	A	N	B					M	4	1	shapes	A	2	False	142	(1.6573978951479269, 2.3939562879875602)	(-5.7715265260704394, 3.2748975382226426)	(-0.14006294094224536, -8.7113780190118213)	(6.9065396611500809, -3.5740258743696556)	1.0	slash	0.583528
15	M	A	A	B					A	4	2	shapes	A	2	True	142	(3.6846490803727434, 6.1446135483404518)	(-5.6138910314361521, 7.8985673029089831)	(7.2896775576627206, -6.1630628464989901)	(-6.200692707659246, -3.7666316200143681)	1.0	z	0.89053
16	N	B	A	N					A	4	2	shapes	A	2	True	142	(1.8565827954235488, -2.5518042339293752)	(0.59007564669370893, 5.715472235682725)	(-7.1168790382767551, -0.83334517633453409)	(-5.8499595892671188, 6.402388502164758)	1.0	slash	1.58676
17	N	A	B	A					B	4	2	shapes	B	2	True	142	(-7.4365372156842131, -1.9656240219249232)	(8.7336430119663042, 5.4978133815459227)	(-0.77291993220938515, 3.3645136925064278)	(1.1062458339220331, -6.3372513210632917)	1.0	z	1.83997
18	M	B	N	M	N	A	A	B	B	8	3	shapes	M	2	False	142	(7.8370047314630469, 3.0569799800773403)	(-5.3176257962755837, 0.020954478831781032)	(-1.3303727690645308, -8.2943041055665283)	(-7.4828242743627964, 8.1983882246180038)	1.0	z	0.828036
19	N	A	N	B					B	4	2	shapes	N	2	False	142	(7.3284257225811267, 0.83751294563354506)	(-2.180131776165271, -6.4949536210923267)	(-4.8147385948414723, 8.0691166110635528)	(6.6247429243558589, -5.1625189171538697)	1.0	slash	1.09574
20	N	B	N	B					N	4	0	shapes	N	2	True	142	(-6.0079063063128277, -6.478863668812382)	(5.4368735878717036, -6.8853026621535856)	(-5.2878225306435542, 4.0177542357442224)	(0.83871274333191792, 5.0321522079979868)	1.0	slash	0.807406
21	M	A	B	M					A	4	1	shapes	A	2	True	142	(5.710285040036327, 6.0125507695187519)	(2.8197756358155157, -5.3514436543588282)	(-2.5523871733458208, -0.15078295624660498)	(-2.5161368177373307, 7.0410936077418125)	1.0	z	0.556833
22	N	B	B	A	M	A	M	N	A	8	4	shapes	M	2	False	142	(2.8364353039182078, 6.5556198539643376)	(6.9289425770497814, -6.3210853577650141)	(-4.5624158521321929, -0.45021310966076378)	(6.9305677393372296, -1.3107233273621901)	1.0	slash	0.72081
23	N	B	B	A	N	A	M	M	M	8	7	shapes	M	2	True	142	(-7.9577202718261821, -3.789865348532298)	(-8.0138052816552356, 7.2320444245482385)	(5.3281919795040071, -2.8980391184876408)	(-3.2188530585092554, -5.589894358838615)	1.0	slash	1.43036
24	M	A	M	B					M	4	3	shapes	B	2	False	142	(-3.2998031893136091, 0.48438286735259872)	(-3.0798592248856593, -6.8786675953172587)	(2.2170695473747202, -2.010534578216074)	(1.6903270511812547, 7.3099894127497649)	1.0	slash	2.02591
25	M	B	B	A					B	4	1	shapes	B	2	True	142	(-4.094410214377028, 0.31805222026308932)	(8.2785306637968112, 5.1002628567356236)	(-7.004707126032117, -8.3100660503296666)	(2.8623398891517287, -1.762892091627668)	1.0	z	0.639604
26	M	A	B	A	N	B	N	M	B	8	4	shapes	N	2	False	142	(-1.7785733158049615, -6.2534150751883644)	(7.8794953479324761, -2.3327951976504906)	(-7.9144629216780169, 3.9649437950086952)	(1.0234920460629748, 6.1152673635605979)	1.0	slash	1.58717
27	N	A	N	A					A	4	1	shapes	A	2	True	142	(-5.0739081521239218, 8.4658741535342799)	(-7.0610540266895399, -6.5348105885120642)	(0.94779793610269891, -2.0249360271272403)	(5.7937955816404827, 0.55126699532696755)	1.0	z	2.1368
28	N	A	N	B					B	4	2	shapes	N	2	False	142	(-5.629339007101513, -6.7940236962068488)	(-4.0536238728388954, 2.8284922213679167)	(3.0171756633663502, -4.5136026855885483)	(1.2865943269214402, 1.8255138490696368)	1.0	z	0.872208
29	M	A	A	N					A	4	3	shapes	N	2	False	142	(1.0258404084852248, 7.8031183007238489)	(1.6778727551996706, -4.8067323342439927)	(-2.9029623206458526, -1.3839796606617165)	(-7.3996002285603222, 3.1047794075474098)	1.0	slash	0.731864
30	M	A	M	B	A	N	N	B	B	8	3	shapes	B	2	True	142	(6.2620704600425103, 2.8482867728969588)	(7.4806847188103553, -4.4605588848414124)	(-7.9456913997639047, -2.7070947562629568)	(0.73344172934662311, -6.626654366174404)	1.0	slash	0.827102
31	M	A	B	N	B	A	M	N	N	8	4	shapes	B	2	False	142	(3.6631782623345366, 1.1202665576792175)	(1.4696895172850439, 5.0534987977387029)	(7.9662618307679764, -4.1227812083390551)	(-5.4653586071826457, 3.0985972759039466)	1.0	slash	0.80089
32	M	A	A	M	N	N	B	B	B	8	1	shapes	A	2	False	142	(3.6388565754836044, -8.2885263192716341)	(-8.6905485908524689, -8.3718000551085083)	(3.163735546890674, 1.8658324266509485)	(-0.74490028708060585, -5.3140003480487206)	1.0	slash	1.43618
1	M	B	A	M	B	A	N	N	B	8	4	shapes	B	3	True	142	(-4.9999063450135761, 7.4758457997137562)	(0.69319717955239746, -4.7962470578508682)	(5.2421224249793532, 2.962932374342536)	(6.8737697033315559, 8.6926015628155753)	1.0	z	0.881968
2	N	B	A	M					M	4	2	shapes	A	3	False	142	(4.2009706803336595, -4.9966414015137346)	(-8.716979597988388, 4.4959339059724766)	(-1.7509496588172082, -3.4231547666647995)	(0.14769149372213342, 4.2470357531106977)	1.0	slash	0.682215
3	M	A	N	A					N	4	2	shapes	N	3	True	142	(0.94455864974037596, 6.7914816921968288)	(-6.8145740282315321, -5.8123098924532304)	(4.350004433437908, -8.471085283195027)	(-2.9884626004908892, 2.5866011032819962)	1.0	z	1.42783
4	N	A	M	N	M	B	A	B	M	8	7	shapes	B	3	False	142	(1.1775060560242014, -4.9135934651089981)	(-6.9427733477207285, 6.8308127988503369)	(-4.020410487221648, -0.50149643946080857)	(7.1275190141382296, 5.9419079567430177)	1.0	slash	1.74552
5	N	B	M	A					A	4	2	shapes	M	3	False	142	(5.2597497236415656, -5.3579382859767914)	(-7.4087836571696517, -2.7259300409906659)	(3.1853327964662732, 5.4814139605933185)	(-4.1525025807512046, 5.4720424768041678)	1.0	slash	0.878988
6	M	A	M	B	A	B	N	N	M	8	0	shapes	M	3	True	142	(1.1824920085163928, -0.21454518990257654)	(-0.42476571173279076, 3.6147347024235277)	(-0.33862678446949701, -7.8909402819779011)	(5.2176511924253592, 5.3043301181362441)	1.0	slash	1.13867
7	M	B	B	A					B	4	2	shapes	B	3	True	142	(3.1110666699350276, 8.5336741082007386)	(-5.3434170289136897, 4.8953780398667934)	(1.6093383830682342, -1.0281038968718192)	(-3.5221151326367899, -5.3028442680765409)	1.0	z	1.77625
8	N	A	N	B	B	A	M	M	A	8	5	shapes	A	3	True	142	(5.9366854536394147, 6.6365048703740648)	(5.5865932441121888, 0.14825532466892)	(0.81818467119326854, -4.030672714900418)	(-5.0828200133694219, 1.7544286871693355)	1.0	z	1.00806
9	N	A	A	N	M	B	B	M	B	8	5	shapes	B	3	True	142	(1.546513817043861, 5.8712350148051318)	(0.82118035034389791, -3.0818335631587948)	(-8.1325405474333952, 8.7286623323280779)	(6.0711869345569749, -0.65369644665479676)	1.0	z	0.745362
10	M	A	M	A	N	N	B	B	M	8	2	shapes	M	3	True	142	(0.30786505798842256, 7.2074860799645073)	(1.9861336037425268, 0.42782550351337001)	(5.1230428266254933, -5.4101515298548275)	(-5.8501494608872395, -8.0272759568507404)	1.0	z	0.575131
11	N	A	A	B	N	B	M	M	B	8	3	shapes	B	3	True	142	(4.3645104135264976, 2.955085972902566)	(2.3328803784340675, 6.9492815690292566)	(6.3616649790585935, -3.6232708032765544)	(-4.574932037449245, 3.7298899398240302)	1.0	slash	0.694265
12	N	B	N	M	M	B	A	A	A	8	5	shapes	B	3	False	142	(-8.6361076421465466, 8.6508366099598533)	(-3.579743208178142, 5.1853753658778832)	(1.3917811625941017, 0.065344234554441272)	(7.8081744163012168, 6.279018826493969)	1.0	slash	1.54183
13	N	B	M	A					M	4	3	shapes	A	3	False	142	(-6.3669475507046007, 8.0520758031652271)	(-6.1148206650814245, -3.2696702808775493)	(7.4840522612076121, 7.4394733104046225)	(0.0096137134847591454, -0.35441365605704256)	1.0	z	1.34804
14	N	B	A	N					A	4	2	shapes	A	3	True	142	(-5.1571257680386218, 5.3386715658370321)	(7.3033352709740065, -1.0849419111700049)	(-3.5918572281894594, -7.1007138792832905)	(6.328411875081013, 6.3190450123008333)	1.0	slash	0.263749
15	M	A	M	B					M	4	2	shapes	M	3	True	142	(-7.2985527268946475, -0.46253513450330708)	(-5.1779486909128263, 4.6854120952933709)	(7.5724520899638748, -7.2651623892236206)	(4.7521826095564386, 1.5614070486009908)	1.0	slash	1.7574
16	M	B	A	N	M	N	A	B	M	8	7	shapes	B	3	False	142	(-6.3714065575648897, 6.4498771297960786)	(-0.91731271567152639, -4.4415557092034499)	(3.178365909774314, 3.2913340475971431)	(3.816951809194963, -7.2637351414583016)	1.0	z	1.18445
17	M	B	A	B	N	N	A	M	N	8	0	shapes	M	3	False	142	(7.3620736243976559, -0.57514449550839863)	(3.5801006940283671, 6.5514944081715658)	(1.421957381960258, 1.5849154421511873)	(-4.5998496108205158, 7.2955131147253169)	1.0	slash	0.934626
18	N	A	B	B					B	4	1	shapes	A	3	False	142	(6.1106951145377053, -2.794205763510762)	(3.3532972720759631, 6.9570369135284924)	(-2.7890994156977031, 6.893043367828815)	(-6.516125791096572, -3.6039074898082921)	1.0	slash	0.846614
19	N	B	B	M	N	M	A	A	N	8	5	shapes	M	3	False	142	(-5.3608252162900669, -0.56690351102865577)	(1.87417757327575, 7.4164256776623141)	(-1.4789061428393548, 1.093482277987647)	(1.7214706082721491, -3.5646315318561284)	1.0	slash	0.84004
20	M	B	N	N	M	A	A	B	B	8	5	shapes	A	3	False	142	(-3.6881970165530529, -6.0752930863430787)	(8.5992828215547767, 3.3411902306276069)	(7.3164815349185623, -8.4915048688988595)	(0.77798869550675143, -0.98117479809638564)	1.0	slash	0.656724
21	N	A	M	A	B	N	B	M	N	8	7	shapes	M	3	False	142	(6.5543108060105428, -1.7457768877398978)	(-0.59118417448322447, 2.5085415805415039)	(2.4628150588958704, -7.0394447989309601)	(-5.2809767053697669, 0.020562307142684588)	1.0	slash	0.745091
22	N	B	A	N					B	4	1	shapes	B	3	True	142	(2.9349745566586556, -4.1812725026986524)	(4.5743354392673083, 3.6517831974433275)	(-7.7007100967940492, 5.3206580521615283)	(-3.0051018044359301, -5.7884099137495078)	1.0	slash	1.04677
23	M	A	N	B	A	B	M	N	M	8	4	shapes	A	3	False	142	(4.1377987962888163, 6.9967161919798073)	(-4.154015005562675, 3.5287837499039956)	(-4.3192204932993103, -8.2569766325067562)	(0.07813136845245694, -2.0081265102307331)	1.0	slash	0.962288
24	N	A	M	A					M	4	3	shapes	A	3	False	142	(4.5812196710250905, 0.75879188306704037)	(4.9935292679668013, -6.4619431628048698)	(-8.0492425603508462, 6.098672549080657)	(-5.8422879128488585, -0.20098463101815689)	1.0	z	0.563848
25	N	B	A	A	N	B	M	M	N	8	4	shapes	N	3	True	142	(3.2715789738309002, 6.8321737045539646)	(2.3666571795087101, -0.84532535461305613)	(-8.6953362487442405, -7.0368975199554091)	(-2.2199459406888558, -1.8279251934792962)	1.0	slash	1.37357
26	M	A	A	B					N	4	1	shapes	A	3	False	142	(-4.7803399835917553, 4.4416630111321211)	(1.6951725039367531, -4.702803128027532)	(6.2912278369407026, 5.7654285015557818)	(-3.5763462570047668, -3.4181832010433491)	1.0	slash	0.603287
27	M	B	N	A					M	4	0	shapes	M	3	True	142	(5.9206129959479856, -7.3715088691692969)	(-1.7260443950168725, -1.0944004263179776)	(-4.4724561647224998, 6.9035118873464398)	(7.4810088633579177, 3.1783694198824346)	1.0	z	0.836967
28	N	A	N	A					M	4	2	shapes	N	3	False	142	(-5.8579792357036427, 4.1499610260699118)	(4.5919696474090141, -1.1198191702546012)	(-6.4394119609479326, -4.7600137093719948)	(7.4332014404154449, 4.1550030180995297)	1.0	slash	1.21455
29	M	B	A	B					M	4	2	shapes	A	3	False	142	(6.7051722288837414, -6.2735158282177714)	(-2.0196504939446402, -0.27118592032958766)	(7.0576946741881148, 6.8749556042005082)	(-5.5793969073486878, 5.7332926639227768)	1.0	slash	0.774256
30	N	B	A	A	N	B	M	M	A	8	2	shapes	A	3	True	142	(4.9719184694697738, 1.7593174043760289)	(1.7007189124534108, 8.3499091985960234)	(8.6204129842428614, -5.1043775379917093)	(-1.1306978369712253, -7.4559697319648581)	1.0	z	1.14207
31	N	A	A	M					N	4	0	shapes	N	3	True	142	(-3.7441220719065456, -3.6298412949039749)	(-4.6956332876549762, 0.52260661701203404)	(4.2511420345723998, 5.907810979259235)	(6.9717878115994978, -7.780050456370045)	1.0	slash	1.73963
32	M	A	B	M					M	4	0	shapes	M	3	True	142	(-2.6671412594434933, 2.3368876127526956)	(1.7658767639526474, -5.3641141812395006)	(2.7608286912021374, 0.52062649235255165)	(-4.278656091844887, -7.4205232564338903)	1.0	z	0.983275
1	M	A	M	B					A	4	1	shapes	A	4	True	142	(-1.1121313709903049, 6.1405747603538696)	(5.7266488491015348, -5.4059202520785608)	(-0.74684752962421008, -1.7029949790633836)	(5.333284097760032, 5.2551411858279877)	1.0	slash	0.441035
2	M	B	M	B					B	4	2	shapes	M	4	False	142	(1.3406449586310831, -1.7485051983176563)	(-5.2558964958900898, 2.0822842986202286)	(7.5242610647399886, 5.5637103590864712)	(-5.9426523603042183, -2.4852514311948566)	1.0	z	1.04242
3	N	A	N	M					N	4	2	shapes	N	4	True	142	(4.8514491161982125, 7.0363452283532055)	(-8.1094310425081133, 7.3396158637325506)	(0.87296761635512787, -8.0973699238812813)	(-1.7225342013104479, -0.94363491721231618)	1.0	slash	0.130151
4	M	B	B	N	M	A	A	N	N	8	3	shapes	N	4	True	142	(3.1997900178912886, -2.3749958796617836)	(-0.34841893588295925, 7.8592195348591822)	(-4.226809406777841, -1.8302199003215076)	(6.6357392564779545, -6.8119673073672704)	1.0	z	0.643417
5	N	A	A	M					N	4	3	shapes	M	4	False	142	(1.8207568560157075, 5.4290173584650177)	(0.94322496676444878, -7.0062028927978339)	(-8.238539397234721, -3.2272376769389268)	(-4.208166025578195, 7.1014886783640705)	1.0	slash	0.347374
6	N	B	N	A	M	A	B	M	B	8	4	shapes	M	4	False	142	(2.590357521513738, 8.3761819398699764)	(-3.9446571819256295, 7.1959982419077306)	(-8.149546378315371, -8.5693606721410536)	(-3.0790543054645747, 0.49316819834032621)	1.0	slash	0.96907
7	N	B	A	B					M	4	1	shapes	B	4	False	142	(-3.8534395809223909, 4.7139118716038713)	(-2.795643167476948, -4.8448445858482625)	(8.476866855127895, 6.0429535794657063)	(4.7122175998174729, -0.16943336726683889)	1.0	z	0.592946
8	N	A	A	B					A	4	1	shapes	A	4	True	142	(-0.75076997053214001, 3.4153779242347646)	(-4.8370634862950119, -4.5939288661899518)	(2.7745450523201765, -8.2334152494467254)	(8.5447643301999108, 8.3262589348588172)	1.0	slash	0.116533
9	N	B	N	M	M	A	B	A	A	8	6	shapes	B	4	False	142	(-3.8877097861664556, 7.9972011672285959)	(-2.8357155112609771, 0.46568755182822485)	(0.64780388280863299, 5.9409158259620671)	(7.2786724334935933, 0.6425434672196495)	1.0	slash	0.903593
10	N	B	B	N					M	4	3	shapes	N	4	False	142	(3.0473335661728758, 1.9312080563523395)	(-4.0166964042566775, 3.5318384529524138)	(0.77618819979809395, -7.0674882194988191)	(-4.488865816377114, -7.6042673455180685)	1.0	z	0.619801
11	N	A	M	N	B	M	A	B	M	8	5	shapes	M	4	True	142	(7.7024132422463261, 2.5683332994014592)	(-1.6183589333893007, -0.064503590679631628)	(5.4156766967661873, -7.587878366232883)	(3.682431988407842, 6.9768319549362214)	1.0	z	0.987498
12	N	B	B	N	M	A	A	M	M	8	4	shapes	M	4	True	142	(4.2639735529514819, 4.3980563987214758)	(5.8517312923456029, -6.4524088461135127)	(0.42081504867523556, 2.8219986533953048)	(2.8561520253125945, -1.6830232472245772)	1.0	slash	0.608777
13	N	A	B	M	B	M	A	N	A	8	6	shapes	A	4	True	142	(-1.9066552271172768, -4.2929446716500559)	(-3.2995193068020798, 0.51019298987365858)	(2.9608427568701057, -6.2143566034184179)	(-6.0331523582424893, 5.0036436287787662)	1.0	slash	0.040225
14	N	B	A	N					N	4	3	shapes	N	4	True	142	(7.0385801322868264, 1.8468269322514352)	(3.5323238136169852, -1.9013084334599712)	(-1.9334908293730209, 4.4547146191423508)	(-1.2788887825260673, -2.6961986802368294)	1.0	slash	0.714513
15	N	A	M	A	N	B	M	B	B	8	7	shapes	B	4	True	142	(3.4345206671233708, -6.1634518155764715)	(-6.4021544219996844, -2.1322379782471659)	(7.6379815978242576, -3.8841559121046094)	(5.5645225407562151, 2.6953028439493778)	1.0	slash	0.317915
16	M	B	M	B					M	4	0	shapes	M	4	True	142	(1.6084819514371702, -5.3565752091604262)	(-5.9804249129506157, 4.6490564686468474)	(5.6291471990640147, 5.0792291198982689)	(-1.4783649961588603, -0.75943711856881801)	1.0	z	0.246007
17	N	A	A	B	M	B	N	M	B	8	4	shapes	M	4	False	142	(2.3156848232858813, 5.6494215078469683)	(4.0354853648154076, -0.093914309332902235)	(-4.3354689248394749, -3.7815293648898631)	(-5.6218389387987342, 5.6410429408503902)	1.0	slash	0.263008
18	N	B	A	B					B	4	3	shapes	B	4	True	142	(-6.5592814461514566, 7.6161065408519164)	(1.0844409606537422, 7.1578228309738261)	(-5.433136512250635, -8.2315530825884728)	(7.2619036110721851, -7.1209390517172118)	1.0	slash	3.3573
19	M	A	N	B					A	4	3	shapes	B	4	False	142	(7.3825975262597332, 0.7727914957138573)	(-5.130236045975229, 0.11648123139909394)	(3.5601766480195813, -2.686341935683469)	(-1.9006756638036926, -3.6655522352424104)	1.0	z	0.680745
20	M	A	B	A					N	4	3	shapes	A	4	False	142	(1.4759274054291165, -6.3990695036855474)	(1.3049604894298241, 1.2078246728276003)	(-3.494729658450952, -4.8818583597329228)	(-7.8399537888329602, 3.3397989321685397)	1.0	slash	0.802489
21	M	B	N	B					B	4	1	shapes	B	4	True	142	(2.1604353686674287, -6.5892285846802592)	(-6.3347819522573916, 1.0001126059773693)	(-4.4251518813332682, -4.7768782924155904)	(7.8907022073306301, 2.3936119853559958)	1.0	z	0.756043
22	M	A	N	A	B	N	M	B	N	8	3	shapes	A	4	False	142	(-6.1587289977822977, 8.5356550500900035)	(2.9763531680987647, 4.3646454542705886)	(4.493975605876269, -8.1711459886687905)	(-4.9258284758393023, -5.1221003716710181)	1.0	slash	0.823678
23	N	B	B	M	A	A	N	M	B	8	2	shapes	B	4	True	142	(2.1345891955606149, -6.5085465158225482)	(-4.4205747008112874, -5.8983652828843383)	(5.6330074151312548, 3.8050799361466723)	(-8.500207912008559, 2.0503411820901469)	1.0	z	0.805243
24	N	A	B	A					N	4	0	shapes	N	4	True	142	(-5.4019404389921073, -8.5447766350862437)	(4.9991850294230247, 1.5242536961474613)	(-0.35738063476986248, 6.2544937034590244)	(4.22815808256426, -3.7376706580821155)	1.0	z	1.07894
25	N	B	A	M	A	B	N	M	M	8	0	shapes	N	4	False	142	(1.6579909468418226, -3.0621521097280411)	(-2.0422375959299437, 3.2029987204689832)	(-6.1716172738631121, 6.5800037433511225)	(7.0002305896290835, 6.9287844739235105)	1.0	z	0.722592
26	M	A	M	B	N	B	N	A	A	8	0	shapes	M	4	False	142	(8.7430845659150904, -2.3612744711910461)	(-7.4720488318800351, -3.166305705993218)	(4.6268316857918315, -7.4375077592838412)	(7.3585879439843787, 1.6080219045950717)	1.0	z	0.902345
27	N	A	N	M	M	A	B	B	M	8	4	shapes	M	4	True	142	(3.7428542057084524, -5.070991233808666)	(-4.2853645816288308, -7.3288685846889754)	(2.1873110515632028, 1.3543612261221885)	(-5.200270457928406, 0.37983706598685885)	1.0	z	1.69187
28	M	B	M	A					N	4	1	shapes	B	4	False	142	(1.5218035118728999, -6.9571525433479673)	(-3.8608098065797538, -4.1205698868308422)	(-1.2849996896738993, 5.7900485797987375)	(4.618884318990446, 4.4335459718067742)	1.0	slash	0.587691
29	M	A	A	B	B	N	N	M	N	8	0	shapes	M	4	False	142	(8.2629944620727329, 2.566334962649881)	(-6.215865538197777, -4.5547136699942374)	(-7.4037555670544153, 7.3617169981280597)	(-2.3931237170922328, 5.520386529661744)	1.0	slash	0.704742
30	M	A	N	M	A	N	B	B	B	8	0	shapes	M	4	False	142	(-2.6369583602841544, 0.11689924587671108)	(-3.867482899027916, -4.252134357315728)	(5.485294120732501, 8.2403655991937441)	(3.8082658003031291, -1.1898850615272663)	1.0	slash	0.854352
31	N	A	B	N					M	4	0	shapes	N	4	False	142	(8.5685391281807597, 7.3476523395365945)	(-7.0707139867807296, 3.8505861786259263)	(1.4622166251229576, -7.3826955755262773)	(-2.4660351408719086, -5.128446869763037)	1.0	slash	1.27859
32	N	A	B	B	N	A	M	M	N	8	4	shapes	N	4	True	142	(-3.7449399876847433, -0.81325241685061123)	(-0.27148288960224676, -3.5095308381850385)	(4.2640537398528231, -2.0555045792665503)	(3.7236291199547811, -7.3733755597854111)	1.0	z	1.77761
1	M	B	M	B					M	4	0	shapes	M	5	True	142	(-5.9301249377375544, 3.2526095292794235)	(-2.8189172687310577, -1.803249309963757)	(6.9924403636127543, -1.5092478360255459)	(3.7550901362160314, 1.3489490714821724)	1.0	slash	0.383044
2	N	A	B	N	A	B	M	M	B	8	6	shapes	M	5	False	142	(-3.6192292310093386, 3.4367772876280878)	(-6.8453245640392941, -5.8910249570149258)	(-6.8566320734884956, -0.30510558899954887)	(4.6792635994206435, 7.4266364301034358)	1.0	z	0.527355
3	N	A	M	A	B	B	M	N	B	8	0	shapes	N	5	False	142	(-2.1652800577171556, -2.7865740708907758)	(3.1352818455143012, 4.5737022323697722)	(6.0032543927416491, -4.0672585969441553)	(-6.5007840875316001, -1.8588402148191072)	1.0	slash	0.567207
4	N	A	A	B					N	4	0	shapes	N	5	True	142	(-7.6334086675464601, -6.3047314639087926)	(8.4361119655843666, 4.4579782635286378)	(-0.32882939391243937, 1.6342978992659773)	(7.2429644810904357, -8.1053578698179685)	1.0	slash	0.542688
5	N	A	N	M					M	4	3	shapes	M	5	True	142	(-5.6203422579746682, 4.4413463598189722)	(7.9554965427320461, -7.0613979197267414)	(1.7650138256615797, 3.5379241653254923)	(-5.0594086359189534, -1.1175009329167285)	1.0	z	0.452452
6	N	A	A	N					B	4	0	shapes	N	5	False	142	(-6.4491846992671356, -2.5127764395269399)	(-7.2712337698897338, 2.6247413834751505)	(7.963333081960581, -6.464674453159418)	(2.7921061773979137, 0.52567369714101808)	1.0	slash	0.532118
7	N	B	M	A					B	4	1	shapes	B	5	True	142	(-1.270279330692718, 0.22259886054282418)	(1.0035943751961085, -8.6234813797324339)	(6.8669138831817289, 7.3218384618027876)	(-4.7094723794985862, -4.892418095472876)	1.0	slash	0.841548
8	M	A	M	N					N	4	2	shapes	M	5	False	142	(0.89140986413169365, -4.5626758749949881)	(-2.5613006173736519, 8.2695781267909254)	(-3.9165323040969033, -4.3603633128976309)	(5.9380705332077408, 6.3150548799733954)	1.0	slash	0.595444
9	N	A	N	A	B	B	M	M	A	8	3	shapes	A	5	True	142	(6.7514406959029056, 4.7032624662517009)	(3.18385820964963, -2.3383246495898629)	(-0.36479927053153816, 7.0181213320459932)	(2.6966705698958133, -8.7361807198503385)	1.0	z	0.86241
10	M	A	B	A					A	4	1	shapes	A	5	True	142	(0.77119586854145972, 0.046292027278171943)	(7.2327172288439048, -7.0660550844187151)	(-6.633907189879956, -0.70431135229237007)	(-2.7555702845583099, 2.0694752959775577)	1.0	z	1.05258
11	N	B	B	M	N	M	A	A	M	8	5	shapes	M	5	True	142	(-1.6780654646625637, -0.024292460676422323)	(0.9886432345696754, -7.0982512134846081)	(-6.2650045485350327, -0.59431537439577653)	(-2.0237377803839003, 5.5161621052601397)	1.0	z	0.718302
12	N	A	A	N	M	B	M	B	M	8	7	shapes	B	5	False	142	(3.7491267557145385, 5.0673383240130256)	(-2.1382195359127687, -6.3343615188552311)	(0.53319200296258273, 2.4273097211769663)	(8.1987911426477602, -6.4989314375599658)	1.0	slash	0.696119
13	N	B	B	A	M	N	M	A	N	8	0	shapes	N	5	True	142	(-3.4007791284497308, -5.7861874657578305)	(8.6649462947173852, -6.367683611279725)	(-3.1403793919055145, 0.080545256984688507)	(1.0114620003824051, 5.9372067013893677)	1.0	slash	0.831818
14	N	B	N	B					M	4	3	shapes	B	5	False	142	(5.9989747979309893, 0.16127544608857036)	(-8.4373091170544434, -4.5145522276749963)	(-8.3213242131612564, 2.5323135459653905)	(5.7145003068815896, -6.269844674470904)	1.0	slash	0.699338
15	M	A	B	M					N	4	1	shapes	A	5	False	142	(-2.4879241633602849, 3.5976198610233556)	(-5.2954074246622893, -6.119481218826226)	(3.3697476322716113, -7.8257709674311231)	(3.2591412835780691, 3.387026025837212)	1.0	slash	0.625045
16	N	B	B	N	A	A	M	M	A	8	2	shapes	B	5	False	142	(-3.3420102757185655, -0.67057373034325174)	(1.6393089515875641, -2.7841940723496483)	(-4.28108548937095, 6.235230270658203)	(6.3231179071484327, 6.8197058214196193)	1.0	slash	0.877922
17	N	B	B	N	M	M	A	A	M	8	4	shapes	M	5	True	142	(-5.6790972702078637, 1.6222061122016065)	(5.8537968381495542, 0.20690296041670386)	(-3.9448424274212011, -8.5671589819557514)	(-2.3541762876105325, 3.8810710149204031)	1.0	z	1.26581
18	M	B	N	A					A	4	2	shapes	N	5	False	142	(-2.4431456866498529, -7.1536099080335891)	(-0.81969175463609645, 7.9671707815453487)	(1.2628830109258118, 3.5606452572830012)	(3.9056504868310977, -4.3930960069043605)	1.0	slash	0.904039
19	M	B	A	M	N	N	A	B	B	8	7	shapes	B	5	True	142	(5.0370509672573149, -2.633651947423755)	(-4.7731800365653205, -5.7793048314970248)	(6.9433491148307009, -7.2979545244399633)	(-4.9387179880576753, 1.1485777085334661)	1.0	slash	0.661616
20	M	B	N	M	B	N	A	A	A	8	4	shapes	B	5	False	142	(-2.1581980531496647, -6.9289643939423184)	(-1.3050909827934527, 7.6507811303154014)	(8.0258642739737489, 8.387820598292155)	(-6.2205510946379059, -7.8127020213978069)	1.0	z	0.923309
21	M	A	B	M					M	4	0	shapes	M	5	True	142	(0.39429990123809233, 3.664484296679742)	(8.6103961086571914, -2.5076320466531339)	(-0.70148669226658456, -5.4375681640940945)	(-8.4027014421524004, 0.48814233635314608)	1.0	z	0.700969
22	N	A	N	A					A	4	0	shapes	N	5	False	142	(-6.9068947842638018, 5.9583015380010949)	(1.3689825419575197, 6.3550627509929676)	(5.7994301688554817, -6.9686772477084853)	(-0.049698544234676234, -1.5648078995816377)	1.0	slash	0.738445
23	M	A	M	A					A	4	1	shapes	A	5	True	142	(7.4479374603897917, 8.3242336760934563)	(-0.086464008912605195, 1.4536656141885729)	(4.4640007283036489, -6.5115656935935986)	(-8.1429256121289981, -6.7670321184793565)	1.0	slash	0.430112
24	N	A	N	B	B	A	M	M	N	8	7	shapes	M	5	False	142	(-4.9956007140558585, -5.1771875936004985)	(-1.524852364610136, 0.16695735323092897)	(-1.1834568787008282, 6.8635739824654394)	(5.0877043805318252, 3.8018392639917309)	1.0	slash	1.04194
25	M	B	M	A	A	N	N	B	N	8	5	shapes	N	5	True	142	(2.8466090766834462, -0.56124166617083304)	(-5.1142250273850589, -0.19376525184563143)	(6.9820759193516881, 1.6418824189634762)	(-0.99827208237985854, -4.7231006758868777)	1.0	slash	1.04564
26	M	B	A	B					A	4	2	shapes	A	5	True	142	(-1.0024892804164773, -1.0539900097199002)	(-7.2166288831664493, 5.4455681519257606)	(1.4714270068811626, 5.0296947776292384)	(4.804318232520929, -1.6649586944585923)	1.0	z	0.839281
27	M	B	B	A	N	A	M	N	N	8	0	shapes	M	5	False	142	(6.7989092661547996, 2.9614995806934044)	(-0.16404833989186507, -1.3808975166531221)	(5.6862594153312358, -6.7109766818595418)	(-7.3880328215902029, 0.68667470641033468)	1.0	slash	1.61874
28	M	B	A	A					M	4	1	shapes	B	5	False	142	(-7.2463469274058827, 6.5569444917447139)	(5.0776870043314766, -5.6694733056330637)	(-1.2806902070162538, -6.8102815459032104)	(0.32889353270987165, 6.2571919570724273)	1.0	slash	0.902341
29	N	A	B	A	M	M	N	B	M	8	5	shapes	M	5	True	142	(6.8116221823171461, -7.6559385631272088)	(-8.4893149385513773, 2.2220751789320534)	(-2.869872639963936, -0.071159995216870442)	(-0.12665179776722724, 5.321659960706226)	1.0	slash	1.0115
30	N	B	M	M					B	4	0	shapes	N	5	False	142	(2.4123148592111949, -2.5976249342168289)	(-5.5011012951866114, -4.3751964449267247)	(-1.4554907189483703, 7.8551405944312194)	(6.5415018622996968, 1.3100408009632236)	1.0	slash	0.587218
31	N	A	N	B	M	M	B	A	B	8	1	shapes	A	5	False	142	(-6.1782648003304192, 7.5387615758563271)	(-4.8520718024171723, -4.1743575144961156)	(2.7957007277064019, 7.7225629495926285)	(6.0825786168426124, 2.8963535304678345)	1.0	slash	0.82543
32	M	B	M	B	A	A	N	N	B	8	1	shapes	B	5	True	142	(-4.4218536667328951, -3.8036927407918153)	(0.13564512265330642, 4.0322076497447839)	(8.3424208718224016, 5.4850879829258741)	(-3.9328471162107448, -8.1709517446911786)	1.0	slash	1.31912
1	M	A	B	B	A	M	N	N	A	8	1	shapes	A	6	True	142	(-5.0526317823681257, -2.3796494738430312)	(-7.1011305326023413, -8.0470067865147108)	(6.4065387804311484, -2.2994436099786277)	(-8.1359516849847324, 2.0142121589578093)	1.0	z	1.24213
2	M	B	N	A					A	4	3	shapes	A	6	True	142	(0.28934277641385187, -8.0114533313920528)	(-8.3976173678990413, 8.2959026972649568)	(-1.668569129288711, -3.5972203486766512)	(5.0329859061365561, 4.70812212269262)	1.0	z	0.940114
3	M	A	N	N					M	4	0	shapes	M	6	True	142	(6.7115195811669928, 2.9185438829559889)	(-7.2966001611554017, 3.840206836565498)	(7.2914454269369848, -1.143265414714473)	(-5.609457723008811, -4.5358250928870403)	1.0	z	0.721911
4	M	B	N	M	B	N	A	A	B	8	1	shapes	B	6	True	142	(-4.0694822789817096, -8.1739782240010133)	(2.9357236719501785, -4.3199252894285332)	(0.067223075050373282, -0.95397424850642665)	(8.0249003645729573, 4.7329779386801256)	1.0	slash	0.947559
5	M	A	A	M					M	4	3	shapes	M	6	True	142	(-8.6286256798956202, 1.4348292699016145)	(4.1203162662914448, -8.4136993595662961)	(3.7219515519781901, 4.9664590615155557)	(-4.0295064911578242, -5.8757627399942187)	1.0	slash	0.807127
6	M	A	B	M	B	A	N	N	N	8	0	shapes	M	6	False	142	(-0.23856745852252104, -1.2637337447192589)	(-3.5510059805945637, 6.9747085558193334)	(-6.0191157252608871, -4.0101583598259278)	(7.9505296096705536, -3.8377252209214436)	1.0	slash	0.520344
7	N	A	M	N					A	4	0	shapes	N	6	False	142	(-4.4222799964102366, -4.6980099146507808)	(6.8553102961999262, -1.4113632111006869)	(-4.8587666306801438, 2.1129937567736548)	(2.5781430280711231, 3.9978328675504962)	1.0	slash	0.672403
8	N	B	A	A	N	B	M	M	A	8	2	shapes	A	6	True	142	(1.0445897278285798, 5.4116644439487391)	(-8.5758724452015525, -7.0583449883900951)	(-4.3001463626603105, -8.5075258974280921)	(-5.9290177101512214, 4.944948342113852)	1.0	slash	0.771608
9	M	B	A	A	B	N	N	M	N	8	1	shapes	B	6	False	142	(-3.6440592870280035, 1.907603465535562)	(-7.379179529192708, -0.7442228556523105)	(1.4458370359067541, -6.984524572701563)	(8.4206185417807937, 2.5523278091404986)	1.0	slash	0.963566
10	M	B	A	A					M	4	0	shapes	M	6	True	142	(-4.9653392036885382, -3.1822905736106994)	(6.0043452392064953, 6.86035550715002)	(0.026898123248644268, -7.2507898250731699)	(-3.8753040524911766, 6.1865042939252177)	1.0	z	1.19741
11	M	A	N	N					A	4	1	shapes	A	6	True	142	(3.4010360521840557, 7.9397046621974248)	(-5.5372170819432363, 8.1719939886867863)	(4.7314940067199363, -1.4601691004127844)	(-4.0049267275011946, -0.52739040954666727)	1.0	z	1.23303
12	M	A	M	N	A	N	B	B	M	8	3	shapes	N	6	False	142	(1.1924599196944925, -7.4819557601685007)	(-6.6173437977908733, -7.2703946867069007)	(-1.1932346272319725, -2.0963118183562042)	(-0.98008747849937361, 6.9970573443437001)	1.0	slash	1.51831
13	N	A	B	A					N	4	3	shapes	A	6	False	142	(0.48686620932017988, -8.0911246317422219)	(-0.11042495278577569, -3.7461861059072579)	(3.3467618381242339, 4.0709385271263958)	(-4.3616762215671576, 6.3680171390784945)	1.0	slash	0.576374
14	M	B	B	A	M	N	N	A	N	8	1	shapes	B	6	False	142	(2.0615895013320618, -0.024526070149395451)	(6.8680368124409732, 3.9178652032584669)	(2.9260782766314666, -4.7899629968290451)	(-4.3602503642071229, 4.4486535540124983)	1.0	slash	0.815483
15	N	B	A	M					M	4	2	shapes	A	6	False	142	(-4.7173253317999198, 0.0067916484764918295)	(7.5183074527227944, -0.57323727618634734)	(-4.8009974777628166, -4.8459524449444276)	(2.4165128620312242, 7.2141097739652551)	1.0	slash	1.03965
16	M	A	B	B					M	4	2	shapes	B	6	False	142	(5.683172538360024, 2.3886797945849114)	(-5.2730671425408211, -1.6093943023210038)	(5.6436139475117848, -6.3636613304189638)	(-1.0135154075367154, 0.21211308904179305)	1.0	slash	0.649324
17	M	B	N	M	A	N	B	A	A	8	1	shapes	B	6	False	142	(8.7387724990070694, 6.2634319370674003)	(-6.4200218777907985, -7.1770476431549639)	(-2.2944293653374075, 4.9343625163326887)	(-0.84381332361309802, -5.7535248891532937)	1.0	z	1.13837
18	N	B	B	N	M	M	A	A	B	8	1	shapes	B	6	True	142	(5.0122058784974222, -3.7901852646245366)	(-0.59852451160777242, 0.65644606144386053)	(-8.0303226361517961, 2.6357929130147237)	(-1.8324446827056677, -7.7617568394456153)	1.0	z	1.91402
19	N	A	N	A	B	M	B	M	B	8	6	shapes	B	6	True	142	(2.0743963300004964, 3.5753814056118767)	(-1.0877752431005083, 0.65434148619111276)	(0.79716077190671086, -4.0915449839391034)	(-5.0477496652091016, -7.7246128437325323)	1.0	slash	0.98158
20	N	A	M	B					A	4	3	shapes	B	6	False	142	(4.2281712414864145, -0.43574089870682009)	(-2.8411651157348681, 1.8171854116670332)	(4.6265286336230442, 5.3654127022793237)	(-0.88834000884215314, -7.2365258834215229)	1.0	slash	0.93971
21	N	A	N	A	B	B	M	M	N	8	6	shapes	M	6	False	142	(3.2317967569390138, 4.2039004611417461)	(6.1906601416885341, -1.7334803700487473)	(-3.5770903050220157, -7.4926092581027026)	(0.98492964449900455, -4.8686369875283564)	1.0	slash	0.986885
22	M	A	B	B					B	4	0	shapes	M	6	False	142	(6.5939716230358734, 2.0303504785866036)	(-4.8588824250641895, 4.1741996304847842)	(5.9349200018651658, -5.0371495021905499)	(-2.9234168824929538, -5.0979769521228047)	1.0	slash	1.58453
23	N	B	N	A	B	A	M	M	N	8	2	shapes	N	6	True	142	(-5.9326744956069781, 7.1906598675464402)	(6.670129332594037, -7.0202799985042992)	(-0.311723284449684, -6.5957808513483283)	(8.6518860910994277, 4.1150561343986514)	1.0	slash	1.07019
24	M	A	A	N	M	B	B	N	M	8	5	shapes	B	6	False	142	(4.5661285337148225, 7.2611974987514465)	(3.5356360383629717, -7.4691715560960033)	(-1.1253635721855098, 0.62674090180685482)	(8.5105984029941126, -8.278462028029054)	1.0	slash	1.06581
25	N	A	M	N					A	4	1	shapes	A	6	True	142	(-4.2515793854319357, -2.6754282399922777)	(-4.5102153196567327, 5.5920264981562244)	(3.6733069060974284, -1.2555157245503139)	(0.35660235790171058, 5.7070807622069601)	1.0	z	0.991829
26	N	A	M	A					M	4	0	shapes	N	6	False	142	(1.606706081174087, -6.4475410135318985)	(-1.8821370099075398, 0.53104370988411276)	(6.1730940202414502, 2.6845090438504737)	(-1.9314151619216275, -8.349534897715456)	1.0	slash	1.10748
27	N	A	B	N	B	M	M	A	B	8	4	shapes	B	6	True	142	(-4.0453255124365679, -4.9774432415598291)	(-3.0362289236729501, 6.6639694981416095)	(2.7081840728645368, 3.3696228946432836)	(-8.6660618053639666, 5.6627101169995058)	1.0	z	0.721204
28	M	A	N	A	B	M	B	N	N	8	0	shapes	M	6	False	142	(5.6491439520852538, -6.6696750337746895)	(-7.0787003277852634, 0.34282421643699479)	(-5.7366857174529304, -3.5906112932747272)	(-8.2302597087194638, 4.6612389116406767)	1.0	slash	0.698441
29	N	A	B	M					N	4	2	shapes	B	6	False	142	(-2.024091847275086, -4.2517901988040059)	(6.1252383123312235, -1.3539128378965595)	(3.857850546287743, 2.1262482195004289)	(-7.529740560784024, 0.00090350861975885266)	1.0	slash	0.598499
30	N	A	A	N					N	4	3	shapes	N	6	True	142	(-6.4519199284098816, 1.5670031321946674)	(1.3663221390775249, -0.60603290572063706)	(-2.4054278767778996, -8.4019933358141863)	(0.60400588601838656, 7.9349048603801009)	1.0	z	0.936101
31	M	B	B	M	N	A	N	A	B	8	1	shapes	B	6	True	142	(-2.5762207216645558, 3.6495210680099675)	(-2.2739356094563021, -6.6476534007348818)	(-8.6145713770046779, 7.6287626864178293)	(1.1662979821320398, 6.6817163601387204)	1.0	slash	1.05584
32	N	A	A	N					N	4	0	shapes	N	6	True	142	(-6.9894802209801536, -1.6693997479065326)	(0.87990170097767262, 2.1105942013564025)	(3.5476711415730318, -3.7741139772844114)	(-2.5386307631668563, 7.1226943537643361)	1.0	slash	1.33332
1	N	B	N	A	M	B	M	A	M	8	2	shapes	N	7	False	142	(-2.8347123122405238, 1.5364630930964225)	(-0.31163311008068995, -7.4155479496318701)	(-5.3193519484955054, 7.8449129891824612)	(4.6952705412445592, 8.7498223831420674)	1.0	slash	0.954552
2	M	A	B	B	N	M	N	A	M	8	0	shapes	M	7	True	142	(6.5807774255632232, -1.0728121927476559)	(7.6100839003498457, 3.0264451846815472)	(5.2031397351717708, 8.5308950824256833)	(7.4961491163329868, -6.1044656001678517)	1.0	z	0.782354
3	M	B	A	A	M	B	N	N	M	8	0	shapes	M	7	True	142	(6.7705063667433301, 4.8360693225031017)	(-2.0322352280857716, -7.9294658262551838)	(-0.63977368839429261, -0.19543709010735277)	(5.4043998152113666, -2.6069213844383405)	1.0	z	0.987437
4	M	B	A	M	A	B	N	N	N	8	7	shapes	N	7	True	142	(-2.5430774258832933, -2.2827647171072725)	(6.8620322720755631, 7.4237477720697456)	(-5.642747130039508, 1.5870964432357901)	(0.2249173678899119, 4.262037876736624)	1.0	slash	1.36206
5	N	B	N	M	A	A	B	M	M	8	2	shapes	N	7	False	142	(-5.0616890122406435, -2.2914159190478083)	(7.1388020793911817, 3.9452371701149644)	(-2.0150987514235998, 3.8759322554742663)	(8.6473292496027554, 0.23062291995072925)	1.0	z	0.723096
6	M	A	N	A					M	4	0	shapes	M	7	True	142	(4.2803028835809691, 2.4869969670238063)	(-4.1987965537124028, 2.3529133850266639)	(-7.7334457725124111, -5.0739056577556809)	(0.69980577866634519, -1.7993556845758247)	1.0	z	0.669134
7	M	B	B	N	M	A	N	A	B	8	4	shapes	M	7	False	142	(-2.1493540581546222, -7.6751950543556484)	(3.6444152731083115, -1.5185363648262689)	(1.8170638229969551, 3.4192062019373388)	(-2.1697114205571362, 6.2760474961271058)	1.0	slash	1.08242
8	M	B	A	N	N	M	B	A	B	8	6	shapes	B	7	True	142	(-0.38052487736367979, 1.7280296933441157)	(-1.5124447352293764, -2.3579015420149654)	(7.5372895601293095, 2.3519451368601043)	(8.0857803199464229, -3.9812441364329487)	1.0	slash	0.836604
9	N	B	M	N	B	M	A	A	A	8	2	shapes	M	7	False	142	(1.1195264923434394, -2.9234862558661652)	(1.5153110385278143, 2.2715028587056185)	(0.6311045200014771, -8.6730348561772619)	(8.4763825195512545, 3.4506258079606855)	1.0	slash	0.839737
10	M	A	A	M	N	N	B	B	M	8	0	shapes	M	7	True	142	(1.7969359422132865, 4.3425646334203556)	(5.0042452136228768, -3.0806146154723875)	(-3.0898396112167132, -2.8272595678112085)	(-6.1497686211943661, 4.0321768854090347)	1.0	z	0.955919
11	N	A	A	M					A	4	1	shapes	A	7	True	142	(-7.8884713399376665, 5.007510909468218)	(-8.3755872928516339, -8.7478190006845882)	(8.4184377819763085, 5.4057414087341975)	(2.3390954464554348, -2.122295756520427)	1.0	slash	0.927466
12	M	A	B	N	M	A	B	N	M	8	6	shapes	B	7	False	142	(-3.4476970553412505, -1.0999489744965256)	(3.0003128133707619, -0.90448824019575902)	(2.4153224358148186, -6.5656386173184966)	(-1.799260177182525, 3.9822541388272583)	1.0	slash	0.90441
13	M	B	A	B					N	4	1	shapes	B	7	False	142	(4.7381965411577571, -8.5694959292667363)	(-6.6195716807031442, -3.3597482281214095)	(-2.6132758689316908, 1.4288281105973919)	(3.7851491766891208, 7.9698116284392988)	1.0	slash	0.596912
14	M	B	A	N					M	4	0	shapes	M	7	True	142	(-2.7061365369207682, 3.4624254850220826)	(8.469673051937594, -2.5907238637466721)	(-2.8732546432056125, -2.8298114722222678)	(4.1032240324529479, 1.972394803608946)	1.0	slash	0.792415
15	N	A	B	N	A	M	B	M	M	8	3	shapes	N	7	False	142	(4.8627316289109501, -3.1375089304663408)	(-1.7734304519571493, 0.15368087013859366)	(6.6030851928457892, 7.1704304833929431)	(8.6436164346150548, -0.76653180404045429)	1.0	slash	1.03555
16	N	A	M	N					N	4	2	shapes	M	7	False	142	(-7.7412861864397149, -0.67579378984836858)	(8.1837789212169625, 6.6185584958444146)	(-4.087610558159593, 6.575023120528348)	(2.8103206209414111, -8.4612674565326564)	1.0	slash	0.735586
17	M	A	B	A	N	B	M	N	B	8	5	shapes	B	7	True	142	(8.2678067736633842, -7.2790709582208448)	(3.9713849692918686, 5.7739084328341672)	(-4.3588299385571823, -0.88393798615598573)	(3.830323838541247, -4.880013087684949)	1.0	z	1.03874
18	M	B	M	A					B	4	1	shapes	B	7	True	142	(-3.1950810305717097, 1.1870065856063139)	(6.4097642928970711, -2.3689299081560105)	(0.9928550036976187, 5.1272274612761883)	(-0.22120744825081573, -4.4340103392183599)	1.0	slash	0.432976
19	M	B	B	A					M	4	2	shapes	B	7	False	142	(3.8429004298741685, 6.4931102752192569)	(-7.296244556122268, -2.0890245825931846)	(-6.3717142873279728, 7.6562694045286648)	(4.9922817218175481, -2.4564395788158757)	1.0	slash	0.652685
20	N	B	B	N					M	4	0	shapes	N	7	False	142	(6.8556318427186902, -7.3383012747527809)	(-7.862014594022841, -5.5741494347338714)	(4.1933695904410477, 4.9700952690072828)	(-1.0595647049873085, 5.3042228991706875)	1.0	slash	0.763729
21	M	B	B	M					A	4	3	shapes	M	7	False	142	(-5.5153043635585588, 2.4128574930236883)	(-2.9061700482555786, -1.3489731633326993)	(6.3079534694484227, 1.8757349954872282)	(6.0433139091579147, -4.8359510790609663)	1.0	slash	0.558107
22	N	B	A	B					A	4	3	shapes	B	7	False	142	(-8.5817772080435493, -3.2547816364910522)	(8.5149359847804611, 5.3795007302361011)	(0.51330774497880327, -0.76979828169274889)	(-5.3232841871153607, 4.4369321363649128)	1.0	slash	0.62373
23	M	A	A	N					N	4	0	shapes	M	7	False	142	(-3.6805674133479735, 3.781091256087608)	(4.3092981483860111, 3.3388478452635528)	(-1.0422452879854278, -2.8371859895346976)	(6.4471745627177963, -1.5030014533183289)	1.0	slash	0.613309
24	N	B	B	N					B	4	2	shapes	B	7	True	142	(-2.3031816827280869, 8.4860120990862171)	(-3.05149072687699, -5.6327318096152261)	(8.1519625742285093, -1.7912067193900283)	(5.5376321583907195, 5.0804346086860033)	1.0	z	1.15482
25	N	B	B	A					M	4	0	shapes	N	7	False	142	(7.9480931254159657, 0.23475917277358427)	(-3.6575165756106047, 8.3874404332763852)	(-0.86734107667318749, -2.9863831795069613)	(2.7523368949302114, -5.6200611357510386)	1.0	slash	1.13461
26	N	B	M	B					B	4	3	shapes	B	7	True	142	(-6.0396494754051488, 7.0441300071562001)	(7.7832455520598671, -7.0699256630271501)	(7.8164549699362453, 5.3254218052971893)	(-2.4240788947306262, -0.85580179282131486)	1.0	z	1.39026
27	N	A	A	B	B	M	M	N	B	8	0	shapes	N	7	False	142	(-6.9433036529652492, 0.99967670163068334)	(-3.1193423513198191, -0.45998946861801393)	(-0.75413363532268551, 7.144430968973996)	(0.95712383686289471, -3.6859120786665933)	1.0	slash	0.891974
28	N	A	N	B	M	A	B	M	N	8	0	shapes	N	7	True	142	(-4.2197139611884333, -6.403673662748357)	(3.888122081877837, -0.1166885882898292)	(-3.4259924187736148, -0.83490166081985251)	(-3.9634867138755174, 5.3990757812166272)	1.0	slash	0.787458
29	N	B	A	M	M	B	A	N	M	8	3	shapes	M	7	True	142	(-4.183730809539858, -6.4484802293501646)	(-5.3193226309130495, 4.8595793461694594)	(3.6141021262339361, 3.3612037650251381)	(0.14614245042109353, 0.59747777245845768)	1.0	z	0.89453
30	M	A	N	N	M	A	B	B	A	8	4	shapes	M	7	False	142	(-0.18726903358820124, 1.7380885132561126)	(-7.7609240499072998, 2.7898257295075055)	(7.0322416633800522, 1.2615005803481552)	(0.47502191887723733, -2.2102715270957436)	1.0	slash	0.822338
31	N	B	B	N					B	4	2	shapes	B	7	True	142	(5.8171726051315051, 0.00091661107925311569)	(-6.5787189403277386, -5.6886659216902808)	(-5.5519185796975243, 8.5520061043831035)	(5.7360992497914172, -7.9236859287407055)	1.0	z	0.922491
32	M	A	B	B					M	4	0	shapes	M	7	True	142	(7.1276752595281891, 8.5942910997609623)	(-2.9485832211171576, -4.9049759078361976)	(-1.9470623811130405, 3.8540044278563048)	(1.986349986968893, -2.2480944968263046)	1.0	z	0.852141
1	N	B	M	N	B	A	M	A	A	8	7	shapes	A	8	True	142	(-2.3965443943566189, 2.0381369567655838)	(-1.9841024749846463, -3.1528803533084551)	(2.721388695473058, 1.7676584038545187)	(-8.1699586120485943, 3.2011216814651267)	1.0	z	1.59119
2	N	A	N	A	B	B	M	M	N	8	4	shapes	B	8	False	142	(1.471106910744771, 6.3205946499300047)	(1.0155276178127366, 1.2549248551301933)	(-8.5966102760601846, 5.4849943569449238)	(4.0407611090052544, -3.0361705219419237)	1.0	slash	0.818771
3	M	A	A	N	M	B	N	B	B	8	0	shapes	M	8	False	142	(8.4005346660742219, -2.1495682979604336)	(6.0139247504782301, 4.7066608463486386)	(-4.9869456142329449, 2.6641797399759533)	(4.4128542264203929, 0.52778219543051108)	1.0	slash	0.810292
4	M	B	A	M	A	B	N	N	B	8	3	shapes	M	8	False	142	(0.70297243734982651, -7.9451267489114521)	(2.5716587608639632, 4.9146317832944231)	(4.1864671452285442, 0.053656263808715465)	(-3.9314546229037948, 4.4022500532251279)	1.0	slash	0.796133
5	M	A	B	B					B	4	2	shapes	B	8	True	142	(-4.1141630051918812, -3.1755743107702141)	(-4.266135180434306, 1.0881454621551008)	(5.844009568717313, -0.51198079162969279)	(3.6372813058464004, 6.039704981777323)	1.0	slash	1.03828
6	N	A	M	M	B	N	A	B	B	8	7	shapes	B	8	True	142	(3.7591259541909441, 3.5925596772456512)	(7.8151232667723001, -4.418567391549109)	(-1.9134234187351513, -7.6007370852650276)	(-3.4550548719028882, -0.4190891133203074)	1.0	z	1.24935
7	N	A	M	A					M	4	3	shapes	A	8	False	142	(-3.2083003096078313, -8.462307240821362)	(-6.736650920316464, 4.8236023217070585)	(3.3871012561573366, -2.3346674704889674)	(7.7676843164113905, 2.9640118959213613)	1.0	slash	0.753505
8	M	A	M	N					M	4	2	shapes	M	8	True	142	(-3.6478525783733859, -0.67486578001729214)	(6.5264378984258666, -4.7294162561991797)	(2.1066191861140062, 2.7060025182256968)	(-5.9641889143719204, 5.7824673471624042)	1.0	z	0.940943
9	M	B	M	A	N	A	B	N	N	8	6	shapes	B	8	False	142	(-3.1309076177713759, -4.5586505421822299)	(0.59320153982848112, 8.5581538425861403)	(2.6284624479872374, -7.1089638170009435)	(8.3379496496009935, 7.2559213300682153)	1.0	slash	1.42032
10	M	B	M	B	A	N	A	N	B	8	4	shapes	A	8	False	142	(-3.4010359860812045, -5.80518078441985)	(0.43972199250736566, -7.6163777123018601)	(-7.8491046323665703, 3.388012334375988)	(-5.4744868879661279, -1.9955429827521565)	1.0	slash	1.24374
11	M	A	M	A	N	B	N	B	N	8	3	shapes	A	8	False	142	(-4.9967868915273224, 5.9284536017269591)	(-8.5117655794381921, 0.0070183898019831048)	(-4.3701272082518123, -8.3326457027801286)	(2.9523669081496653, 8.2190981665061003)	1.0	z	1.15745
12	M	B	N	B	N	A	A	M	B	8	3	shapes	B	8	True	142	(6.7300421007827307, 3.6560041731383652)	(-6.9673137159908061, -4.7755333544773286)	(8.5048076877090466, 8.217668899586684)	(7.6451118716879947, -0.73427350283318127)	1.0	z	1.56938
13	N	A	A	N	B	M	M	B	B	8	7	shapes	B	8	True	142	(2.1105152272079035, 5.5883697479381045)	(7.1414251458002198, -1.2735311194232741)	(-6.0507004360240488, -2.2548296046817677)	(-0.96085794568525884, -7.2385995763037236)	1.0	z	1.02885
14	N	A	M	B					N	4	3	shapes	B	8	False	142	(8.0922971384261935, 5.1052334618685489)	(-5.4723832823142793, 4.8915363942458274)	(0.55308330467878442, -6.921441588495858)	(-2.5512301736343614, -1.0109088808844362)	1.0	slash	0.520927
15	M	A	M	B	B	A	N	N	B	8	3	shapes	B	8	True	142	(-4.6423875509201897, 1.7019072965358468)	(6.2792416617031854, 7.4552667944342161)	(-7.622678254435642, -7.7583407649038962)	(2.4150613302993555, 1.7631251085904864)	1.0	z	1.13275
16	N	A	A	N					N	4	3	shapes	N	8	True	142	(7.9144923057586105, -3.5238242001887388)	(-6.8315164328154907, 6.0193778831398213)	(2.341601092287485, 7.1423743018979646)	(-5.7744114680535752, -4.0103819802859837)	1.0	z	1.70813
17	N	B	M	M					M	4	3	shapes	M	8	True	142	(-5.938990662211892, -2.3620953572421985)	(4.9623308143344147, -2.7220642468639751)	(1.4158082812741597, 5.6839368126000078)	(-7.8250806857091959, 7.3145391565117919)	1.0	z	1.75737
18	N	B	M	M	A	A	B	N	N	8	7	shapes	N	8	True	142	(-1.235340904627984, -3.2357817313448374)	(-1.2638276560961366, 7.1935792008726409)	(-1.1403177579312045, 1.570458486002142)	(-0.80388459233265674, -8.6033889710583917)	1.0	z	1.51273
19	M	A	B	B	N	A	N	M	M	8	6	shapes	N	8	False	142	(5.2057648051050389, 1.6281951793556679)	(-1.0195793957915127, 8.6249857703527901)	(0.71593932326391396, 4.3151798757750726)	(-7.9037656421022549, -1.713401580843807)	1.0	slash	1.07639
20	N	B	N	M					M	4	3	shapes	M	8	True	142	(1.4442362798552217, 1.5692062018159216)	(-4.8370292041885801, -1.2911957354853048)	(7.5823001103959378, -8.1798197404621327)	(-7.8841890169942888, 8.535497132959847)	1.0	z	1.50463
21	M	A	N	B					A	4	1	shapes	A	8	True	142	(6.0019373382635894, 4.8860478097599565)	(-1.0429828757461692, 0.64001604492929864)	(-3.8471912540152875, -6.9176938712045457)	(3.2469029572262667, -3.0720981947590671)	1.0	slash	0.916009
22	M	B	A	N					M	4	2	shapes	A	8	False	142	(-7.1920300060569735, -8.1679547216931159)	(-3.5671874487286344, 3.8246507751375152)	(4.6492121070139856, -1.1583114412970472)	(8.4663285383974838, 0.25494298993853093)	1.0	slash	1.58368
23	M	B	N	M	B	N	A	A	B	8	1	shapes	B	8	True	142	(4.0762047628803799, -6.2221527647322912)	(-5.4826409124009317, -1.8574861966592238)	(-6.0983867533007032, -6.2240119484449199)	(3.4388290109171855, 3.9438944135505647)	1.0	slash	0.780672
24	N	A	B	B					B	4	3	shapes	B	8	True	142	(6.6101582006880495, 5.3934525908769242)	(1.3549138255505273, -6.9994550783408744)	(-5.9889398478036897, 3.3676735934138744)	(-4.0409380688959722, -4.7185142969108922)	1.0	z	1.07316
25	M	A	A	M					M	4	2	shapes	A	8	False	142	(-7.3702048979200452, 8.2816769596786273)	(2.6963343764507393, -7.8841415334444882)	(7.9970746052491855, 3.102438166977409)	(-2.015795021756853, -5.3010290731397243)	1.0	slash	0.740662
26	N	B	B	N					M	4	3	shapes	N	8	False	142	(3.9723014825635481, -4.6900403473577805)	(-2.9666927530659626, -0.18980557225269123)	(2.8858218268336895, 6.1646118223864335)	(-5.1618969294065664, 8.1847109767919122)	1.0	slash	0.906291
27	M	A	A	B	B	M	N	N	A	8	5	shapes	M	8	False	142	(-4.7398558894673988, 7.9064195653650415)	(-1.1855839029708521, 5.6165334198037353)	(-0.17795128422113926, -2.0520755378337379)	(8.5516911722697984, 7.8283305769848148)	1.0	z	1.15961
28	M	B	B	N					N	4	1	shapes	B	8	False	142	(6.4174969059896441, -2.3121489880006525)	(-0.28491036735668906, 3.8140911835258891)	(-5.3496930343011204, -1.4131869359864027)	(8.2428881233520777, 5.176597241199973)	1.0	slash	0.697669
29	M	B	N	M					M	4	2	shapes	N	8	False	142	(1.674466072612331, -6.1998487639379558)	(-4.6506916829869862, -5.1117321848198642)	(6.1612058100532039, 6.5453263180815888)	(-5.3560509322479897, 7.4043694269676337)	1.0	slash	1.2408
30	N	B	M	A	M	N	B	A	A	8	3	shapes	A	8	True	142	(-5.2477284219029867, -4.0093101794937791)	(7.5926055809088169, 2.6689072893135251)	(-1.8740598305559182, -8.6476987974268074)	(7.5869508463023365, -4.5054305960041834)	1.0	slash	0.802393
31	N	B	A	N					M	4	3	shapes	N	8	False	142	(3.0365178902604519, -0.5819138794861356)	(3.5942296605838067, 6.0970194135759606)	(-2.5948281274013691, 8.610436277678243)	(-3.4814049515420997, -8.0914910016065615)	1.0	slash	2.73247
32	N	B	A	A					A	4	3	shapes	A	8	True	142	(6.6194726107137001, 6.757562825733439)	(-1.7519493773056825, -8.6694473532291418)	(-0.40383995949789941, 2.1242717833405873)	(2.4054382304745356, -4.1952619296148113)	1.0	z	1.00215
