TrialNumber	stim0	stim1	stim2	stim3	stim4	stim5	stim6	stim7	stim.probe	ttl.stims	corr.num	trial.type	stim.corr	block	match	Subject	stim.pos0	stim.pos1	stim.pos2	stim.pos3	ran	resp	RT
1	N	A	B	B					B	4	2	shapes	B	Practice	True	143	(-6.1033096333514845, -5.6677782655183746)	(1.1438022751222405, 2.1205619978928372)	(6.4976533694587975, -4.5072045027662835)	(-4.3141899240051078, 1.8344772071315258)	1.0	slash	1.94433
2	N	B	A	M					M	4	1	shapes	B	Practice	False	143	(6.3615258242292985, 3.6149924142847123)	(8.3701029469934163, -1.2637102326997089)	(-4.5680929497294285, -1.3953037537916453)	(-8.0377894546167248, 5.104287575001436)	1.0	slash	1.90908
3	M	A	B	B	M	A	N	N	A	8	5	shapes	A	Practice	True	143	(5.4924550110824981, -7.926956677027496)	(-1.8736827789135209, 4.228183831813654)	(1.6729479765991524, 6.2892782550466571)	(-6.6254248324377532, -7.4926861340229962)	1.0	slash	1.39406
4	M	A	M	A	B	B	N	N	B	8	4	shapes	B	Practice	True	143	(0.7991504983395572, -8.4899271776530991)	(5.2744664344614698, 0.75152957062031689)	(3.7892862969123744, -3.7000743158468969)	(-0.89344652497995813, 1.9082663442277781)	1.0	z	0.98969
5	N	B	M	N	M	A	B	A	A	8	4	shapes	M	Practice	False	143	(0.11078434377806978, 1.6285482498452755)	(-3.8985040311076595, 4.9935122858491479)	(3.8883236080060257, -6.497087999745454)	(-8.371083768613266, 2.3166256499933819)	1.0	slash	1.17977
6	M	B	N	N	B	A	A	M	A	8	2	shapes	N	Practice	False	143	(-2.4875026065922734, -2.4161839095633848)	(4.7196980208150325, -0.79923833532693767)	(1.3499987502784911, -5.9598859083179363)	(6.4811865447264978, 3.3187780875453683)	1.0	slash	1.00292
7	M	B	A	M					A	4	2	shapes	A	Practice	True	143	(-0.69882916362283609, 3.7714530072551895)	(5.9550535890435921, -1.0786451352279531)	(5.5763961286050208, 5.5057509788985204)	(-5.4477798373647879, -7.1548615193721821)	1.0	z	0.964982
8	M	A	N	B					A	4	2	shapes	N	Practice	False	143	(-3.6957755709935425, 1.9483643587044526)	(-2.0113978004243185, -8.2358967938976448)	(3.4078973247719961, -2.6238392002657793)	(4.7464110124891086, 2.1147778309648348)	1.0	slash	0.990714
1	N	A	M	N					N	4	0	shapes	N	0	True	143	(-0.5384491332205954, -6.4145457904341541)	(0.27749649347190442, 5.5593846288182434)	(4.58215604934942, -7.0732447878431941)	(-8.4598224985585624, 6.7554933072450627)	1.0	z	1.23242
2	N	B	M	B					A	4	3	shapes	B	0	False	143	(-3.870253897201037, -5.0240536563211791)	(-5.4963519490002959, 0.69840798009135341)	(7.531936367915943, -5.8580028200731924)	(4.7583318449442764, 6.9067572507053363)	1.0	z	1.09794
3	N	A	B	N	M	A	M	B	N	8	4	shapes	M	0	False	143	(5.6345497128298572, -8.6940499260757953)	(-3.1696252375456764, 3.9440893735032638)	(7.9664290983363664, -4.8472301545466339)	(-7.3629541654143313, 4.7816676004966947)	1.0	slash	0.889164
4	N	A	N	M					A	4	1	shapes	A	0	True	143	(-7.1671397503005005, 5.4370120731130633)	(0.84067677815912134, -5.0660611916860905)	(2.2008560261137635, 2.9389908492771237)	(-6.2259208046888936, -4.5420423108957637)	1.0	z	1.0412
5	M	B	A	N	N	B	A	M	N	8	4	shapes	N	0	True	143	(5.2147686038304393, -8.3123848945556595)	(-0.85582833622258647, 2.2980223794994856)	(-1.3560027997529227, 7.1731789309557286)	(5.2560764991946396, 8.2784115306758821)	1.0	z	0.924208
6	N	A	A	B					A	4	0	shapes	N	0	False	143	(8.1361070670740645, -8.0014477875595436)	(-8.6010306685992912, -2.7010183622934516)	(-5.6666140248260364, 2.1860070268691505)	(1.1573239326683336, 7.4017059931309142)	1.0	slash	0.828415
7	N	A	N	M					N	4	1	shapes	A	0	False	143	(4.6938227362628346, 4.4739553534054082)	(-8.0674711210426189, 8.4469246294731875)	(2.6163946372551621, -6.9765764187628836)	(-2.8439741006451484, -6.8717359396378441)	1.0	slash	1.19155
8	M	A	A	M					N	4	1	shapes	A	0	False	143	(-7.1923904151496245, -6.4745989633387087)	(1.2156123332304265, -5.3559961693200862)	(7.4704860172709004, 2.9745175404285984)	(-2.8874065486269291, 3.2942447144294675)	1.0	slash	0.931679
9	M	A	N	B	A	N	B	M	A	8	6	shapes	B	0	False	143	(8.6603707343877616, 1.9293389382662056)	(7.7283048183401633, -4.8121140637189148)	(0.83607316494068584, 6.6815033546013076)	(2.156584211762997, -1.8388553035505906)	1.0	z	1.08688
10	N	A	A	M	N	M	B	B	M	8	3	shapes	M	0	True	143	(6.2057132610008825, 4.0801517293019227)	(0.55129879584364971, 8.2329891976987213)	(-5.9439852424321415, -0.56868891411453149)	(0.3435926683508157, -2.9539042035468812)	1.0	slash	1.22435
11	M	B	B	N					M	4	0	shapes	M	0	True	143	(-5.5417734144598754, 7.8710888605270313)	(8.440249885641979, 6.7353328608094998)	(-2.2295262070456774, -1.9302365240844024)	(6.4521548348156497, -5.048672933860602)	1.0	z	0.93455
12	N	A	N	M	M	B	A	B	A	8	6	shapes	A	0	True	143	(-3.4912655477608805, 1.0638717127721602)	(1.7336663978542859, 4.3646191618407197)	(-6.9596904174776988, 3.4982466879535234)	(6.7979140721098918, 5.4015261838509119)	1.0	slash	1.19782
13	M	B	B	M					M	4	3	shapes	M	0	True	143	(4.5036544099688616, -4.6881426326398481)	(-1.679427705767421, 4.568257518005522)	(-2.8651977414565346, -3.2096567840742187)	(7.0049806625109543, 8.4753911589933786)	1.0	z	0.919925
14	N	B	M	B					B	4	1	shapes	B	0	True	143	(-7.314689915006654, -4.4967335024374968)	(-0.82012233757488318, 6.0491162612184848)	(7.0542516258663213, 6.854802695264075)	(6.0161470740218927, -0.6744871689078451)	1.0	z	0.769692
15	M	B	M	N					N	4	3	shapes	N	0	True	143	(8.1072507767854525, 2.12187032233183)	(-1.3893916173981333, 1.3198537556312946)	(-6.0364342815358594, -3.2804443994567105)	(1.9536233975585873, -4.367902711023028)	1.0	z	0.78489
16	M	A	A	N					N	4	3	shapes	N	0	True	143	(-7.2592825890940711, 7.2225082149020068)	(-1.8588294001055932, -3.7157652766820792)	(3.5933234918423373, 2.2907267748329598)	(3.9603753080179622, -2.5694092610485848)	1.0	z	0.670248
17	N	A	B	M	N	M	A	B	B	8	2	shapes	B	0	True	143	(-8.1024184722190711, -6.3044626150870524)	(0.061027000659455766, 2.3101106053608884)	(1.0619470598220353, -3.1526761995521548)	(7.5989313346724501, -6.1630012909699001)	1.0	z	1.12413
18	M	A	B	N	A	N	B	M	A	8	1	shapes	A	0	True	143	(-7.295575074268287, 2.8315511406297613)	(-2.8743555162636998, 0.65908990168317061)	(-0.024563859270664068, -5.2048502483871273)	(8.45252205791639, 6.8068384647966802)	1.0	z	0.965487
19	N	B	N	M	B	M	A	A	A	8	5	shapes	M	0	False	143	(-8.3963919708472243, 0.17629050280702074)	(5.5102670218800274, -6.2083867003784441)	(-1.6173692654673539, 6.2199599671213335)	(-5.771229329157622, -8.7140836104773687)	1.0	slash	0.543569
20	N	B	M	N					B	4	1	shapes	B	0	True	143	(2.3387615550748393, 0.30036166725099278)	(8.3170354178713986, -5.706107507573333)	(-6.7367719155074086, -4.5040328793626783)	(-1.5238383717192931, 8.2636155458515255)	1.0	slash	1.14149
21	N	A	A	M					B	4	0	shapes	N	0	False	143	(7.5744341233790777, -3.1445227952647103)	(-6.0171936098141661, 0.015858622844891812)	(4.4177573890902124, 3.1637177935307736)	(-0.69147234429605575, -0.45368014850090255)	1.0	slash	1.05119
22	M	A	N	M	B	N	B	A	B	8	4	shapes	B	0	True	143	(4.2157404597601555, -0.89708548228103879)	(3.5613812152709752, 5.9673528532530806)	(-5.102660874723826, 4.3138392168950208)	(-1.8033252819419481, -7.1652598490755608)	1.0	slash	0.972225
23	M	B	M	B	N	A	A	N	N	8	7	shapes	N	0	True	143	(-1.1635323447134462, -7.8064962687568515)	(0.99702046336672367, -2.0952536339463457)	(-3.4156705554315998, 3.5669804316184361)	(3.9119846001168312, 1.6153525973715812)	1.0	z	0.910026
24	N	B	A	B	N	M	M	A	B	8	6	shapes	M	0	False	143	(3.2813713932361299, -5.5605482731445655)	(4.494278503060448, -1.2104092529444417)	(-8.2963526599275514, -2.2505592376625421)	(6.0692357889130086, 3.2777727524914244)	1.0	slash	1.2676
25	N	A	A	N	M	B	B	M	B	8	4	shapes	M	0	False	143	(7.8767519447893584, -2.6096368243913268)	(-8.1081087676554997, -3.2620170504558494)	(6.3485791703451113, 6.4407415322642638)	(-4.4615572779417283, -0.30400317367493379)	1.0	slash	0.9533
26	N	A	A	M					A	4	3	shapes	M	0	False	143	(7.6239598414007048, -1.2853962019338763)	(-2.6489944652253463, -5.0286532759860085)	(4.4672126624769124, 3.6639103346486088)	(-3.2982517289728364, 8.5986726290260833)	1.0	slash	0.891252
27	N	A	N	M	A	B	M	B	A	8	0	shapes	N	0	False	143	(5.1375636055370002, 6.2248307373478795)	(0.31894155478130948, 7.8855028474171398)	(-6.720339935745125, -6.2492306864452045)	(-3.5051992744973388, 3.0760485976666985)	1.0	slash	0.878261
28	N	A	M	M					M	4	0	shapes	N	0	False	143	(3.9838249163515442, -6.2756288729357976)	(-3.9712006344594206, 0.75083255174510199)	(-7.1598285462625135, -7.919858831343471)	(7.9714172007790829, 5.6349135529627787)	1.0	slash	0.974411
29	N	A	A	M					B	4	1	shapes	A	0	False	143	(-8.7194932509889149, 6.751643646743485)	(6.8889667118459172, -3.9862908370412438)	(6.0458862329633938, 2.5409807482199973)	(-2.293450134850155, -4.2975848131102623)	1.0	z	1.02226
30	M	B	A	N	A	M	B	N	N	8	0	shapes	M	0	False	143	(1.0025479747645054, 1.0706021043199367)	(2.1014780319017916, -8.5526834493480468)	(2.6041135466462038, -4.2505139485577299)	(1.4059194328346702, 7.8214764191557471)	1.0	slash	1.37926
31	M	B	M	N	N	B	A	A	M	8	4	shapes	N	0	False	143	(-0.25899115626437919, 6.0238877908184172)	(-7.0424213575393635, 6.2269370223236411)	(7.5946187257832953, -0.94525032415888255)	(-5.3789371240391359, -1.4424353378920287)	1.0	z	0.882967
32	N	A	B	M	A	N	B	M	M	8	7	shapes	M	0	True	143	(-8.3527981259049522, -2.7601298285970248)	(-2.1239726552119578, -8.3108357185680095)	(8.2735693915948048, -1.1293159127233059)	(-5.5158102397056146, 5.4036559579329975)	1.0	slash	1.13477
1	N	B	B	M	A	M	N	A	A	8	7	shapes	A	1	True	143	(-0.61667412474177752, 4.160381614155332)	(-6.3527435706547966, -2.1441095055850594)	(-6.114886280275261, 4.7018843170367255)	(-3.7415421446259218, -6.8524253669321089)	1.0	z	0.800236
2	N	A	N	M	B	A	M	B	B	8	0	shapes	N	1	False	143	(-2.1745036693517541, 7.9393257258254692)	(-8.3582988890680987, -1.525352137879195)	(8.2435071724584539, 2.9419154352905039)	(6.6432018093929326, -2.0169400632751131)	1.0	slash	1.04375
3	N	B	M	M					M	4	3	shapes	M	1	True	143	(-3.1954855216221638, -7.3884802342443052)	(4.3935909376593738, -8.3227941772599809)	(-2.9740878546239671, 0.69832800309923115)	(7.8862355796184502, 1.4890665795250975)	1.0	z	0.854028
4	M	A	B	N	M	N	B	A	N	8	6	shapes	B	1	False	143	(4.9737466140866218, -3.0033011129063292)	(4.6294860839797281, 2.6343423850727348)	(-3.9912882325347638, 8.133053065082624)	(2.294461658496779, -6.9880412346489651)	1.0	slash	1.05525
5	M	B	A	M					N	4	1	shapes	B	1	False	143	(3.8923421144261461, -5.8311555565239894)	(-6.3859479100157381, -2.0535899408938736)	(-0.69413893826864381, 6.3892319990152604)	(5.7897663937546557, 0.40951014941300556)	1.0	slash	0.965328
6	N	B	M	M	A	N	A	B	M	8	4	shapes	A	1	False	143	(-0.97859296427716114, 6.0971890574762266)	(0.60005620354117184, -0.94717290302045942)	(-7.2167318045839863, -4.6628873042052259)	(-0.31416445224373923, -7.6005994250308646)	1.0	slash	0.782282
7	M	B	A	M					M	4	2	shapes	A	1	False	143	(6.5041774472851177, 7.041457866197435)	(-5.10596803514977, 8.2460822546382317)	(6.1532929453750178, -8.2948488591284359)	(-2.9465651889174191, -5.3746123005670441)	1.0	slash	0.756429
8	M	A	N	M	A	N	B	B	N	8	2	shapes	N	1	True	143	(-7.5656293353420967, 3.602548268614056)	(1.4703230985008435, -1.3666778248803171)	(6.3740751353538023, -4.3177162708103465)	(-3.3095862798791238, -3.9821063722257559)	1.0	z	0.911725
9	N	A	B	M	M	B	N	A	A	8	5	shapes	B	1	False	143	(-0.53874032418512918, -2.4171796149141747)	(-3.0825549867213171, 4.4744188817624675)	(-7.5904841142802821, -3.5128956847212134)	(1.6683129323988126, 1.7662687661811844)	1.0	z	0.707536
10	N	A	B	N					N	4	3	shapes	N	1	True	143	(8.2059512316285854, -2.2430603173638088)	(4.3261455739827603, 0.66522449266530792)	(-8.4720570587575654, -7.4303253710115564)	(-1.4661454836099619, 2.367121460457124)	1.0	z	0.927497
11	N	B	N	B	A	M	M	A	B	8	1	shapes	B	1	True	143	(-6.011216215978255, -1.0314372797552629)	(-1.2296645618048609, 6.2430518191910576)	(-7.6954831216759745, -5.5494842748497613)	(2.3574757530786918, 3.671121070670452)	1.0	slash	0.7285
12	N	B	B	M					M	4	2	shapes	B	1	False	143	(4.6399140927779392, -1.0731415507836788)	(-1.6068816923949649, 0.27190685941595838)	(-1.2087670283709437, -7.3352322004439214)	(8.2618052732226879, 3.2855663040419483)	1.0	slash	0.9362
13	N	A	M	B					M	4	2	shapes	M	1	True	143	(7.3793823843836108, 8.7303504891871242)	(-1.9006037585405595, -5.9825778686159019)	(8.2525167823597556, -6.6373518891681229)	(-6.0673815962704563, 2.0525249849873308)	1.0	z	1.10247
14	M	B	N	M	A	A	B	N	A	8	4	shapes	A	1	True	143	(7.648940928668079, 5.0882146395966501)	(-2.8314362455209103, -4.9950443833832567)	(-0.30403030531514119, 3.5775093104440483)	(-3.6627085554679981, 7.8562636591886097)	1.0	z	1.29951
15	N	B	M	A					B	4	1	shapes	B	1	True	143	(2.6593851787154481, 3.7261357930108865)	(-1.8991334951978036, -5.4339720973067882)	(-7.1537139903913021, 1.8788882209863544)	(3.0816196655717984, -3.3634675004079604)	1.0	z	0.873638
16	M	B	N	B	A	M	N	A	M	8	5	shapes	M	1	True	143	(-0.33426341851633978, -6.5683120358475175)	(-3.5891795901437131, -2.150100577823042)	(-5.5353736965365856, 6.7026857657048868)	(2.3093321493119632, 4.5857045275989243)	1.0	z	1.01277
17	M	A	B	B					A	4	1	shapes	A	1	True	143	(-0.61823358030633457, 8.2102146334963315)	(-1.0505923331551257, -2.558374392950145)	(6.3656283652075309, 0.11309715594693159)	(7.7256695934591448, -4.7514154708938108)	1.0	z	0.660979
18	M	A	A	B					N	4	2	shapes	A	1	False	143	(0.90905698738313845, -1.5686146657508653)	(4.9312898486817929, 5.4649512904077451)	(-5.3547134111881771, -1.5645089644395958)	(-8.3024468703988212, 3.4835789070348948)	1.0	slash	0.94455
19	N	B	M	N					N	4	2	shapes	M	1	False	143	(-1.1975753048725153, 8.28688119090436)	(-2.7154465758964133, -5.2340232054904714)	(5.6789218345748917, -6.2725063119178746)	(8.5888491499210495, 3.6133975569960928)	1.0	z	0.854438
20	M	B	M	N	A	B	A	N	M	8	4	shapes	A	1	False	143	(-4.4274553756370727, -3.9304289042824632)	(-8.4829749708626281, -2.0485997061028494)	(2.7738385065823703, -5.0786412035265247)	(-7.7712815022564907, 4.5195472047314649)	1.0	slash	0.695585
21	M	B	B	N	M	A	A	N	A	8	7	shapes	N	1	False	143	(7.1822268983866113, -3.8323741909415396)	(-5.6337636108061373, -1.623983320815082)	(0.79964913373336088, -6.7338140109235702)	(2.7796109579856338, 3.8811885247099021)	1.0	slash	0.855192
22	M	A	B	B					B	4	2	shapes	B	1	True	143	(6.6877624334711676, 3.1336636609166924)	(7.608362665925327, -8.3921410499346969)	(-0.054774320561826073, 5.9661090222117821)	(-0.26315006998424906, -6.6646908250201662)	1.0	z	0.847274
23	N	B	B	M	M	N	A	A	A	8	1	shapes	B	1	False	143	(8.6849495027042742, 0.045060569043878118)	(-1.2118463102371981, -7.3798795792037115)	(-2.8453485694307581, 5.5073372481119076)	(7.1949540376145507, 5.1205029805321711)	1.0	z	1.44083
24	N	B	N	M	M	A	B	A	N	8	0	shapes	N	1	True	143	(1.6346248913813248, 6.2570785501308777)	(-4.1690005265968901, -5.1866328790444385)	(-8.480452350894863, -2.20554367909926)	(6.4258304546951059, -2.0345960247182351)	1.0	slash	0.454034
25	N	A	N	B	M	B	A	M	M	8	7	shapes	M	1	True	143	(-3.7016439405071981, -5.5270341954785529)	(3.7010612290358864, -3.0660882947299726)	(6.4157568344678637, 7.7980789499397467)	(-0.49941589036593648, 3.0368921145502004)	1.0	slash	1.42766
26	M	B	M	A					N	4	2	shapes	M	1	False	143	(-4.1610458928691871, -2.0169025540523062)	(-6.0040881108028632, 3.4662835638753311)	(6.7127901901840126, -4.9899206567488967)	(1.5753959391118766, 7.1044616216242105)	1.0	slash	0.935748
27	M	B	M	A	A	B	N	N	M	8	0	shapes	M	1	True	143	(7.1551223139671016, 8.4667908958790008)	(-6.1843221521110152, 0.26772663994585244)	(-4.2538784669121794, 8.3885558126601403)	(4.8773892006345374, -1.2872476341965147)	1.0	z	0.678957
28	M	B	M	A					N	4	3	shapes	A	1	False	143	(-1.1644437821282247, -4.7522142423206457)	(7.1104901047685534, -1.3298751631910255)	(4.7829950763902538, 7.8494193243237902)	(-6.8069505164236155, 4.3506309558897733)	1.0	slash	0.969085
29	M	B	M	B					B	4	3	shapes	B	1	True	143	(-2.2087312925130496, -6.5778084043208338)	(3.3875321213433338, -5.3598218713336836)	(5.5868717759478947, 2.7470239521912525)	(-7.4610983566791624, 0.0043993191726254821)	1.0	slash	1.43271
30	M	B	N	A	B	N	M	A	A	8	4	shapes	B	1	False	143	(-3.1873431929624294, -8.656304088380308)	(-8.7430459853676439, 2.4217576906902902)	(2.421947170909446, -5.1733507896039796)	(7.3455310609198001, 6.3701644826830215)	1.0	z	1.09983
31	M	A	N	B					N	4	2	shapes	N	1	True	143	(-1.3365650369638145, 3.9592315046810018)	(-6.699601620242384, -5.9488274576723477)	(3.9124121400574481, -2.3458866682822617)	(2.3903329116222771, 7.3694561967226271)	1.0	z	0.777821
32	N	A	B	N					A	4	0	shapes	N	1	False	143	(7.4650901884128551, 5.8238289485222747)	(-0.42667543202983715, 4.7143771521218465)	(-0.62639332781284551, -1.4739706479392867)	(7.5914740682048532, -8.6242129029294983)	1.0	slash	0.67965
1	N	A	N	B	B	A	M	M	N	8	4	shapes	B	2	False	143	(5.4924811674181608, -1.5475065826287135)	(8.0657709278040564, 3.4932556474656415)	(1.4603292865088875, 4.0457056825400048)	(7.3924446232373136, -7.6875609310110926)	1.0	slash	0.884742
2	N	B	M	N					N	4	0	shapes	N	2	True	143	(-4.4661332802822624, -1.0470300359414697)	(8.7105579242282367, 5.5492130374646411)	(3.0986866283511691, -4.8003648717246339)	(-0.96434768760315315, 6.9186566179118216)	1.0	z	1.33472
3	M	B	M	N					N	4	0	shapes	M	2	False	143	(4.8005142422751685, -3.5714590730106393)	(-6.5285023045840171, 1.7176834751863002)	(-4.728255981745825, -6.5338161797187917)	(7.0390476941479463, 7.0271576751789286)	1.0	slash	0.702559
4	N	A	B	A	B	M	N	M	M	8	5	shapes	M	2	True	143	(6.2624456596288987, -8.7290933255035732)	(-2.5783554104517004, 3.6378794486428365)	(1.5321846934525389, -2.7086035166915332)	(-8.6929865310656034, 4.7031910316371839)	1.0	z	1.18031
5	M	A	A	N	N	M	B	B	M	8	7	shapes	B	2	False	143	(-3.3435511828534699, 7.3623993265703547)	(6.8382212138218819, 6.0558349996564882)	(0.60349352220822894, 3.6307284290330148)	(-4.2406927870209987, -4.8559765234641183)	1.0	slash	1.06779
6	M	B	A	N					B	4	1	shapes	B	2	True	143	(2.9540299182594882, 7.6021613251430615)	(-8.1259693621791858, -2.4346690078252173)	(7.9856513143925341, -7.8662101626764089)	(-2.8829213679463077, 0.51940615812604918)	1.0	z	0.889391
7	N	B	B	N					M	4	0	shapes	N	2	False	143	(6.253006894128605, -1.6254038334426957)	(-4.2914874821072484, 3.786726027197723)	(-2.7525313974015786, -2.071893061594098)	(5.9096592369730718, 5.1359470489018317)	1.0	slash	0.953157
8	M	B	M	A	N	N	B	A	B	8	6	shapes	B	2	True	143	(8.5855281419860496, -7.7378330725992548)	(-7.0934395457090549, -0.88408061079457667)	(4.5479305754954726, -2.0171489809187104)	(-4.394331497462181, 6.2791727389986214)	1.0	slash	1.38791
9	N	B	N	B					A	4	2	shapes	N	2	False	143	(5.4000944564343527, -6.1415241431343546)	(1.4684666574257079, 4.3810634566821633)	(-8.1356442362261081, 6.7438906246221464)	(-4.1038544938751125, -5.5532770385005037)	1.0	slash	0.967723
10	M	B	B	M					M	4	0	shapes	M	2	True	143	(3.9413658587863178, -2.5628890270707352)	(-3.2045203779262295, -6.0139031096584059)	(-0.53001829820605195, 0.26962367170703772)	(8.6184501063135421, 4.394291686243605)	1.0	z	1.09534
11	N	A	A	N					M	4	1	shapes	A	2	False	143	(-3.2332651654556566, 6.5184564259027358)	(2.3322699685873047, -2.9198537036918708)	(7.4104591776273807, 5.9622830025373172)	(-8.5188577934233027, -3.7567991677390529)	1.0	slash	0.767127
12	N	A	N	A					N	4	0	shapes	N	2	True	143	(-0.98895496465135757, 0.71189380950212566)	(-3.9377557879938188, -4.9724116595602403)	(2.4346368582110305, 3.4425522107526998)	(3.4830164441441944, -5.0062351282010367)	1.0	z	0.793321
13	N	B	M	A	A	N	M	B	M	8	7	shapes	B	2	False	143	(0.45783128253286165, -5.6742415689608805)	(7.8562941100775383, -6.082044091126968)	(-3.9654922681577283, -8.5959113861373595)	(-7.0285504444130353, 8.3458994167480114)	1.0	slash	0.764339
14	N	B	N	M	M	A	A	B	M	8	1	shapes	B	2	False	143	(-7.736489016669168, 0.32612623314869893)	(-3.4166303016843003, -3.0389921970855731)	(4.0112511323039541, 0.85237934558300843)	(6.8704039587837933, -6.5111833111483417)	1.0	slash	0.574197
15	M	B	B	M	A	A	N	N	M	8	0	shapes	M	2	True	143	(1.5541490942248988, -4.7954500010955901)	(-7.9004308245933323, 5.5276083390345221)	(-4.3106529567149074, 3.1893953697974631)	(6.2987345054424289, -2.797582715266401)	1.0	z	0.679764
16	N	B	M	B					A	4	1	shapes	B	2	False	143	(0.22413306008914269, 0.71590064971977085)	(4.6381134639044266, -1.9772082556669677)	(-5.8328751179937024, 4.4130163439427239)	(-2.5044730991868533, -5.970025807003406)	1.0	slash	0.745404
17	M	A	B	A	B	M	N	N	A	8	0	shapes	M	2	False	143	(5.2801063740571443, -5.1321357348113397)	(3.1025020513698429, 8.5250695317478282)	(-0.28873803143361521, 4.5937691101304772)	(-8.3331824223256596, 7.8907723375643926)	1.0	slash	1.11976
18	N	A	A	N	B	M	M	B	B	8	1	shapes	A	2	False	143	(6.3030515943313716, -4.0219638259627759)	(4.279438448126875, 3.2496069309464559)	(-6.6596737739451832, -1.8690578024587987)	(-2.0996892104970382, -7.4964535337311888)	1.0	slash	2.17936
19	M	A	B	A					A	4	1	shapes	A	2	True	143	(3.3332119745872042, 4.2094748913473445)	(6.2416332627458662, -0.3636203106398348)	(-2.7500650487853502, 1.0288047282384873)	(-6.1927093142854499, -7.9554376568407186)	1.0	z	0.720155
20	M	B	M	B	A	A	N	N	N	8	3	shapes	B	2	False	143	(-2.2164074937488314, -1.8522708645988084)	(2.8516557670405902, -6.3222116811398985)	(7.9272869930888916, 0.29494743849781635)	(8.2089096218707169, -8.4557746736481807)	1.0	slash	1.14601
21	M	B	N	N					N	4	2	shapes	N	2	True	143	(2.673711026323474, 3.0712941394825215)	(-3.9841413377083121, 4.6578477059870238)	(-7.319891004855676, -5.6737928250470695)	(3.160063904828446, -3.2698732516301297)	1.0	z	0.912114
22	N	B	M	B	A	M	A	N	B	8	1	shapes	B	2	True	143	(0.74639479533438546, -3.5859067405145089)	(-8.2858473686247738, -1.9319968972251456)	(1.6868098680531141, 6.0920294180053922)	(-3.7307281708242872, -2.3157882702700689)	1.0	slash	1.30975
23	N	A	B	N	A	M	M	B	N	8	0	shapes	N	2	True	143	(-0.41543438602681704, -4.2515433887330607)	(8.3007455554593541, -2.0133586074261389)	(-5.8965604027683565, 1.1448406979613672)	(6.4704988708950637, -7.3214497419995883)	1.0	z	0.795423
24	M	A	B	M					M	4	3	shapes	M	2	True	143	(-6.709443091967243, -6.2657968437563083)	(-3.3269712354945744, 3.326484907565705)	(1.7958696917942127, -1.3148398770452792)	(1.9226065304683306, 4.9441018731377344)	1.0	z	1.05511
25	N	B	A	A	N	M	M	B	A	8	3	shapes	A	2	True	143	(6.7679627427786855, -2.2602964928009843)	(0.030671579296207341, -4.9379233328159149)	(3.2632540533039744, 3.5685447388188134)	(-4.7936788340705574, 7.5360521501136262)	1.0	z	1.26471
26	N	B	N	B	M	M	A	A	N	8	5	shapes	M	2	False	143	(0.46586741445391411, 3.4882145555256443)	(4.4087012520637501, -8.4622696798548471)	(-6.9879159185181052, 7.2321230222661708)	(-7.3802362064160141, -3.6317588561217642)	1.0	z	0.733587
27	M	A	A	N	B	N	M	B	M	8	6	shapes	M	2	True	143	(0.20359796042363598, -1.6837878828416839)	(-5.2012687569640654, 5.1034649550704589)	(3.0284475416696441, -4.8241283779938797)	(6.6974844792289829, 2.7799724465324775)	1.0	slash	1.62193
28	N	B	B	N					M	4	1	shapes	B	2	False	143	(-5.2702006339860974, 0.89199164022946853)	(4.6836539384991323, -5.5608743305358619)	(3.3395415254110414, 4.2912587476717778)	(-6.8768992539925522, -7.7067735266297799)	1.0	slash	0.763549
29	M	A	N	B	B	A	N	M	M	8	0	shapes	M	2	True	143	(1.1264441435920443, -6.4899742756378114)	(-1.2497188138977853, 1.6568478263494182)	(5.3846780046119829, 1.5241285409646714)	(1.4369233342423424, 5.523499228837446)	1.0	z	1.40481
30	N	B	B	A					B	4	3	shapes	A	2	False	143	(0.95139224178829807, 4.5786726995501876)	(-0.32959978445903459, -3.4917440033184262)	(2.0682082730200833, -8.337636692779105)	(-3.1345031793726772, 8.2168161286672827)	1.0	slash	1.1027
31	M	B	B	A					B	4	2	shapes	B	2	True	143	(-1.5706944311850251, 7.2232044962200117)	(3.550729066111856, 2.0623948020510774)	(5.0874882961688783, -3.1893066070628313)	(-3.5464089442049564, -2.4065981444120146)	1.0	z	0.796292
32	N	A	M	A					M	4	0	shapes	N	2	False	143	(0.11623485815822043, -7.0912397825265288)	(-5.6859108705706563, 1.5013251535191294)	(8.4734385942264083, 0.60894637394212836)	(-8.0726327269197764, -8.153129392911044)	1.0	slash	0.280047
1	N	A	A	B	B	M	N	M	M	8	5	shapes	M	3	True	143	(-3.8345931525433903, -7.0425117662559007)	(-6.2172897776485012, -1.6214830137283807)	(-3.5948453711340003, 8.3406868176887023)	(-8.718099508454813, 3.0226209402784416)	1.0	z	0.825201
2	N	A	A	B					M	4	3	shapes	B	3	False	143	(7.1261666757283209, 7.406340913128993)	(-8.3713773975853201, -4.947324215000144)	(-1.6750211523751259, 3.2921342628812251)	(1.9860052903921872, -5.7012420074665506)	1.0	slash	0.815435
3	N	B	N	A	M	A	M	B	N	8	6	shapes	M	3	False	143	(1.5183707552682471, 1.3083442317666236)	(8.6484486361455915, -2.0820118809796933)	(-0.84323399629042051, 8.262586828715385)	(-4.1339774286614617, -0.44753968738038452)	1.0	z	0.800372
4	M	A	N	A	M	N	B	B	M	8	4	shapes	M	3	True	143	(-3.0970559587964974, 7.0905717257440415)	(-7.3188865834713921, -4.8710175813328167)	(4.0937502079092436, -7.1647659005040536)	(5.3035448980974156, -2.0162008786726879)	1.0	slash	1.03618
5	M	B	B	A					A	4	0	shapes	M	3	False	143	(3.3858311133135182, 1.2506110230165266)	(-5.0011807513703168, 4.001154921267597)	(-6.0082087932442167, -1.2408536768847416)	(0.1322799831064021, -1.48965790355214)	1.0	slash	2.45625
6	N	A	A	B					A	4	0	shapes	N	3	False	143	(-5.0152675729348362, -3.6827403518498878)	(-7.9306407971714332, 1.5159657383680241)	(8.5169843358908643, 8.5627699362035941)	(7.1060870239524618, -4.7914172927721914)	1.0	slash	1.14398
7	M	A	N	B					N	4	2	shapes	N	3	True	143	(5.7458589736653636, -3.2778037870741175)	(-4.5496549854583259, 7.3851600448749757)	(5.0802209215776788, 3.3662418836927781)	(-3.8535409662509164, -6.6052044635877367)	1.0	z	0.828858
8	N	A	M	A	B	M	N	B	A	8	7	shapes	B	3	False	143	(0.41657551674221693, -8.4732790275774228)	(-2.2079230841702628, 0.27834489343302593)	(3.0761078555799823, 0.26017015444402425)	(-3.9608971154046975, -5.7327493377601471)	1.0	z	2.06929
9	N	B	A	A					N	4	0	shapes	N	3	True	143	(1.6570238433149349, -6.1779866713032572)	(-2.4181619625306547, -0.32639707656317363)	(-6.1390314820174829, 6.2873388326845703)	(2.4587539057708465, 4.5954396141794494)	1.0	z	0.856081
10	N	A	A	M	B	M	B	N	B	8	0	shapes	N	3	False	143	(6.4626887394670547, 4.4619465674850236)	(-0.10741937476719343, 2.8737449283544283)	(-8.4801607219397468, 4.0404778231181755)	(-6.0020967772492639, -7.8032262892936703)	1.0	slash	0.927759
11	M	B	M	N					B	4	1	shapes	B	3	True	143	(8.2282750671608547, -7.8790346561947109)	(-2.0209872201617056, 6.5816438617047623)	(-5.3795699604673075, -8.0324344903234)	(6.2228888837200742, 5.5357043817200697)	1.0	slash	1.36778
12	M	A	A	B					A	4	1	shapes	A	3	True	143	(4.5649071077383052, -8.29100232566263)	(-7.7059396330041885, -1.5717820844375332)	(1.6874781697147334, 4.2705549175448194)	(-3.4352403151962951, 6.0304331824440442)	1.0	z	0.967671
13	N	B	B	A					B	4	3	shapes	A	3	False	143	(1.7910476247994982, -3.6829376562124585)	(0.020131067594730823, 6.9597734686829842)	(-3.1866636426013297, 3.4722601950036918)	(-7.1348184806031725, -0.15967569840933926)	1.0	slash	0.841128
14	N	B	M	M					N	4	1	shapes	B	3	False	143	(-2.8256189706524353, 5.427766860765912)	(-1.9105576198606666, -8.3784033135208791)	(5.7697255368385036, 7.3963628961046091)	(3.8542740581376655, -6.1257521223992013)	1.0	slash	1.16228
15	M	A	A	M	B	N	N	B	M	8	3	shapes	M	3	True	143	(1.3291842212857201, -0.8772479526132777)	(5.8919733715389206, -7.8187119379853627)	(-5.4201931937864725, 7.0147788265456406)	(8.6497957851001743, 5.5585327003690512)	1.0	z	0.891986
16	M	B	M	B	A	A	N	N	B	8	2	shapes	M	3	False	143	(8.296595167313356, -4.8706259782566255)	(0.17569620682761311, -7.6162215652443761)	(-6.2148973076866145, 4.8613646898897365)	(2.4417154648420922, 1.1643638044004252)	1.0	slash	1.0035
17	M	A	N	N					A	4	2	shapes	N	3	False	143	(8.3764240625136424, 0.5350239710225182)	(1.9918483726120062, -6.5810466272643282)	(-3.1357706408991124, 4.7889327446355807)	(-3.1761524124297482, -3.2642589078540158)	1.0	slash	0.653783
18	M	A	N	N	M	A	B	B	A	8	1	shapes	A	3	True	143	(8.2470698705253831, 6.3014565451245996)	(-3.7654658826060228, 3.1467661693666731)	(0.56027544708037524, -2.6155076724376549)	(2.7733661127663307, 4.6591370575149806)	1.0	slash	1.67343
19	N	B	N	M					B	4	2	shapes	N	3	False	143	(3.4753111113278248, 4.2402847645720207)	(6.834659087595794, -8.2024445841490792)	(-6.2793417085498318, -3.0651921592228399)	(-5.4499799177560417, 5.487158366339667)	1.0	slash	0.923017
20	N	A	A	N	B	M	B	M	M	8	5	shapes	M	3	True	143	(-3.5115892722300783, 2.8290959003557408)	(-3.9963232758043361, -1.2421398162453379)	(6.0922051781603486, 3.8583634514789704)	(-8.2784072528828716, -1.2699767806058144)	1.0	z	1.104
21	N	A	B	M	M	N	B	A	B	8	2	shapes	B	3	True	143	(7.2098766123753677, 1.2608413669025396)	(0.40582573641726327, 4.0669723918423006)	(-2.3920234062641557, -3.8226349059886493)	(-2.1741774759563564, 7.7120883207301851)	1.0	slash	1.13356
22	N	A	M	N					A	4	1	shapes	A	3	True	143	(0.28702443877996409, 6.2840437334245571)	(8.3815176207652478, -2.9624883239936048)	(-0.85223197513857318, 1.8972428427446211)	(-2.7371071221789043, -6.0451597170097955)	1.0	z	1.06192
23	M	B	N	A					B	4	1	shapes	B	3	True	143	(5.5678287189119899, 5.4305501092335984)	(-4.1809408042653189, 3.6103076559978238)	(-2.0215453298700155, -4.8572214547597543)	(5.964239488493881, -6.7710718464506794)	1.0	slash	1.95544
24	M	A	N	B	N	B	M	A	A	8	6	shapes	M	3	False	143	(-0.62089798583639855, -6.9877632813095474)	(-5.4575216553474384, -0.794048950036923)	(-2.5249619447230707, 5.7442744369003531)	(-7.858392535680391, 6.1959606558495501)	1.0	slash	1.23066
25	M	B	A	B	A	M	N	N	N	8	7	shapes	N	3	True	143	(1.5583948530125316, 7.0417248585328132)	(-2.7626928509881834, 3.1500601385796489)	(5.7698515993500745, -1.1619867986227872)	(-0.58861695160923766, -4.997883698653947)	1.0	z	1.16408
26	N	B	A	B					N	4	2	shapes	A	3	False	143	(1.1482753595595039, 0.24646241279147674)	(7.817963447772847, -0.090613804041264956)	(-0.84697801939671535, -6.2070982538277839)	(-7.1402291712809651, 8.1415073841992616)	1.0	slash	0.958283
27	N	B	A	A	N	B	M	M	A	8	1	shapes	B	3	False	143	(1.8320299001195171, -2.8352504908447989)	(5.3129642097841412, 8.6838033622543414)	(-5.1264101801006063, -4.306781442041772)	(-1.515827826444232, 0.2585827330860333)	1.0	z	1.18544
28	M	A	N	B					M	4	0	shapes	M	3	True	143	(-1.6065768404438634, -4.2363556723380968)	(-0.042642629046486746, 8.3039544817721911)	(6.1626897955352877, -2.7875985188370072)	(4.3580035995096882, 6.5237364105531164)	1.0	z	1.20718
29	M	A	B	B	M	N	A	N	A	8	6	shapes	A	3	True	143	(-6.9283666343423436, -7.3699307467924493)	(1.7110863322399616, 5.940498938045673)	(4.6050457451784492, 2.9618536225806764)	(-8.4696068732147971, 2.2188449585832828)	1.0	z	1.08264
30	M	B	B	A	A	M	N	N	M	8	2	shapes	B	3	False	143	(0.34925982448985771, -5.937556495331668)	(-3.6494696302571032, 8.6908938272588792)	(8.7215302507441095, -4.6186176376783479)	(-7.0265280670195898, 2.3923254201251165)	1.0	slash	1.80631
31	N	B	A	M					A	4	2	shapes	A	3	True	143	(-4.0028466560379385, 7.0164585062647014)	(-4.1048857510980081, -0.81583357362396303)	(3.9179295199660409, -2.2807871671060553)	(4.4760164604733976, 6.3794811419763473)	1.0	z	0.952405
32	M	A	A	B	M	B	N	N	N	8	0	shapes	M	3	False	143	(-7.5020125308183978, 4.903126830725844)	(-4.5628455322475316, 1.2241270392129522)	(8.5974819252680881, -5.1858249077416625)	(-1.557429191643446, -2.5221319437712895)	1.0	z	0.941541
1	M	B	M	N					A	4	2	shapes	M	4	False	143	(2.3950787326264127, 1.2189182840344639)	(7.6355363428777032, -1.831613021314479)	(-0.99270890336616713, 6.4553876097583718)	(-2.2694432329681851, -1.7121011312997219)	1.0	slash	0.699012
2	M	A	N	M					M	4	0	shapes	M	4	True	143	(4.3743533600362774, -5.4308021049939388)	(2.4622664501796976, 5.2637495946428245)	(-3.8237785196512037, -2.0099610326743784)	(-4.7281992674500701, 8.1657554699014732)	1.0	z	0.895387
3	N	A	B	A					B	4	2	shapes	B	4	True	143	(-1.538098891180292, 7.4958523021515262)	(-5.5038339839958326, -6.9463475213331378)	(5.7700077179747016, 3.949055450778479)	(1.7172798279484915, -5.5715772959240315)	1.0	z	0.735029
4	N	A	B	B	A	N	M	M	B	8	2	shapes	B	4	True	143	(-4.0848503738565416, -7.9800267313788176)	(-2.6918616568270473, 2.8473382149272375)	(-7.023750945789546, 6.8986639182697509)	(6.8457671767631219, -4.5343883663691082)	1.0	z	0.88814
5	N	A	N	A					M	4	2	shapes	N	4	False	143	(-5.9283147969729679, -6.0967575200933108)	(0.34469941752761102, -2.9624146671621947)	(2.6188486265531719, 8.4571084657530662)	(-2.3912429976859988, 6.3893142118554813)	1.0	z	0.7834
6	M	B	B	M	A	N	N	A	B	8	3	shapes	M	4	False	143	(6.1591549340557687, 7.7268887172473981)	(3.6975636305581823, -0.43605506585026887)	(-5.5074965785881833, -6.2731921861792017)	(-4.7287028031886447, 2.5238718833666081)	1.0	slash	0.671439
7	N	B	A	A	B	M	N	M	B	8	1	shapes	B	4	True	143	(-4.5305401646025967, -4.39154155511957)	(-8.0782362145525912, 2.9369728214479558)	(4.1299458843008701, -7.6752085070911473)	(5.0213384255100131, 1.1933640872805977)	1.0	slash	1.70895
8	M	A	M	N	N	B	B	A	A	8	1	shapes	A	4	True	143	(1.954190504254246, -8.3417265206899458)	(8.4367364856169829, 2.2063598074128663)	(4.5121943797796433, 0.7215695947778098)	(-2.1224253662581711, -1.3438120125064072)	1.0	z	0.683112
9	M	A	A	M	N	B	N	B	A	8	6	shapes	N	4	False	143	(4.1459424179934548, 4.0600251781654642)	(-2.1338883844367924, 3.9685161697202407)	(-3.6983727596993567, -3.241444691792168)	(8.6708836842495174, -0.69480306033598893)	1.0	slash	1.3108
10	N	B	M	N	A	B	A	M	N	8	7	shapes	M	4	False	143	(-8.3109164140730982, -6.6520313150597579)	(-5.6310164177271966, 2.1419804261021156)	(0.50423663158483478, 6.0192132518979076)	(8.6590946035987422, -3.5268146023379092)	1.0	z	0.821958
11	N	A	B	M					N	4	0	shapes	N	4	True	143	(-0.47709221941045321, -0.052247760270734744)	(-5.0729499058945962, 1.1280150559331172)	(7.3652336219934185, 8.4000040231498403)	(0.59215228065055214, -6.8314585486124759)	1.0	z	0.459688
12	M	A	M	B					A	4	1	shapes	A	4	True	143	(5.3096079245785042, -6.9014845451107307)	(1.7716239053615226, 7.0008302802413009)	(-0.87118684676120317, 1.695555554811655)	(-4.9265027180906173, -7.3563479609578302)	1.0	z	0.793947
13	M	B	B	M	N	A	A	N	N	8	1	shapes	B	4	False	143	(2.8629447897711078, 1.4337312874315078)	(-7.2615186236233935, -8.1377506714547643)	(-5.7701489701058737, 6.9033316724621265)	(8.1446637075876289, 8.652504766604725)	1.0	slash	0.982767
14	N	B	A	N	M	B	A	M	B	8	0	shapes	N	4	False	143	(3.7430527874412594, 1.1005129739274739)	(-0.34712120802748814, 1.4869233060410689)	(-3.170698172005137, -6.3342941185767128)	(-5.5912899940738221, 4.0508760439706091)	1.0	slash	0.876542
15	M	B	A	A	N	B	M	N	M	8	0	shapes	M	4	True	143	(7.40534472416455, 1.5056081927868927)	(0.52857207751867819, 5.8644457459248542)	(-4.9917065578779027, -3.8416568657285204)	(0.6982739122885615, -6.39422988929869)	1.0	z	0.704332
16	N	B	N	M	A	M	A	B	A	8	6	shapes	A	4	True	143	(-8.1853996762007259, -7.2742945710535114)	(-8.3333629227905384, 3.273266645184572)	(1.6393433155439077, 7.8265538397636369)	(7.7953249314948998, 3.4572256074231245)	1.0	z	0.724074
17	N	B	B	A					A	4	0	shapes	N	4	False	143	(-5.7554801513111808, 0.90120510953151012)	(1.8881291223601266, 8.7370170776585425)	(-3.4970155095698479, -6.2062911501484557)	(0.99696931095548535, -4.067957390791217)	1.0	slash	0.830053
18	M	A	A	N					N	4	1	shapes	A	4	False	143	(6.8300564707422495, 4.7732445748160526)	(-6.857854671608747, 3.4494132980853873)	(0.16845372742591991, -0.31447141754257224)	(-5.7228508745195272, -6.4838712379036512)	1.0	slash	1.28172
19	M	A	B	M					M	4	3	shapes	M	4	True	143	(7.9227500684721264, -3.9158802154883618)	(-7.2349874864301098, 3.4328975645287194)	(5.0392976341384248, 3.5934818596792528)	(-3.0642125175876327, -7.884737379886519)	1.0	z	0.715214
20	M	A	B	M	B	A	N	N	M	8	2	shapes	B	4	False	143	(-4.1124191629905678, 2.4357648727881323)	(-3.6587376656003823, 8.3189429335517708)	(8.4961970872503976, 1.2406856319682493)	(0.78502926976706178, -1.9777227794568102)	1.0	slash	0.710187
21	N	B	N	A					B	4	2	shapes	N	4	False	143	(-6.7292762962995365, -5.556896362215312)	(7.5556125050756791, 3.1741632346329833)	(1.4478631459940008, -0.047260745073691268)	(-5.0655197322949768, 6.3698021079185043)	1.0	slash	0.658784
22	M	A	N	B					B	4	3	shapes	B	4	True	143	(5.9968576908804216, 4.29072383047383)	(-4.4943370046642581, 4.2280482294849087)	(3.6912544311955386, -4.2566997309185135)	(-7.6361844810556523, -4.7793589609354852)	1.0	slash	1.06432
23	N	A	M	N					B	4	0	shapes	N	4	False	143	(-2.1535374823944897, 7.6180555755047479)	(-4.9919144107362303, -7.8222133032699954)	(4.7636137567467856, -4.7780391221983152)	(7.9071564217738022, 6.5432805068388102)	1.0	slash	1.02968
24	N	A	M	N	B	B	M	A	B	8	5	shapes	B	4	True	143	(-3.0392288226815882, -1.6064520507008391)	(7.4534152712225143, -8.4142035646193793)	(8.6919261482556998, 1.5255404381063897)	(-6.1188592391648822, -8.1725703424152716)	1.0	z	1.24552
25	N	A	N	M					B	4	2	shapes	N	4	False	143	(-3.5203590058627379, 2.5702226255732956)	(2.2848534276159587, 6.1332376296024282)	(1.0609389525975867, -0.67540409718197481)	(-2.9114946397737187, -5.2233313784610793)	1.0	slash	0.863221
26	N	A	A	M					A	4	1	shapes	A	4	True	143	(-6.3333806539795443, -5.5565014330953604)	(1.8875490635400602, -8.000974982522564)	(3.2419817813873006, 3.0878869455746223)	(-5.3736376834144846, 5.7361484720208509)	1.0	z	1.22091
27	M	B	N	B	A	M	N	A	A	8	7	shapes	A	4	True	143	(-1.2342603707591122, -6.0302726235703386)	(5.3063575181334173, 6.1799605070089907)	(-2.6349757560618423, -0.25896268068591155)	(6.3700560833562712, 0.123455371658034)	1.0	slash	1.50009
28	N	B	N	A					N	4	0	shapes	N	4	True	143	(3.6682802531764427, -4.3365361077222691)	(-0.82998603357133405, 2.0140830633595197)	(1.234064283016945, 8.1972979040857012)	(-1.5302488301094437, -6.4547553363967474)	1.0	z	0.559968
29	N	A	M	B	B	M	A	N	A	8	0	shapes	N	4	False	143	(-0.37132755530469375, 5.4502307040915827)	(-1.5840652951301877, -7.8562718502462232)	(6.3800471242179579, -5.2256479640702516)	(2.3856169691288223, 2.1527817878392081)	1.0	slash	1.02928
30	N	B	B	N	A	A	M	M	M	8	7	shapes	M	4	True	143	(2.2211733208696369, -6.1111692456997382)	(0.91234337969486212, -2.2695625182734585)	(2.4418776030058318, 2.7080985548748959)	(6.3242176329086792, 0.14770914767741772)	1.0	z	1.211
31	N	B	B	N					A	4	0	shapes	N	4	False	143	(-5.8918497246039685, -5.5394533684491103)	(0.38448654703426222, -6.0328139364316513)	(-6.9701402947075488, 8.6383614378645106)	(6.8465412040054616, 3.5110794230004476)	1.0	slash	0.769122
32	M	B	B	N	N	M	A	A	B	8	6	shapes	A	4	False	143	(-6.8589423434568229, -5.1156958858795303)	(8.0057982459617953, -1.0328643133580035)	(-7.0619358704540574, 2.2048716170318787)	(-1.8369095872832117, -3.214571403320118)	1.0	slash	1.17832
1	M	B	M	B	A	A	N	N	B	8	1	shapes	B	5	True	143	(-6.3416099060340523, 3.517972882268257)	(-7.9217069159787012, -5.4091965849698056)	(7.9001573967333805, -7.3221590476260303)	(-1.8511290567450942, -6.5545669471117272)	1.0	slash	1.65435
2	M	B	M	B					B	4	3	shapes	B	5	True	143	(7.2750998170436141, -7.8151671901446562)	(-2.1152092041816024, -3.3767351750516603)	(-7.6620812556642424, 5.6815919567334223)	(6.0701825972347851, 5.0286127424133422)	1.0	z	0.717897
3	N	B	A	M	M	B	N	A	B	8	2	shapes	A	5	False	143	(8.0816167517031197, -1.510567704032491)	(-2.4116416828520792, 5.1889421075380113)	(2.8304842179685714, 8.1398237746942179)	(-3.2795365023687921, -5.2203052388024433)	1.0	z	0.954925
4	M	B	N	M					B	4	0	shapes	M	5	False	143	(-6.4952073092593752, -1.9099327408133364)	(7.8088624839134013, -5.4721474490165356)	(3.5131851045169995, 8.1602663465834304)	(-6.5283361916685489, 6.4499188143714541)	1.0	slash	0.846699
5	N	A	M	A					N	4	1	shapes	A	5	False	143	(5.0796829813263464, -5.2521142357670225)	(-7.6099738082935282, 6.7265640516561795)	(4.942025708407817, 1.7775760225508623)	(-2.210478448190174, -0.32194697403429906)	1.0	slash	0.926565
6	N	A	N	M					N	4	3	shapes	M	5	False	143	(-6.7430767981989863, -6.3782913442607052)	(5.0225057569792746, 7.1933547539229146)	(-2.5245006838681601, 4.2782261386565956)	(7.2466230255249453, -8.5096047673163557)	1.0	slash	0.640491
7	M	B	A	N	N	M	B	A	B	8	6	shapes	B	5	True	143	(5.8713879322349314, 1.7908567022714976)	(4.2409231449542393, -8.1749883800955132)	(-8.2390411952630647, 4.1836764924177778)	(0.0034960649510260566, 3.3602007157494498)	1.0	z	1.50771
8	N	B	A	B	N	M	A	M	B	8	1	shapes	B	5	True	143	(6.6105080990469727, 1.6466767630665888)	(-6.4358513602268497, -3.1400042579847689)	(1.6937154127471832, -0.42395015903285049)	(-4.3132766228716397, -7.533129532781162)	1.0	slash	1.6013
9	M	A	N	B					N	4	1	shapes	A	5	False	143	(5.7767143973904478, 8.0239866316625346)	(2.618448493465138, -3.5428938424142586)	(-8.2222400689420869, -4.2890146958249051)	(-4.4352654870907884, 5.2837043965163186)	1.0	slash	0.739614
10	N	B	N	B	M	A	A	M	A	8	3	shapes	B	5	False	143	(-1.0971095587099402, 4.9219858208624956)	(0.45265780121350829, 1.0137559914239684)	(2.7515896147498271, -7.0324643975120766)	(4.6527365785917052, 2.7782223546410449)	1.0	slash	1.08846
11	N	B	M	B	M	A	N	A	N	8	4	shapes	M	5	False	143	(-1.6075379987249443, -2.1256629958635678)	(8.7005950113432071, 6.9561012866885292)	(7.0013217818790121, -6.4780887739711437)	(-3.8191021691659062, 7.4796038979316073)	1.0	slash	0.674181
12	M	A	M	N					B	4	0	shapes	M	5	False	143	(8.4127284464134249, 4.0012727942883703)	(-6.7363385490466312, 5.188991269974677)	(5.3485215879938437, -6.7404432160650671)	(-5.4318779104336592, -0.90168581492301136)	1.0	slash	0.700209
13	N	B	N	A					N	4	0	shapes	N	5	True	143	(7.4956731418418912, -0.95085240451300379)	(4.6269341194817368, 6.4053913113059089)	(-3.6889922151216199, -7.1714027502653845)	(-3.7846514867801364, 4.0583143814518472)	1.0	z	0.753879
14	N	A	B	N					A	4	2	shapes	B	5	False	143	(1.5377623295603193, 7.4359798347076769)	(-1.2187935326911417, -4.3554973371928778)	(5.6167393318564791, -7.676105740182944)	(-5.4151842306456768, 0.24659406642724946)	1.0	slash	0.989564
15	M	B	M	N	A	B	A	N	B	8	4	shapes	A	5	False	143	(6.1393103044912394, 5.5667496068247484)	(8.4975312579026259, -1.8111025375449508)	(-1.2975609529996515, -3.3456639697071431)	(7.3786283342710597, -6.0296641825775943)	1.0	slash	1.18074
16	M	B	A	B					M	4	0	shapes	M	5	True	143	(-7.2088477336400487, -0.37027020590201865)	(3.445992306874496, 1.6980710212069905)	(-3.5568294272817518, 4.4878973217330937)	(7.1549685501150933, -4.9406277545758401)	1.0	z	0.874157
17	N	A	A	N					N	4	3	shapes	N	5	True	143	(-6.5606041485578768, 3.7224231006109765)	(-0.35438071620036204, -0.47385223999046922)	(4.9640736855909378, -5.1745727463342082)	(6.0272324410856051, 6.2256353391217818)	1.0	z	1.23647
18	M	A	B	B	N	M	N	A	M	8	4	shapes	N	5	False	143	(-3.5792217002058813, 4.2509264854889732)	(-1.1269183511158412, -2.5365120606037292)	(0.93966524299622556, 2.6168759129007952)	(-5.9364665721986007, -2.9478484086923844)	1.0	slash	1.50955
19	N	A	A	M	M	B	B	N	B	8	6	shapes	B	5	True	143	(-5.9593415304013737, -8.6274918964805867)	(8.0228714643345178, -0.90531782220208701)	(7.6977817156387829, 6.9799859507080697)	(-2.768519379724057, -0.066730547887049241)	1.0	slash	1.28527
20	N	A	M	N					B	4	1	shapes	A	5	False	143	(0.5265355514625476, 4.9229524471669848)	(-5.7017806741849384, 3.137800951722193)	(-3.4739710508126027, -1.5167455007767163)	(2.7031949613639306, -2.2214709670186714)	1.0	slash	1.1086
21	M	A	B	B	A	M	N	N	A	8	0	shapes	M	5	False	143	(-7.6536236173185443, 7.0941577251303105)	(2.5653976802187515, 4.3880706527883397)	(1.5427615756525999, -6.6741423391823176)	(-8.3981621485329789, 1.6812715866514818)	1.0	slash	1.18901
22	M	A	N	N	A	B	B	M	A	8	1	shapes	A	5	True	143	(2.0969455163265263, 0.86577066952782111)	(-2.9006226401853148, 6.5154471457161414)	(7.6881196501531512, 4.6511008003050627)	(-6.8806671258136429, 5.0955134567753291)	1.0	z	1.11675
23	N	A	M	N					N	4	3	shapes	N	5	True	143	(-6.9690827338349219, 1.8952097691248664)	(2.565009621107416, 4.2353153850317415)	(-6.2038812297470489, -2.2368558719527716)	(8.4102746574082552, -3.2701620417918456)	1.0	z	0.61616
24	M	B	N	A	A	N	M	B	N	8	5	shapes	N	5	True	143	(3.1074730331763263, 1.7111182633684248)	(-0.58270567233175186, -7.498223818703563)	(8.4492999591744677, 5.4205911877376174)	(-0.45433091157846484, -1.709971483789678)	1.0	z	1.05549
25	N	A	N	M					N	4	2	shapes	N	5	True	143	(-5.6873278942426762, 7.8595233735460788)	(2.5324905500228763, -1.6066750986146037)	(4.2771942950755157, 2.0994718741742098)	(-3.8861610871882188, -5.5090350776757386)	1.0	z	0.951544
26	M	B	A	A	M	N	B	N	N	8	7	shapes	N	5	True	143	(2.3315520711214042, 0.12498064293160738)	(-4.2382688521174634, -8.0717410841511743)	(-7.1564311419434885, 4.5173949566112981)	(0.2916493395097568, -5.608686782874833)	1.0	z	0.956625
27	N	B	A	A	B	M	M	N	B	8	4	shapes	B	5	True	143	(5.0879112332124841, -0.29606911230007249)	(0.72512391827123324, -6.9390353939990286)	(-4.8381423692639984, 7.3227746367472548)	(-0.83361644235221632, 4.2402228486714559)	1.0	slash	0.992416
28	M	A	A	N					N	4	1	shapes	A	5	False	143	(-4.3779149352986781, 0.46830714770449866)	(8.0546257612088112, 5.8306318733325639)	(3.3505541093210489, -0.36155260258523114)	(-2.1587131970313775, -8.581357892096861)	1.0	slash	0.868342
29	M	B	B	N					B	4	1	shapes	B	5	True	143	(7.194416668530371, 0.056775052913700108)	(0.67996532935032228, -8.2437380366081943)	(-7.9032652303171327, 6.8201689215644823)	(-7.4620566997904252, -4.6550597581760185)	1.0	z	1.36802
30	M	A	N	B	B	A	M	N	A	8	6	shapes	M	5	False	143	(-4.2046085298423641, -0.92552169535575501)	(4.6835875436538892, 2.9461376231293919)	(-0.2175631683068513, 8.7216575691101212)	(1.5336500465975753, -5.3715747885988323)	1.0	slash	0.905357
31	M	A	N	N	M	B	B	A	M	8	1	shapes	A	5	False	143	(-6.3424785526781751, -5.2182956146366406)	(-1.3760745676472075, 6.6575307259464562)	(-8.5151997045020398, -1.2413953191718408)	(-0.1246906085538857, 2.4838027243533283)	1.0	slash	1.23084
32	M	B	M	A					M	4	0	shapes	M	5	True	143	(-4.5826222175633013, -4.0929863596184344)	(-3.2705145106980016, 3.5437876139648772)	(1.504473151940779, 5.30732776198181)	(3.4609399135053192, -3.1352215339839535)	1.0	z	0.811012
1	M	B	N	M					M	4	1	shapes	B	6	False	143	(-0.69469352391314843, -8.1132084682753245)	(-4.040521495492893, 7.3338399557424907)	(8.6573585688907961, -3.7558542603261413)	(7.456891651469256, 6.5525691851661847)	1.0	slash	0.708655
2	N	B	M	A	N	B	M	A	B	8	5	shapes	B	6	True	143	(5.970727231745494, -2.7280557500329925)	(4.4065030083384151, -8.4372681292814349)	(-3.1805778422270174, 6.7125152798238865)	(-8.6298942671390702, -5.4203337744685207)	1.0	z	1.63277
3	N	A	N	A	B	B	M	M	N	8	2	shapes	N	6	True	143	(-3.9776700303357959, 4.3082664027695916)	(-4.6931903229113336, -8.0753961300646413)	(7.5575660920201884, -2.0754154404067737)	(-7.3535376651662485, -2.0087089137872454)	1.0	z	1.57137
4	M	A	B	N					B	4	2	shapes	B	6	True	143	(3.8267945719692538, -2.523887712535128)	(-3.5245134646356151, -6.4121531674665393)	(7.486339613957977, 3.896310478494927)	(-2.1456967326836933, 4.4577426530818052)	1.0	z	0.649331
5	M	A	N	M					A	4	1	shapes	A	6	True	143	(-2.6995271259654441, 5.0489968945188082)	(1.7091624572228152, 3.5007331590644135)	(-6.5579976939145634, -3.1682638154769327)	(5.5399477680875009, -4.1394172205158641)	1.0	z	1.38316
6	M	B	N	N					N	4	0	shapes	M	6	False	143	(8.4005577579540578, -5.2273730116268045)	(-1.2319698252049509, -2.8289783782483049)	(-6.6456769779513447, 1.9605625023064093)	(7.1709386439354112, 7.5485209163370186)	1.0	slash	0.620204
7	M	B	A	A	N	N	B	M	B	8	2	shapes	A	6	False	143	(2.0723313451332697, -8.6789040443132723)	(-5.1701828943333679, 8.559923659715249)	(-7.4153005784858443, -1.2605658000490276)	(-1.3861451743690356, 3.4861504487945858)	1.0	slash	1.53193
8	M	B	B	N	A	M	A	N	B	8	6	shapes	A	6	False	143	(1.0793391671006738, -7.8089494118089915)	(1.2835525234804912, -1.2844479138673766)	(-5.2160972751366188, -2.7383256298089043)	(-8.2320451624653685, 3.8866399651597856)	1.0	slash	1.37352
9	M	A	B	M					N	4	1	shapes	A	6	False	143	(-7.331501828027041, 8.4343789260359223)	(6.2493154309904195, -5.2588216025164058)	(-2.3225260360922446, -7.8686344075595143)	(4.6078768348417771, 4.4181785377783722)	1.0	slash	0.715492
10	N	B	A	N	B	M	M	A	B	8	4	shapes	B	6	True	143	(-1.5617743917287523, 7.2360860403668426)	(7.0369395739478833, 3.3147470662132292)	(-6.5247703051345862, 4.9502684965624404)	(1.506324084855704, -0.48786673489388122)	1.0	z	1.31148
11	N	B	M	B	M	N	A	A	B	8	2	shapes	M	6	False	143	(-5.8522723602790814, 8.5278248726665495)	(6.8076101563516609, 0.77523861166616825)	(-4.6737200643305634, -4.9910458586891604)	(8.320260464439464, -5.2243054882851299)	1.0	slash	1.07625
12	N	B	B	N					N	4	3	shapes	N	6	True	143	(-5.8405189991801985, -0.44280980814340332)	(2.4485329545473444, 0.76764162480996312)	(-8.3474134394585526, 8.5298663441678571)	(8.048177783054733, -2.3063391893793241)	1.0	z	0.920415
13	N	A	B	A	B	N	M	M	B	8	2	shapes	B	6	True	143	(2.1790963790106925, -7.5332273883187968)	(6.8305364995639319, -8.6251823997615258)	(1.9310953958850217, 3.9544973126735936)	(-0.29666594385490264, 8.6911484376202068)	1.0	slash	1.25968
14	N	A	B	N	M	M	A	B	B	8	5	shapes	M	6	False	143	(4.4039946923692863, 3.1010671981646567)	(-5.7106934388614397, 1.7857533950633577)	(-0.095924722696938858, 4.0738724420218855)	(7.4150115017942895, -7.3128199527293569)	1.0	slash	0.947128
15	N	B	M	M	B	A	A	N	N	8	2	shapes	M	6	False	143	(1.6983766318027946, -4.9898707358495145)	(-5.1540356092198314, 3.1618901545274696)	(6.6595629353420573, 7.8214521313970629)	(8.6906807776677759, 1.7216825352485685)	1.0	slash	1.09081
16	M	B	A	M	N	B	A	N	B	8	5	shapes	B	6	True	143	(5.572129713437505, 8.3618692370797802)	(0.20046113354800355, -6.1661872881109829)	(-8.1977954636392809, 0.53061227044455173)	(5.1080309078988471, 0.26182221560642205)	1.0	slash	1.4051
17	N	A	M	A					B	4	1	shapes	A	6	False	143	(-2.5627847125854819, -2.1180791044571592)	(4.3068653285339096, -4.7310599960182333)	(-5.9499782726288268, 6.0655213585821723)	(0.45046163596185096, 4.8221440471628743)	1.0	z	1.40472
18	N	B	N	M					M	4	1	shapes	B	6	False	143	(4.1960290994421943, 0.021795515632842211)	(-6.479867613730022, -7.4698490690353854)	(5.1369193700986564, -8.3746670380754971)	(-7.2199008717547368, 7.9137922825214666)	1.0	slash	1.05419
19	M	A	N	A	M	B	B	N	N	8	3	shapes	A	6	False	143	(-0.44396744690123668, -3.9140861874612156)	(-4.9607020452299384, -7.7930006377017911)	(5.3895667310458428, -2.873628430353004)	(3.6749863186183571, -7.9038464214081907)	1.0	slash	0.855438
20	N	B	B	M	M	A	N	A	N	8	5	shapes	A	6	False	143	(1.5832630233741973, 7.8848285486718943)	(0.22087765994552022, 1.0956308141437674)	(-6.9981026776397153, 2.1909290515224473)	(-2.4180501468871647, 7.1580984719376346)	1.0	slash	1.37475
21	N	B	N	M					A	4	0	shapes	N	6	False	143	(-7.1114581355317927, 6.5337565989081039)	(2.3291097005678072, 0.25528889438617952)	(4.9626647060818865, -5.5083624743251445)	(-7.9884467857364818, -5.4910202443812075)	1.0	slash	1.03115
22	N	B	A	N	M	M	A	B	N	8	0	shapes	N	6	True	143	(-2.826140004648459, 8.4538777051636806)	(8.0608061682249961, -2.6628612650291057)	(2.207142315642777, 7.546349877485671)	(-2.7050044069942363, -7.2492159941433831)	1.0	z	1.31428
23	M	A	A	N	N	B	B	M	N	8	0	shapes	M	6	False	143	(-7.14997945832918, 0.48516535983273634)	(2.7867723141106904, 3.4068020359792932)	(5.8764349444935355, 6.0652620517792375)	(-1.8277338843256636, -2.8627865874027396)	1.0	z	0.877926
24	N	A	M	B					B	4	3	shapes	B	6	True	143	(-4.0046254415979741, 6.9094273164865747)	(8.3618369163967543, 7.1353230172135778)	(-1.7763946052189361, -8.0191225872022045)	(3.1977543224012148, -5.031196960607355)	1.0	z	0.87204
25	M	B	N	M	A	A	N	B	M	8	3	shapes	M	6	True	143	(8.1241828122567021, -2.9577320561581804)	(-2.6051051202672522, 5.249912043502734)	(4.0770031081316471, 8.0713138265596385)	(-7.5922933556106704, 1.5857756402795431)	1.0	slash	1.38979
26	M	A	N	A					A	4	1	shapes	A	6	True	143	(4.0415021849709873, 8.0911087588777058)	(-0.746854740330404, -8.2896213617642935)	(3.3186596369238099, -1.5668960950451991)	(-0.30227790601609961, 4.5561406395864292)	1.0	slash	1.02461
27	M	B	N	N					B	4	1	shapes	B	6	True	143	(0.083193032783777099, -3.6191429934944379)	(2.4171050564723195, 7.1146474396617521)	(-4.0578115715791707, -1.0322205220112393)	(-7.4413946381158533, 8.7374222209057315)	1.0	z	0.950999
28	N	A	B	A					M	4	3	shapes	A	6	False	143	(-3.8558617265899686, 0.73617366259691508)	(3.1999834734784223, 4.2445859983661478)	(6.7880743567886626, -8.6198054630193948)	(-6.3961782466290593, -5.7139565872129454)	1.0	slash	1.40859
29	N	A	A	N					A	4	1	shapes	A	6	True	143	(2.7810248208310213, 4.5965732932991639)	(5.9103080383858888, -2.9112154497291192)	(-6.7679106111439902, 0.68831802785332208)	(-3.2769913493103022, -6.3675887865513037)	1.0	z	1.08016
30	N	B	B	N	A	M	A	M	M	8	5	shapes	M	6	True	143	(1.5784321115165802, -6.0404612712429433)	(-8.3517062664418944, 4.4491984320807365)	(-1.2524072818047367, 3.8090853915147225)	(4.5468319695780934, -0.36780627545791589)	1.0	z	1.11604
31	M	B	A	A					N	4	3	shapes	A	6	False	143	(8.3486452861673719, -5.4531384438881227)	(-8.1616722849329868, 5.4849935870333084)	(-1.0437802331081594, -2.5484668831843527)	(1.6149280223989582, 8.1075941261692357)	1.0	slash	1.49342
32	N	A	A	M					M	4	3	shapes	M	6	True	143	(0.050874390291776095, -8.4495216282401717)	(-4.3180318205883799, -5.5036814736883199)	(-1.9001396635384289, 6.6359570399078169)	(1.0494709616051647, 0.15914121744965115)	1.0	z	1.09101
1	N	B	B	N	A	A	M	M	B	8	1	shapes	B	7	True	143	(8.021506287282719, -7.9057272771146101)	(-5.6704054732368876, -0.23113161578461394)	(7.5620723514562691, -1.2460846678052944)	(5.3226245457205614, 8.6272312050776812)	1.0	z	1.30018
2	N	B	N	A	M	M	A	B	B	8	6	shapes	A	7	False	143	(-7.3737089610326603, -6.83262259835573)	(-3.0063094087160263, 5.1494238891782267)	(8.5976732048790971, 5.982967292733985)	(-1.936717822021877, -8.4134914241778542)	1.0	slash	1.39583
3	N	B	B	N	A	A	M	M	B	8	7	shapes	M	7	False	143	(1.964709826399325, 1.8346192367599894)	(3.7861474707581753, -4.9582204533287548)	(5.7544580032502921, 8.5406226693227971)	(-6.7156094419406083, 0.90427308952200391)	1.0	slash	1.14398
4	N	B	A	N					N	4	0	shapes	N	7	True	143	(3.2007508234721129, 2.7473319652774215)	(-2.8184925176803608, -7.3711066543764989)	(4.8728281343038997, -2.6151584410587203)	(-5.0406973392653747, 5.3832350204428021)	1.0	z	1.19751
5	N	A	A	B	N	B	M	M	N	8	4	shapes	N	7	True	143	(6.5496961512539382, 3.8556351262859572)	(-5.1202478340822726, -3.4833314229207479)	(-1.2634997794848184, -8.5312624005240014)	(7.4654283296055013, -4.6942702071076861)	1.0	z	1.38456
6	N	A	M	M					B	4	3	shapes	M	7	False	143	(7.9883146983913029, 8.1353429911330544)	(-0.67118384569865341, 7.9565011993560901)	(-6.3359720624962765, -6.8585614066497262)	(8.2037497883477677, -3.4880744603274438)	1.0	slash	0.852014
7	N	B	N	A	B	A	M	M	N	8	0	shapes	N	7	True	143	(6.2302549720672822, 8.2987418530897017)	(7.5222626387858291, 4.436071344944196)	(-2.0998705611161812, 4.411375202714833)	(-4.6248507109355232, -5.5400042575758057)	1.0	slash	1.99581
8	N	A	A	B					N	4	0	shapes	N	7	True	143	(-6.4353864003944219, -4.5481347663451812)	(8.4044289852510197, -7.865682733816417)	(2.6194381616371576, 8.4967944712386405)	(-3.3269402528899406, 0.20203780776741453)	1.0	z	0.773904
9	M	B	A	N					B	4	0	shapes	M	7	False	143	(-4.5436827979314733, -3.3007042808138412)	(3.2303037926188907, -2.9663608251912894)	(-8.640774836032028, 4.8111302107721894)	(5.4117125619655724, 3.8286892587563628)	1.0	slash	1.42957
10	N	B	M	B	A	N	M	A	N	8	1	shapes	B	7	False	143	(2.1782003819203464, 6.9570249286934516)	(6.083479056273454, -5.5468155366545719)	(-3.6908037382248144, 5.6382896342001736)	(0.95179935984932307, -5.1142612613721488)	1.0	slash	0.818284
11	N	A	B	B					B	4	2	shapes	B	7	True	143	(4.8096833719892107, 8.3628394646449635)	(1.3848252742456317, -2.6311632288589921)	(-5.8932547771200063, -0.15686016112368861)	(-0.55682936171581332, 2.0288427290678204)	1.0	z	0.744794
12	M	A	B	A					M	4	2	shapes	B	7	False	143	(7.5186428722332295, -3.8581414729666967)	(-7.7213786957489692, -6.9129082016839272)	(-6.0025261205699891, 2.789476248013635)	(4.1585799579896214, 1.3332239134799657)	1.0	slash	0.732535
13	N	B	B	N	A	A	M	M	M	8	6	shapes	M	7	True	143	(-4.647518295971798, 0.99102293077124237)	(3.4307831305645191, -8.3943017626335177)	(2.4813111136464947, 7.5233684125560494)	(-4.0732627248386475, -8.6884572847116406)	1.0	z	0.965437
14	M	B	A	B					A	4	2	shapes	A	7	True	143	(1.0000741542978897, 4.4764920895737674)	(8.0428651289262412, -2.2291423276305604)	(-5.1429929534068117, 7.6749189661273007)	(-8.2214734138593375, -8.071735761282131)	1.0	z	0.701887
15	N	B	N	M					N	4	3	shapes	M	7	False	143	(-0.13183150614554684, -0.175870667986608)	(4.5673621219343339, 7.6808720626901668)	(-2.2650162642683469, 8.5273605313993812)	(7.4541920947060945, -7.2351565502437358)	1.0	slash	0.763485
16	N	B	M	N	B	M	A	A	B	8	0	shapes	N	7	False	143	(1.0630720062378956, 3.5266592264674408)	(-7.3721109610952835, -6.3735675776650274)	(0.49424415661935228, -5.5544669129373396)	(7.0330816418644329, -8.619542256118125)	1.0	slash	1.12629
17	M	B	N	N	A	M	B	A	B	8	4	shapes	A	7	False	143	(-6.0518635935128149, 4.6453455867044902)	(3.4395724466186053, 7.5570076793084056)	(-0.52313521505811522, -5.1950983052926833)	(1.2707928790683329, 2.0489687637233729)	1.0	z	0.952372
18	M	A	A	N	N	M	B	B	B	8	4	shapes	N	7	False	143	(-4.6202853228032099, 7.557736413868696)	(2.4029101666659312, 0.56394860918922696)	(7.1153679441160929, 6.1488477567661519)	(-2.246916579916145, -2.899627741739943)	1.0	z	0.739725
19	M	B	B	N					N	4	3	shapes	N	7	True	143	(-6.2750967044335502, 0.11455988386165039)	(6.4128036598941609, -1.7414837964804306)	(5.4539906675315351, 7.2395581039795029)	(-4.377182675043076, -4.007754460774259)	1.0	z	0.881973
20	N	A	B	M					N	4	1	shapes	A	7	False	143	(1.0641747943204454, -6.0041649870657476)	(1.6549158766467844, 2.12286368359287)	(-8.0211670905441981, -8.2383065058656264)	(-5.6764348260429554, 2.6421278943941804)	1.0	slash	0.611727
21	N	A	M	B					N	4	0	shapes	N	7	True	143	(-0.24670432999284664, -1.9276493451622052)	(4.2814496984632093, -7.2669502709446583)	(-1.6205153710815043, 5.3119624225195352)	(2.898720340495462, 7.0763964701717903)	1.0	z	0.955344
22	M	B	M	N					A	4	0	shapes	M	7	False	143	(3.1021084473191216, -7.6267537227894655)	(-2.7864239049716568, 3.9342988034006865)	(7.9780755319292069, 4.7588172542300953)	(-6.1874873948144362, -1.091468519736531)	1.0	slash	0.686982
23	M	B	B	M	A	A	N	N	A	8	5	shapes	A	7	True	143	(-2.0654574026986321, 1.2527974938009887)	(3.3203112635346574, 8.0584718212711266)	(5.7231521844932765, -8.0155045263932223)	(5.7476466145727407, 0.33349746661576596)	1.0	z	1.18378
24	N	B	A	A	B	N	M	M	N	8	5	shapes	N	7	True	143	(-7.3671604345174364, 2.6046655656672026)	(7.1589106691009299, -3.3991064288442292)	(5.2692099210903631, -7.4522267961334494)	(-3.3402088721107681, -5.5759940107258155)	1.0	slash	1.03767
25	N	A	N	B					N	4	0	shapes	N	7	True	143	(0.62565735349634544, 7.0653677433211026)	(-4.3581881321231295, -4.423954225262543)	(6.3561950630820032, -5.9446090519217307)	(-4.9054816902170133, 4.5903508391614771)	1.0	z	0.471781
26	M	B	M	B	N	N	A	A	N	8	5	shapes	N	7	True	143	(-1.673077445426852, -6.9096750302997965)	(-0.76464559627721229, 7.0694513082327521)	(-1.6785355133377466, 0.41134708460391778)	(4.4751986732066307, 6.3071979619911644)	1.0	z	0.781082
27	N	B	B	N	A	A	M	M	M	8	4	shapes	A	7	False	143	(6.7506097414750776, 8.7221186193048155)	(-2.0682813261503377, 4.7539783562319187)	(-4.3395773358026446, -7.8359806658431772)	(-7.7005599192613285, 3.1461163063092421)	1.0	slash	0.726879
28	M	B	B	A	M	A	N	N	B	8	1	shapes	B	7	True	143	(4.3956281745214927, -6.1965271448193144)	(8.0831961304123077, -0.16539629634278974)	(6.3785878824351343, 7.6974409281250864)	(-4.7314286297444141, -3.2408207925955441)	1.0	z	0.960272
29	N	A	N	M					A	4	3	shapes	M	7	False	143	(-4.6152056855257602, 1.5913945914677008)	(2.5716624538913386, 3.3530287907186516)	(7.2565959450825623, -0.66235069229038679)	(-2.3021721469755096, -5.8989821110502216)	1.0	slash	0.960586
30	N	A	B	N					M	4	0	shapes	N	7	False	143	(-6.6168203916112232, 3.5951134467168782)	(6.0372879004497175, 7.6090772600912331)	(0.75183074374865022, -2.2738515427057511)	(-4.2568180722897742, -3.6660527945080625)	1.0	slash	0.538152
31	N	A	N	B					N	4	2	shapes	N	7	True	143	(6.8292571828281954, 6.2562583569596377)	(-1.3983636170462121, -7.2780651571804746)	(-2.1134417744577387, 3.3484821565323326)	(7.9736304174220685, -8.5260755420229586)	1.0	z	0.757747
32	N	A	A	N	M	B	B	M	A	8	0	shapes	N	7	False	143	(-5.9623392542517681, 3.6004384645204777)	(5.8492906373445148, -6.2993713032493641)	(0.46717145314292807, 7.3340708287761522)	(-4.0044373619302354, 8.5241922423391259)	1.0	slash	0.586029
1	N	B	M	B					B	4	2	shapes	M	8	False	143	(-3.9634609465584605, 0.74238523652157262)	(-5.0900469543606768, -8.2155444629777392)	(2.55050487148781, 6.9854681658940336)	(6.4876721001164679, -1.093525688038298)	1.0	slash	0.770225
2	N	A	B	M	N	A	B	M	N	8	4	shapes	N	8	True	143	(-8.3565816468725966, 1.5537868891925122)	(1.1489391528251911, -6.6341156589086427)	(5.5689122213886542, 7.0471358403142847)	(4.3775738380340243, 2.9884831499043223)	1.0	z	1.25503
3	M	A	A	M					M	4	3	shapes	M	8	True	143	(-6.736268263119304, 6.1794532796289694)	(3.3626120307823708, -0.2458066814399178)	(-1.3282941144164511, -0.4393481063557676)	(7.1516303159518255, 5.4905006185255605)	1.0	z	0.878484
4	M	B	B	M					A	4	2	shapes	B	8	False	143	(2.7974603902738551, -3.540462315206268)	(8.1505829055894594, 5.6629997482106624)	(-3.4852430830786929, 1.2794116193897853)	(-5.8049243699470168, -7.3630295633393414)	1.0	slash	0.912216
5	N	B	N	M					B	4	0	shapes	N	8	False	143	(2.1901779540933237, 7.32321064743671)	(-5.9751678096047742, -6.206434759494373)	(0.1363010170989245, -4.1805411473962577)	(-7.85128163225263, 5.1452116886719566)	1.0	slash	0.859658
6	M	A	A	N	N	M	B	B	M	8	2	shapes	A	8	False	143	(5.7807070542949059, -4.4370831515306941)	(3.2754217495105102, 7.3598041660579625)	(1.1264264451879438, 2.9727044797203099)	(-7.1903875502128853, 5.2661735449949152)	1.0	slash	0.699513
7	M	B	B	N					B	4	0	shapes	M	8	False	143	(-2.9249850284201351, -5.8127079852056172)	(-2.2159745018155412, 0.92003868704589742)	(6.4667972544269396, -1.1007713988609256)	(6.1423187333818206, 4.5507177503672605)	1.0	slash	0.953015
8	N	B	N	M	M	A	A	B	A	8	5	shapes	A	8	True	143	(-1.3270538306264612, -1.872908206106553)	(-4.1264646942579466, 1.0965569790250065)	(5.4355404923795465, 7.479749622097831)	(2.8075719705493629, -1.0344775489777751)	1.0	z	0.870668
9	M	A	A	N	M	N	B	B	A	8	0	shapes	M	8	False	143	(4.3257452304331263, 3.4684065963112847)	(-0.62575558144432186, -0.32474007614690414)	(6.9899726672824851, 8.5474770129235971)	(-3.9747728579546031, 2.1963734434948492)	1.0	slash	0.662517
10	N	B	A	B	N	A	M	M	N	8	4	shapes	N	8	True	143	(-7.8915905420185215, -0.94495336014060527)	(0.6059298250774301, 1.3164409196051778)	(8.0165105107650163, 7.9843844271521895)	(6.8848114580821012, -2.6218491530894479)	1.0	z	0.835625
11	N	B	N	M	M	B	A	A	N	8	4	shapes	M	8	False	143	(-5.5066262516550895, 2.8642864176737053)	(-2.6281176541464886, -2.3198855361892381)	(-0.90758492714863337, 1.5646171960995243)	(-8.0985909668485476, -6.284847852952014)	1.0	slash	0.751054
12	N	B	B	A	M	N	A	M	B	8	0	shapes	N	8	False	143	(-4.9280003250530156, 2.7474471552038917)	(-7.6966796714781491, 5.7659283135598631)	(0.17365599381744801, -2.7266744439022217)	(-1.4456984256104484, -8.4853007548455075)	1.0	slash	0.924774
13	N	A	M	M					A	4	1	shapes	A	8	True	143	(-4.1900774246187318, -7.7699213904107971)	(0.13092629619249152, -3.1953992882943734)	(-8.3597712028112827, 4.7092376120598889)	(1.9507303108603136, 8.5161397617871373)	1.0	z	0.990975
14	N	B	A	B					A	4	2	shapes	A	8	True	143	(0.73858712727419196, -8.158649894662469)	(-6.794318827330506, -8.1159290166362776)	(-5.5665921371812299, 5.7970206809428451)	(4.891640929227167, 1.8664617238908239)	1.0	z	0.817741
15	M	B	M	A	A	N	N	B	M	8	2	shapes	M	8	True	143	(3.0201741688642336, -1.8307572408122708)	(-2.4228423786303237, 4.2467913310204093)	(8.3722514202720681, 5.229607484019251)	(-8.3511437723616719, 0.42327208019153595)	1.0	z	1.29964
16	N	B	M	N					B	4	3	shapes	N	8	False	143	(-4.1489001626534412, 2.4969761341295609)	(-3.2048418358649213, -2.5673494972461368)	(0.53535984256955693, 2.8862080501204854)	(1.9629192383280252, -5.1848491951555271)	1.0	slash	0.6494
17	M	B	A	A					M	4	1	shapes	B	8	False	143	(-4.0922186821415982, 6.4008861594548119)	(-2.082086805387938, -6.0595100425050576)	(3.4429766029744862, 6.9748779928275262)	(3.8606905969025203, -4.3540919032389853)	1.0	slash	1.1036
18	M	A	A	B	B	N	M	N	N	8	5	shapes	N	8	True	143	(4.8995665324731643, -1.7427684633196296)	(-5.7567084385274718, -0.42238937083719463)	(1.4016431353311205, 3.9023932396957974)	(-8.400872848309799, -5.4659894452638458)	1.0	z	0.813245
19	N	A	M	B					B	4	3	shapes	B	8	True	143	(3.1658163850533612, 5.0015021137989386)	(-7.867722249249625, -7.0411974559486605)	(-7.2066165232170221, 5.688888172423793)	(1.8231731331152954, -5.872698944221634)	1.0	z	0.900351
20	M	B	N	B					M	4	1	shapes	B	8	False	143	(5.0717687577796866, 6.1028522389806916)	(-8.443340371740149, 4.6269178127742752)	(-3.563521040188915, -8.0025592918498027)	(5.7915025418648582, -3.748481561154124)	1.0	z	0.882556
21	M	A	B	M	A	B	N	N	M	8	6	shapes	N	8	False	143	(-2.5423136338747021, -2.2308398041663802)	(8.6589409460778306, 6.4866331538659825)	(-7.5189211223283081, -2.707788849729825)	(-8.1664030048092116, 6.5847816852864121)	1.0	slash	1.3322
22	N	A	A	B					N	4	0	shapes	N	8	True	143	(-1.253652907157548, -6.4434095684783088)	(1.4221305147181322, -1.7988602266682072)	(-3.0372654069211009, 2.3099004136565693)	(2.2255181309760701, 2.1497268942620984)	1.0	slash	1.79381
23	N	A	B	M	A	N	B	M	B	8	3	shapes	M	8	False	143	(5.9704030113851267, -4.0169199974128622)	(-2.4131503906429979, -0.91648376082061667)	(1.3895045720736707, -6.9009701441789115)	(-3.0987168805587473, 5.8952307513846112)	1.0	slash	1.1814
24	N	B	M	M	A	B	A	N	B	8	5	shapes	B	8	True	143	(1.0581924224660284, 0.69167863458547885)	(7.5333752034764423, -3.73435243890696)	(-3.1831768418165698, 0.9787088831241828)	(2.3983507797862593, 6.7654170004452325)	1.0	slash	1.07905
25	N	A	N	B					N	4	2	shapes	N	8	True	143	(8.3402288681953074, -7.0679714854503333)	(-1.3159336049582455, 5.8028985188697444)	(5.8695440340167391, 6.7162646322666735)	(-6.17138862146943, -7.2514313430475035)	1.0	z	0.662486
26	M	A	B	A	M	N	N	B	M	8	6	shapes	N	8	False	143	(2.2567914116404388, -1.1381359530414104)	(-6.7506785546752504, 4.0966672548343794)	(3.872191439444638, 3.8681656796364763)	(-3.5212140511559955, -7.2860647414840152)	1.0	slash	0.973651
27	M	B	M	A					M	4	2	shapes	M	8	True	143	(-0.87949820849489502, -1.8310460440899305)	(-7.3078867574125663, 6.9158577027389398)	(3.0171391924436683, 0.95740032142538922)	(5.3950451662394752, -3.2565278902719923)	1.0	z	0.6372
28	M	A	A	B					A	4	1	shapes	A	8	True	143	(8.4005450641208341, 4.1118117482541958)	(-2.2803573926819416, -4.5427515427510308)	(3.5098439105309005, -6.9314405387251083)	(-4.7730937400456028, 5.5674712165813833)	1.0	z	0.588936
29	M	A	B	M					M	4	1	shapes	A	8	False	143	(3.3573018209210943, -0.3502994358440592)	(-5.3789670631740041, -6.9685933319644793)	(-3.7758052429124138, 4.1058939290169096)	(0.46813578097921571, 3.9371424580208529)	1.0	slash	0.617196
30	N	B	A	B	A	M	N	M	N	8	4	shapes	A	8	False	143	(2.8238430134918406, -3.0392182375973436)	(-3.3035160037850417, 4.8104839131572792)	(6.9691897966590446, 3.3602349480906248)	(-8.1476482233239285, -2.8659455674805878)	1.0	slash	1.28003
31	N	B	N	A	B	A	M	M	N	8	2	shapes	N	8	True	143	(-0.48853296306702276, 5.4220455935072742)	(-4.692489277999627, -8.3308492309011974)	(6.356059786684126, -4.4461552236215534)	(-7.3207327593994664, 4.2651755916621923)	1.0	z	1.26841
32	N	A	M	M	B	B	N	A	N	8	0	shapes	N	8	True	143	(-1.5581329972350773, -1.8627849162344408)	(-3.5182401258956677, 7.8840426290382872)	(1.7237101757602709, 4.4980276840366447)	(5.5874869060998016, 3.4021865012361125)	1.0	slash	0.482295
