TrialNumber	stim0	stim1	stim2	stim3	stim4	stim5	stim6	stim7	stim.probe	ttl.stims	corr.num	trial.type	stim.corr	block	match	Subject	stim.pos0	stim.pos1	stim.pos2	stim.pos3	ran	resp	RT
1	M	B	A	M	B	N	A	N	B	8	0	shapes	M	Practice	False	144	(2.8766584139661155, 6.4992738856593846)	(3.0161227578405203, -5.4128608321093612)	(-8.7236758491074866, 5.2051627810414303)	(-1.5819529137468216, -7.9956686596940161)	1.0	z	15.2433
2	N	B	B	A	N	M	M	A	N	8	4	shapes	N	Practice	True	144	(-2.2121821589342634, -0.78353172728896947)	(-7.2061462573035016, -7.3205234096637319)	(-2.2698890100289875, 6.1096947906840651)	(-6.6982823188109037, 5.1788515507169404)	1.0	z	2.32608
3	N	A	B	M					A	4	3	shapes	M	Practice	False	144	(-6.8089642878275134, -0.25253241168517704)	(0.7245025776280567, 2.7181322590911634)	(3.539811785168002, -0.26173910040206927)	(-5.1676449290167392, 8.2163684821394583)	1.0	slash	2.92955
4	M	A	M	N	N	B	A	B	M	8	2	shapes	M	Practice	True	144	(-5.703316450301994, -1.1245945826671644)	(8.7285985810719211, 7.1867904686095088)	(-2.9135017025615086, 7.9333673468475041)	(-1.4510547504510365, -0.014462888046923084)	1.0	z	1.85123
5	M	A	A	N					N	4	3	shapes	N	Practice	True	144	(5.4139259163537972, -4.1695094807162603)	(-7.668729875627271, -3.0560038884545921)	(0.28892164892677563, 6.6117591266354854)	(-7.5758361664404248, 3.4240111225413337)	1.0	slash	2.6188
6	M	A	A	N					B	4	2	shapes	A	Practice	False	144	(6.5259631553810973, -6.3852759282273741)	(-2.7962356372030577, -1.0205073417198509)	(8.4072525876689141, 5.1640986468075738)	(-6.9166513482795056, 6.5804326347771465)	1.0	slash	1.24826
7	M	A	A	N					A	4	1	shapes	A	Practice	True	144	(-0.46155054736167855, -8.4256410900544836)	(5.0000207737991023, 8.3792275413814821)	(5.714985967962841, -5.8268424794150047)	(-4.388896671638399, 5.3098893438116903)	1.0	slash	1.57586
8	M	B	M	N	N	B	A	A	N	8	7	shapes	A	Practice	False	144	(-0.43429124989804535, -8.3126917287958655)	(-1.2681854001409354, 3.3412205441465179)	(-8.4811249432067335, 6.5681909186083853)	(5.0817578733985762, 4.0987828104121409)	1.0	slash	3.23348
1	M	A	B	M					A	4	3	shapes	M	0	False	144	(-7.1294384709414693, 4.3538587824682473)	(-2.9777487878139102, -4.1309969696678452)	(6.2926018438278231, -3.4237136193400852)	(3.7491002887488616, 8.5634405342820905)	1.0	slash	1.50949
2	M	B	B	M	N	A	N	A	B	8	2	shapes	B	0	True	144	(1.0328610445201445, -0.48914721113285431)	(-3.6285448335498973, -4.0304312291225353)	(4.5294420476209449, -3.5845363491107962)	(3.6175300656864184, 6.4148326659377659)	1.0	z	2.39719
3	N	A	M	M					A	4	3	shapes	M	0	False	144	(-3.8974420587253515, -7.8448109860350588)	(-7.9973571427390482, 1.128987795183269)	(8.3887327755129419, -0.13776229846707544)	(3.5878554040209547, 0.11884612256598359)	1.0	z	2.06482
4	N	A	A	N					B	4	0	shapes	N	0	False	144	(-3.3151631765174496, 3.9981240795797408)	(-3.6946163255702924, -7.5781705778606909)	(8.1092461523091224, 8.1410729414598784)	(6.5953070245444518, -8.2230479819808195)	1.0	slash	1.52027
5	N	A	A	B	N	M	M	B	M	8	4	shapes	N	0	False	144	(4.7280089185270224, 3.9533882056766547)	(-6.8451203699565148, 6.3444624700632453)	(8.6022175997813548, -6.6931983831782089)	(-7.6477350956185699, 0.98467517925335635)	1.0	slash	2.04403
6	M	A	M	N	B	B	N	A	A	8	1	shapes	A	0	True	144	(-3.8404967711280076, 5.200020826787922)	(-0.77092408197406748, -7.1374309357196051)	(-4.5954451013438646, -0.61353118615557989)	(6.0489720792880366, 7.3187892909595931)	1.0	z	2.23143
7	M	B	M	N					N	4	3	shapes	N	0	True	144	(-1.5643106083646883, -5.5775019265866028)	(7.127450345060824, 6.2834465067654026)	(-5.2485031817674006, 5.435974887206255)	(6.0473549837010605, -2.7303569186588934)	1.0	slash	1.29894
8	N	B	M	N	M	A	A	B	N	8	0	shapes	N	0	True	144	(3.2412095622183621, -3.705406825215201)	(4.4143062636503476, 1.4960619480905919)	(-4.3501326026969025, -6.6302688421975011)	(-5.6300557167340362, -0.4203658466485205)	1.0	z	1.89252
9	M	B	A	M	N	A	B	N	N	8	3	shapes	M	0	False	144	(-5.7954936724427411, 7.3585717924513006)	(5.9834865697713315, 7.3375330501545442)	(5.3659400708333376, 1.2723558887313331)	(2.3699367457484151, -7.2869696870459268)	1.0	z	1.48417
10	M	A	N	N	A	M	B	B	N	8	1	shapes	A	0	False	144	(-7.1862622735668866, -4.6359432845103985)	(0.10394254964912619, -6.5623281449869886)	(-4.4289409718110182, 3.5293965633030968)	(0.69143262995947907, 4.2735208359511283)	1.0	slash	1.42381
11	N	B	B	N	M	A	A	M	N	8	1	shapes	B	0	False	144	(2.2116833672748601, -4.8185094465018121)	(1.8391584877021181, 6.6684973427990251)	(3.864930199235344, 2.8894127780340089)	(-5.4666409768725632, -6.9698126322059899)	1.0	z	1.67932
12	N	A	A	N					A	4	2	shapes	A	0	True	144	(6.7101580742006419, 8.0134612469289195)	(7.6331580921151065, -6.1130611325390607)	(-5.3307221720617148, 3.5063460653167393)	(-6.124614528318534, -2.3160121789508086)	1.0	z	1.50488
13	N	B	N	B	M	M	A	A	B	8	3	shapes	B	0	True	144	(1.734861414633782, 1.9479751636726856)	(-0.94037877192831587, -4.2509942878032394)	(-6.7385394360688773, -0.11937947813921568)	(2.5803161110272459, -2.3450663839045296)	1.0	z	0.904638
14	N	A	B	N					A	4	1	shapes	A	0	True	144	(-1.3256042249736621, -2.1687272695088406)	(1.2384725150943687, 4.1499135181140989)	(8.351109244281119, -1.3735890906431987)	(-1.6453515839291821, 8.6103786716231738)	1.0	z	0.966224
15	N	A	A	M					A	4	1	shapes	A	0	True	144	(-5.0336758271482074, 2.3939970803602915)	(8.0331357889209229, -0.89389008367339695)	(-3.1022026135383669, -6.0372040953523047)	(3.4370390419553072, 3.5462666385285697)	1.0	z	1.0316
16	N	B	A	M	A	B	N	M	B	8	1	shapes	B	0	True	144	(2.4160785205809479, 4.6155234303071992)	(-4.2997931117525408, -5.9870905156427954)	(7.5101389353415442, -2.5853156586377155)	(0.82954320056284203, -5.5001380979745242)	1.0	z	2.10151
17	N	A	N	B					M	4	3	shapes	B	0	False	144	(-7.568473569447745, 1.596203587470006)	(4.8075677209871834, 4.4686179597640727)	(1.259703236095401, -7.4095068537382707)	(-0.073343954905316977, -2.3650668891094968)	1.0	slash	1.00278
18	N	A	A	B	N	M	B	M	M	8	7	shapes	M	0	True	144	(-7.9978747317370118, -4.4701322169272615)	(5.513072339453899, 7.5416274967879353)	(-3.918335892891978, 0.34987108517942822)	(-2.3271654301488498, -3.6117733633585782)	1.0	z	2.47865
19	M	A	M	B	B	A	N	N	M	8	4	shapes	B	0	False	144	(3.4443027964579915, -1.9091652582766754)	(0.60482717525067642, 3.0755941801182587)	(6.004852141871531, -6.6300059824283029)	(-3.6901702739317779, -2.4546277877076177)	1.0	slash	1.17216
20	N	A	M	N					M	4	3	shapes	N	0	False	144	(-6.9254367134699679, 5.7300090392040079)	(2.0977888313679838, 7.7454250595500547)	(-6.9045239483368359, -1.7471853590833835)	(5.664674744566339, -3.8746153412370852)	1.0	z	0.979781
21	M	A	N	M					A	4	1	shapes	A	0	True	144	(-3.5810381847440391, -7.6340560853680186)	(-7.3017794009657724, 3.7096225931686533)	(2.9315245041386326, 1.7105104010192846)	(2.7522253048634706, -3.6684122000767019)	1.0	z	0.937378
22	N	B	N	B	A	M	M	A	A	8	4	shapes	A	0	True	144	(6.9937749033543284, -1.850889915069196)	(7.2793426100540408, 7.8881358934002002)	(-1.6277998947193746, 8.5533517636185508)	(4.3730104976254331, -5.5776362878456496)	1.0	z	1.68294
23	N	B	B	A	A	N	M	M	M	8	2	shapes	B	0	False	144	(-5.3682735469730716, -4.7940468732010837)	(7.9438543525509324, -3.8102835163642137)	(-6.5546417518140299, 5.7703991242167696)	(0.4115187109219729, 3.3700189477955345)	1.0	z	0.830635
24	N	A	M	A					M	4	0	shapes	N	0	False	144	(-5.3860061413006068, 4.9486607570488346)	(5.7280061508941085, -3.878984026517073)	(-8.1926620177674288, -7.8126148289334125)	(5.0783223240237891, 1.1862543077310086)	1.0	z	0.954486
25	M	A	B	N					N	4	3	shapes	N	0	True	144	(3.4933910018417933, -1.7360797716490319)	(-3.5314065272932709, 0.092476533439182163)	(-8.5196397529837, -1.5230454248855452)	(7.0114782780779876, 2.9894705629596228)	1.0	slash	2.01389
26	N	A	N	B	B	A	M	M	B	8	6	shapes	M	0	False	144	(5.9870259695744963, -2.5877127348869129)	(-1.1069827592682726, -2.9151101248963309)	(-7.2477651896345234, -3.1978334729176883)	(2.4950351685961962, -5.1789517992472973)	1.0	z	1.46361
27	N	B	N	B	M	A	A	M	M	8	1	shapes	B	0	False	144	(-8.6376552136270668, -7.3545167538682978)	(-6.901744775017594, 3.8166369079727485)	(-2.3212370448780471, 6.4571498175878812)	(2.937863176899894, -3.899675505433394)	1.0	z	1.823
28	N	B	N	A					N	4	2	shapes	N	0	True	144	(-1.7440113655532121, 6.4517865298103541)	(0.8813890853890296, -8.5146115601753092)	(-4.5971927651559854, -7.1771307410832588)	(8.7355961702656302, 0.83550727808852265)	1.0	z	0.868744
29	M	A	B	M					N	4	3	shapes	M	0	False	144	(4.7520045453940689, 5.3744034076129257)	(-7.6353088978618029, -5.3845137639289202)	(-6.4941125024625919, 2.9994140978333643)	(8.5458926326749101, -7.1798264506885943)	1.0	slash	0.976222
30	M	A	N	N					N	4	3	shapes	N	0	True	144	(8.0313834255514784, -6.6965387623271013)	(7.6381734073933991, 0.016326522651446851)	(-2.2731206473079899, 8.3643917782100097)	(-2.2063985527879639, -3.6158550108551957)	1.0	z	0.832023
31	M	B	M	A					B	4	3	shapes	A	0	False	144	(6.3196427683384933, 2.7317249474293046)	(0.93662815626651508, -3.8368770152650402)	(-7.1107618594485498, -1.8346655504427511)	(-0.44727147382594268, 2.3994056110923996)	1.0	slash	0.867756
32	N	A	M	N	A	M	B	B	A	8	1	shapes	A	0	True	144	(3.7134720035115549, 7.0931662696352191)	(-8.5117913943952672, 1.1840534859787848)	(0.29322280422125324, 4.515281191723151)	(0.46423254639150358, -7.5675664014757817)	1.0	slash	1.86733
1	M	B	B	N	M	N	A	A	B	8	2	shapes	B	1	True	144	(0.30921041431417251, 1.3196910503691086)	(6.6721402107076742, -7.1415016682330101)	(4.7654766124275945, -3.5179359227958411)	(-2.3677636022017436, -1.8794615908419647)	1.0	z	0.696809
2	N	B	B	N	M	A	A	M	M	8	5	shapes	A	1	False	144	(0.58631520436144058, 7.3490988327572602)	(5.7474252447777747, -3.8312424055528167)	(-4.470876625798538, 7.418558803935742)	(-1.9349162411914662, -3.056919902161872)	1.0	slash	1.56223
3	N	B	A	M					A	4	2	shapes	A	1	True	144	(1.3123577243503561, -1.9940511988327616)	(-8.0722437577621733, 2.9180308992494641)	(2.2322889948999851, 7.8203948721493362)	(-2.8260148409249428, -6.4171000715702728)	1.0	z	1.58798
4	M	A	B	N	A	M	N	B	N	8	6	shapes	N	1	True	144	(0.72339910374217631, 3.9180558809146184)	(7.1438109494806685, 8.6685256538628828)	(5.5154922549319458, -4.2704909195859502)	(-1.9657933434414465, -4.1931007538325167)	1.0	z	0.97959
5	N	B	M	B	M	A	A	N	A	8	5	shapes	A	1	True	144	(2.6314558819812426, 0.39433123923550006)	(8.5234249265428765, 0.58585821058508358)	(-0.089187365475611458, 4.6818132473862306)	(-4.9365715735940814, -4.0998404922469378)	1.0	z	2.04529
6	N	B	A	N					N	4	0	shapes	N	1	True	144	(-4.1199277173227644, -6.6059063500618684)	(6.3146405384462465, 0.90136314864128408)	(0.08790458145067781, -1.4330310476671819)	(-7.6320256249745793, 2.0302579804111112)	1.0	z	0.686893
7	N	A	A	B	N	M	B	M	A	8	6	shapes	B	1	False	144	(-7.0055905509692238, -8.7365644644214093)	(-4.093889501218098, 0.27900260677715139)	(5.6936105946360449, 0.046322119945594764)	(-0.72882274829789928, -4.2293514926355504)	1.0	z	2.41045
8	M	B	N	M	B	A	N	A	N	8	4	shapes	B	1	False	144	(-0.76349935598392005, 7.9964501790545448)	(2.9719987944495418, -0.29226490236073666)	(-4.9791636561820898, 6.0608331187476541)	(-3.3469165219003685, -0.18347427450358111)	1.0	slash	0.870053
9	N	B	N	B					B	4	0	shapes	N	1	False	144	(1.1643955776199935, -2.4782127974442112)	(-5.9895110351994454, 4.6165430479119873)	(-0.85419363382057512, -7.5234652733761198)	(4.84106706376582, 4.680421536001802)	1.0	z	1.32179
10	N	B	B	M					M	4	0	shapes	N	1	False	144	(-5.7873162387745509, -5.6302690679474434)	(1.7937892127100099, -8.0252629910218296)	(5.6526920393258457, 0.80529545109189726)	(-3.145104494014423, 6.3247675990616496)	1.0	slash	1.70735
11	M	A	N	A	N	M	B	B	B	8	4	shapes	N	1	False	144	(3.904192658872331, 1.4043879706646631)	(-6.1122667711382217, 4.8588390862011934)	(1.4142509653198871, -8.4524210307100081)	(-7.3461553280317604, -2.6965904737177135)	1.0	slash	1.54687
12	M	B	M	N	A	N	B	A	N	8	3	shapes	N	1	True	144	(-7.0449186836884667, -2.1227453514255643)	(-1.8210673748298536, -6.5267489948163693)	(-2.8834348388126037, 2.909761137709415)	(3.4451886514096017, 8.1513518947287871)	1.0	z	1.69049
13	M	A	B	B	N	M	A	N	A	8	1	shapes	A	1	True	144	(-0.44883771404961692, 4.8814020828091138)	(-6.9063668432891472, -4.0129898487252396)	(-8.5137325733052602, 7.7363174153202117)	(6.3201288939834193, 7.7036968164918065)	1.0	z	0.966117
14	N	A	M	B					A	4	1	shapes	A	1	True	144	(4.8625184814757958, 8.685602884848894)	(-4.6974095509637319, 8.7038026867888867)	(4.7027946015850635, -3.048415564554551)	(-2.027743454102831, -1.6385863929535764)	1.0	z	0.895674
15	M	B	N	M					B	4	1	shapes	B	1	True	144	(1.0875416339067066, 4.9901540309761199)	(-4.8657860460430653, -0.032725011989397146)	(0.22139818122057342, -0.070989763892512769)	(-5.7717433986086686, 4.7704215630979849)	1.0	z	0.767425
16	M	A	N	M					B	4	0	shapes	M	1	False	144	(1.7524166314397682, -0.26030396278673607)	(5.9302244229854928, 5.4991958113646611)	(-3.4079367600862138, -4.9862331910511468)	(-7.2216095917796528, 1.6642630243901255)	1.0	slash	0.961035
17	M	A	M	B	N	A	N	B	A	8	7	shapes	B	1	False	144	(1.1401958111839647, -7.2959346888416228)	(2.4026386742093386, 4.608867799835437)	(-5.2319148737829861, 0.27252515209384853)	(5.4984750721088158, -7.7562035207232451)	1.0	z	1.13275
18	N	B	M	B					N	4	0	shapes	N	1	True	144	(-3.210772137057635, -1.5088797187857725)	(-7.3501407730771753, 2.3013323390196128)	(1.3817067238630756, -6.2905620636652859)	(8.1371335050081868, 5.2171430923117494)	1.0	z	1.09203
19	M	A	N	M					B	4	0	shapes	M	1	False	144	(-3.531600347768026, 6.3917046001463511)	(-7.9558416106984549, -1.2814621402695554)	(6.6049194227525234, -3.0882750228911808)	(6.2902949136528949, 2.8530656121241265)	1.0	slash	0.763949
20	M	A	B	N					N	4	2	shapes	B	1	False	144	(-4.3310662640622075, -5.0949736862277719)	(7.5988394643851578, 1.7821905877090369)	(1.7326437751366512, -2.2292935419008355)	(-6.1680376304684241, 6.6488904981933246)	1.0	slash	0.821643
21	N	A	M	N					B	4	3	shapes	N	1	False	144	(3.1703554020193323, -7.8279570770461451)	(6.9631995918344227, 4.044865953383594)	(-1.1124231991396423, -5.9867198938257777)	(-7.2355021952371255, 3.9160296357945441)	1.0	slash	0.779354
22	M	B	M	N					B	4	1	shapes	B	1	True	144	(4.3975852317565387, -0.057186004944870916)	(-7.3506544945943464, -5.4288169647768649)	(1.6380365520937623, 7.6885615911804628)	(-7.4345162862804779, 1.4527600577775921)	1.0	z	0.944912
23	M	A	A	B	M	B	N	N	A	8	3	shapes	B	1	False	144	(0.48730424154303087, -4.5958560475677013)	(-5.2325077427966065, 0.2981641098094876)	(7.6168136364053929, -0.86681273030237715)	(-6.7756238511223117, -7.3048662500672279)	1.0	z	1.76056
24	M	B	M	A	B	N	N	A	B	8	4	shapes	B	1	True	144	(7.1546839705681293, 4.2107199658003527)	(1.0736472502678627, -6.4493736903715515)	(6.8234897951944919, -2.9080146308176218)	(3.0114103741324207, 7.7490594132973207)	1.0	slash	1.51011
25	M	B	M	A	A	B	N	N	A	8	3	shapes	A	1	True	144	(-1.3381691497436439, 5.3534982958959869)	(6.6210254789486012, 6.5068827646392737)	(-2.0030456394328882, -6.2734750277952545)	(-8.3239511434283493, 5.5516430505059589)	1.0	z	1.20566
26	M	B	B	N	M	A	N	A	N	8	4	shapes	M	1	False	144	(1.9565769959951655, 6.0226245873687034)	(-3.0794227020735141, 0.78388278945001844)	(6.8400083535219434, -3.4367580781653979)	(-6.4777130193694701, 5.1734760250561997)	1.0	z	1.40937
27	N	A	N	B	B	M	A	M	M	8	5	shapes	M	1	True	144	(-4.2603156648202578, -3.4421383151737368)	(-2.0436435321900879, 2.0000857053082832)	(4.1835641031628494, 6.3717795574322871)	(-1.5374953737659594, -7.2466743148282156)	1.0	z	1.24485
28	N	B	N	B					A	4	2	shapes	N	1	False	144	(6.6071856660282098, 7.689398435766801)	(7.8381011921662811, -5.7459068890105911)	(-2.7954817911944039, 1.5758670336983656)	(-6.231248002445513, -2.3660306594383584)	1.0	slash	0.726193
29	M	B	B	A					M	4	0	shapes	M	1	True	144	(-0.55740538858772481, -2.542880479738729)	(-5.3202459765418704, 3.5023752109008619)	(2.1146649661554733, 1.3684517347108489)	(8.7057259753701395, -4.6333283871246547)	1.0	z	1.05619
30	M	B	M	A	A	N	N	B	N	8	7	shapes	B	1	False	144	(-7.7798650650043841, 3.2901902142529647)	(-1.7862831446355232, -6.7390128527054207)	(-2.4622234597031687, 8.5704811515565744)	(2.3404914888848989, 4.930048347786677)	1.0	slash	1.42593
31	N	B	B	A					M	4	3	shapes	A	1	False	144	(5.2687135809431282, -1.7980181856813182)	(-3.8379334220445225, 5.3148576919883936)	(-0.32757118330985513, -8.0228297480913398)	(6.3558039356795888, 7.572156432039332)	1.0	slash	0.815409
32	N	B	A	B					N	4	0	shapes	N	1	True	144	(2.4736167039594825, -4.8256180740920467)	(-3.0340718145637071, 7.3516202775957815)	(8.4502183746179043, 2.5985607199893579)	(-8.1326790701892211, -1.687660677608573)	1.0	slash	1.05521
1	N	A	A	B					N	4	3	shapes	B	2	False	144	(-4.714423517014124, 1.9932596339749526)	(-2.3405139713215641, -7.1476597838791882)	(2.9432778530524129, -4.4567482841049877)	(0.68721946999055561, 7.5543276588724098)	1.0	slash	0.678859
2	M	A	N	N					N	4	0	shapes	M	2	False	144	(4.3221075137437985, -0.070221880519522273)	(3.5059566850803439, 7.4885124507619274)	(-5.1154609844474583, -6.0365908928760783)	(-4.1804188717912547, 7.2277543400595174)	1.0	slash	0.936306
3	N	A	N	A	B	B	M	M	M	8	5	shapes	B	2	False	144	(1.3890905470598369, 5.5988359651823991)	(-6.1284443357168747, 0.37924864607800224)	(7.5572655439145642, 5.359326170427126)	(-2.539626788792245, -6.6187173589900912)	1.0	slash	0.769368
4	N	B	B	A					M	4	3	shapes	A	2	False	144	(4.0678400885903816, -8.6349977668643003)	(-1.8878847857379686, 3.0431894884209019)	(-8.2427901187627306, -3.8094922499769845)	(2.6766100186818171, 7.7612582925979616)	1.0	slash	0.801662
5	M	A	B	M					M	4	0	shapes	M	2	True	144	(-0.88938115038840593, 3.6727086430405524)	(-3.9785476276644385, -2.5258164068442595)	(3.2672870739015796, 5.3400017346427049)	(3.2169327708427637, -8.7230831687597821)	1.0	z	0.875414
6	N	A	A	B	B	M	N	M	M	8	5	shapes	M	2	True	144	(-4.9285399498878766, -1.5465295968366259)	(-1.5704301333733062, 4.3723653071428963)	(1.8664665217340186, -7.0519571978937696)	(6.5928148086545981, -0.052975936600217821)	1.0	z	1.09685
7	N	B	A	A					M	4	1	shapes	B	2	False	144	(3.6729463959543427, 0.49647529182473171)	(3.9483734792758511, -5.3488490999854061)	(-2.8314304461583877, 2.4435567900495361)	(-6.9226154223422913, -7.2520958306522694)	1.0	slash	0.896401
8	M	B	B	A	M	N	A	N	M	8	4	shapes	M	2	True	144	(-0.6559146886373064, -1.0333964509491054)	(-4.5994235225373092, 8.0178392801985083)	(-1.9489229598529407, -5.7028655941900936)	(4.3242670906946525, -7.9434802663485797)	1.0	z	2.13
9	N	A	B	B	M	M	A	N	N	8	6	shapes	A	2	False	144	(-1.6617092725537974, 6.0718450952921277)	(5.1113927030315338, -0.30067204880710463)	(-7.4771549746597721, 4.5382236402043272)	(8.0601063119905518, 8.4461696622208784)	1.0	slash	1.05382
10	N	A	N	M	M	B	A	B	A	8	3	shapes	M	2	False	144	(8.1387895003143278, 6.4746598269015596)	(-1.6913386746991304, -6.5898506295660546)	(-4.8524615686106856, 6.2702904639897703)	(6.144534234932248, -2.4336378043037294)	1.0	slash	1.00749
11	N	B	A	B					N	4	2	shapes	A	2	False	144	(-5.8886498313763358, -4.7315978090003705)	(-3.7030503924113978, 0.030320964802506012)	(7.5538979910606976, -7.4476605418201558)	(6.5167552656008603, 8.2247632914881272)	1.0	slash	1.08106
12	M	A	M	B					M	4	2	shapes	M	2	True	144	(3.4471387846071568, -4.5387090206033971)	(-6.9874187662327678, 0.33185480467900597)	(2.5670682320446296, 8.7108803328614961)	(-6.2327022355616091, -5.4885230643392378)	1.0	z	0.954535
13	M	B	A	N					M	4	0	shapes	M	2	True	144	(-4.206952908520095, 4.6843840138859338)	(-3.2458745229151118, -8.6932207510469741)	(7.1891967234543852, 3.9504496841956307)	(5.0685296813464973, -7.234739888509842)	1.0	z	0.926355
14	M	B	B	A	M	N	A	N	B	8	2	shapes	B	2	True	144	(5.5339756591275915, -0.75252477528029527)	(-7.7327655947280016, -0.90012714727476251)	(1.1379880886550264, 2.0657376348023799)	(-3.0066683580862472, -0.51745760592158518)	1.0	slash	1.69792
15	M	B	A	M					N	4	1	shapes	B	2	False	144	(5.2135799766932145, 6.9890955556062124)	(-1.0565093463659245, -1.6922088955205581)	(3.345019583840255, -6.597703178400125)	(-3.4139558681291389, 2.2380065215427312)	1.0	slash	0.919533
16	M	B	B	M					M	4	0	shapes	M	2	True	144	(-6.0334158185864508, -4.453648758958912)	(1.0567974250919541, 4.0444473263455656)	(-8.0551868929321504, 6.4648928098791298)	(1.4095831485278456, -0.22416729340085872)	1.0	z	0.713062
17	N	B	A	N					B	4	1	shapes	B	2	True	144	(0.73686402001520612, -3.9113898628832153)	(-6.298429779511773, -1.7808757892045577)	(3.6122178494906088, 8.3430861490888191)	(-7.8544766431816182, 4.0280916522337602)	1.0	z	1.581
18	M	A	M	A	B	B	N	N	N	8	2	shapes	M	2	False	144	(1.2004800234453654, -3.4848855118766986)	(-6.4966585747604313, -5.888082225065733)	(-0.62778434243349501, -8.1478211896321469)	(5.1245629926866805, 4.4006466215591118)	1.0	slash	1.17435
19	M	A	B	A	B	M	N	N	A	8	3	shapes	A	2	True	144	(-6.0624031287118525, -2.8464335224935029)	(5.2354889393628454, 1.6282881032574519)	(-6.5411234866272165, 5.1987343543294422)	(6.3433130936155404, -3.7945809434205007)	1.0	z	0.856147
20	N	B	B	M	M	N	A	A	B	8	7	shapes	A	2	False	144	(8.6682114617725752, 5.3426560985727143)	(-1.6369509090418255, -3.393894184926296)	(-5.506407754171712, -6.1585455373280338)	(-5.5214014550922492, 6.4169681116588588)	1.0	z	1.09764
21	N	A	B	A	B	M	M	N	N	8	5	shapes	M	2	False	144	(-6.874956823478275, 3.7303296647698367)	(-0.35295919292294364, -8.4393059692892258)	(-1.3922555626519708, -3.9795927109997438)	(7.703770485871928, 5.9090294247828208)	1.0	z	0.875721
22	N	A	B	A	M	N	B	M	A	8	0	shapes	N	2	False	144	(-2.5735743476551081, -5.9836662507732976)	(2.0435774140662417, 1.0728887031080969)	(6.4730983579837638, 7.6280965506125824)	(-8.5561087161636138, 5.6214691697143024)	1.0	slash	0.785051
23	N	B	A	M					M	4	2	shapes	A	2	False	144	(-3.0480762251139666, -2.2182243365216152)	(4.8047538676069053, -7.17028587939574)	(-7.6881796421022903, 6.540122555948777)	(8.7128946426862015, 7.3631793124877767)	1.0	slash	0.950755
24	M	B	M	B	N	N	A	A	B	8	3	shapes	B	2	True	144	(4.9764512900905693, -0.9027938545830887)	(3.497703984961543, 3.4925826010935008)	(4.076592617828414, -5.024775565637694)	(6.1376072432045046, 6.7109489853358557)	1.0	z	1.06244
25	N	B	M	A					B	4	3	shapes	A	2	False	144	(1.9721813448369474, -5.4326538972028304)	(-2.9940983441420794, 4.9013005731289336)	(-4.3430402058028372, -7.7039679891221162)	(6.5210120670123768, 0.95189419164532119)	1.0	z	0.931915
26	M	B	A	N					N	4	3	shapes	N	2	True	144	(-0.80282718719632218, -7.4357529284328567)	(1.1081002747666702, -2.1472104329635329)	(-2.1852216062035232, 1.9991898818354734)	(3.6084510002924901, 1.2634865708361431)	1.0	slash	0.843626
27	M	A	A	N	B	B	N	M	N	8	3	shapes	N	2	True	144	(1.5145632218495724, 2.0326799423188966)	(-4.7838136954462493, 1.4977176006057942)	(7.0531678246371818, -4.9371404495029454)	(-3.2300946672397233, -8.699026770685137)	1.0	z	0.783403
28	N	B	M	M	N	B	A	A	A	8	6	shapes	A	2	True	144	(-0.70492280163008125, -3.4809319017756666)	(1.7503238682114635, 3.6156534491650145)	(-4.578642842413319, -7.6096429291030212)	(-2.6797374836283767, 6.0904385880085066)	1.0	z	0.966889
29	M	B	N	N					N	4	2	shapes	N	2	True	144	(4.9528849268137467, 2.0097329638909684)	(-5.4929730735793605, -1.2764634427003285)	(-5.9339843464887148, 8.1760682452946227)	(3.8178276367834361, -8.3312199165135699)	1.0	z	0.93647
30	M	A	M	A	B	B	N	N	N	8	5	shapes	B	2	False	144	(-1.4541462337780917, -1.6177518527345827)	(-8.5927587915967116, 1.9910089798632882)	(-0.18657972383224397, -6.3995591434559316)	(2.6362761631369072, 3.3100721409723786)	1.0	slash	0.8742
31	M	B	N	B	N	A	A	M	A	8	5	shapes	A	2	True	144	(-0.26372159586400024, -8.1722680730506436)	(-0.14737775791582131, 4.3060255759063253)	(3.125407992139845, -2.9777354308280879)	(-5.5805966602132697, -4.7899132537607798)	1.0	z	1.00793
32	M	A	A	M					M	4	3	shapes	M	2	True	144	(6.4068780263031009, -4.9196743205493938)	(-4.796344614863175, -4.7039099529185702)	(-6.8934848464193825, 4.5045895053315164)	(8.3792348580087932, 5.0386826037318908)	1.0	z	1.35945
1	N	B	N	M					M	4	2	shapes	N	3	False	144	(-0.042372143617647851, -8.0734820768004472)	(6.3357498109202215, 7.0805577569061189)	(7.6193458268822454, -3.0604054042654889)	(-5.9183772241295394, 4.37579331783048)	1.0	z	0.909135
2	M	B	B	A	M	N	A	N	N	8	3	shapes	A	3	False	144	(-0.96571366739396947, 0.41686646780864223)	(5.6824204335281152, -1.0110740443232578)	(-4.5823498660781539, -7.2592412105974802)	(-5.2334497441251759, 0.5476499739314491)	1.0	slash	1.29281
3	N	A	N	A					M	4	0	shapes	N	3	False	144	(7.5277656578811829, 5.272178305854414)	(-5.9003843772249862, 5.5209651797654953)	(-6.4562862761603999, -6.0386553595605488)	(7.401345479493866, -1.0596792161099149)	1.0	z	0.716398
4	M	B	A	N					A	4	1	shapes	B	3	False	144	(1.7542011589754161, 0.15891773107745877)	(-8.256850407279174, -4.9177399977070504)	(-2.5697759157693953, 8.4652334630445054)	(4.543594587903323, -4.4284984680805595)	1.0	z	0.928006
5	M	A	N	B					N	4	2	shapes	N	3	True	144	(-8.2795081437996476, -1.8863711865750261)	(-2.3503999916756966, 1.2221729737678846)	(7.0210218734146199, 5.438717577577016)	(0.29485416141960918, -2.2258154833790469)	1.0	z	0.735189
6	N	A	N	B	A	B	M	M	N	8	7	shapes	M	3	False	144	(-8.6711176204897189, -4.1023348014334546)	(-3.4959127227004565, 1.2368605407901505)	(-4.1407518634490774, 5.7660971634396034)	(-1.8411389207412379, -3.5447596525972589)	1.0	z	0.937306
7	N	B	M	M	B	N	A	A	A	8	6	shapes	A	3	True	144	(2.2609717125010036, -8.641950971435751)	(3.7915948553449113, 1.8902154069325352)	(7.7420714073421948, -5.2991409274038084)	(-1.808343625214933, 4.7058462060884558)	1.0	z	1.23492
8	M	B	A	A	B	N	M	N	N	8	2	shapes	A	3	False	144	(-3.4332764482937188, -5.090139219814187)	(-2.1946764423872001, 1.3339343876656997)	(0.90974716972630532, 6.4130193681000236)	(2.9616136764423722, -5.4251697399435699)	1.0	slash	1.64052
9	M	A	B	A					M	4	3	shapes	A	3	False	144	(-2.9216378101258327, -7.1433184507351379)	(1.1268735828396785, 5.4595892114390523)	(6.2983839852625003, -4.6033911467585806)	(-3.304311986514187, 5.579852343998688)	1.0	slash	0.770239
10	N	A	N	M	M	B	B	A	B	8	1	shapes	A	3	False	144	(5.8730817457675339, -1.5896660536442573)	(-0.87387749907070145, 3.648019544682672)	(-8.6495068694732993, 7.7586744777355179)	(8.2899487408687733, 2.3793647146725849)	1.0	slash	1.42969
11	M	B	B	A					A	4	2	shapes	B	3	False	144	(-3.2585540760034037, -6.3468890101475877)	(5.3735281001108355, 6.2039816068338496)	(8.4836337519072345, -6.7225807494436012)	(-5.5886574467612498, 3.4478814208025579)	1.0	z	0.968961
12	M	A	A	N					A	4	2	shapes	A	3	True	144	(-7.7048155996553618, 8.5491976691151663)	(2.039176318955759, -6.4406615817520905)	(-1.2443403795656396, -2.4325989935450583)	(1.7302187001517506, 0.70687329067640015)	1.0	z	1.31292
13	M	B	M	B					M	4	0	shapes	M	3	True	144	(-8.2249163517765673, 3.6269386746278496)	(8.5773580722622249, 2.0916299672645824)	(-2.1726471350403855, -4.5946981671103408)	(5.9046939038544011, -7.5348431741762463)	1.0	z	0.972671
14	M	B	N	A					A	4	3	shapes	A	3	True	144	(1.6195633973372985, -4.1108333326529829)	(-1.7651698124094404, 6.8756339568650375)	(1.1133034342840169, 2.9020176036597647)	(-6.8838747994673319, -5.051206764289673)	1.0	z	0.668762
15	M	A	M	A					M	4	2	shapes	M	3	True	144	(7.2487331795058516, -6.2785186864592024)	(3.8283955736429487, 4.2152824812383134)	(-2.6620610569253076, -6.4151795052973544)	(-6.9187916945103067, 3.0479250924329708)	1.0	z	0.640017
16	M	A	B	A	N	M	N	B	B	8	6	shapes	N	3	False	144	(5.7902049147014463, -6.2867527782459174)	(0.23475054805380857, 2.1498071631998457)	(-0.53791370476088041, -4.4282363270435772)	(8.3448891346358245, -1.4212194595053145)	1.0	slash	0.933428
17	M	A	N	M	B	A	N	B	B	8	2	shapes	N	3	False	144	(7.0977267514259719, 8.4571198386974906)	(-1.8943344339937074, -4.6318135054426417)	(5.1094849838521199, 0.10940154750075948)	(-6.4452803301282433, 3.4767455899715127)	1.0	slash	0.999314
18	M	B	B	M					M	4	3	shapes	M	3	True	144	(-0.78191080924112732, -5.7613194280940672)	(-0.93953984926343992, 4.3514168265600173)	(0.26230450067060573, -0.095850018040266605)	(6.1087273698809668, 1.0925323871858321)	1.0	z	0.632961
19	M	B	N	B	N	A	A	M	A	8	5	shapes	A	3	True	144	(2.9927795668038257, 0.76781637662728741)	(7.3506269938039921, 2.6362278305953009)	(-2.8933104953821447, -5.3902726713493658)	(-0.16850448532624895, 8.4261583764403341)	1.0	z	1.49483
20	N	A	N	A					N	4	0	shapes	N	3	True	144	(3.8903542657006813, 7.0169683129619589)	(-4.0728077157271629, -6.9639346719425133)	(5.2271287815004364, -7.7108033013068056)	(-2.6266430326705787, 2.9012570731118306)	1.0	slash	1.75021
21	N	A	N	M					A	4	3	shapes	M	3	False	144	(-0.29306625545942744, -4.3013927496354523)	(-1.8347847115178526, 4.5567318930460772)	(7.7502063143435898, -1.4983669108461743)	(2.4908242456709591, 2.0378640938768271)	1.0	slash	0.921632
22	N	A	A	M					M	4	3	shapes	M	3	True	144	(-7.3884899906904344, 5.9434142731303208)	(4.1821363149142616, -2.034838584014361)	(8.655527946675253, 4.7406610898046821)	(-5.0333424934835982, -4.1754006112658715)	1.0	z	0.923401
23	N	A	N	B					N	4	3	shapes	B	3	False	144	(7.9327730791143551, 0.18512939763415304)	(0.39493887097761871, -4.0618367848010593)	(-3.0929476708465131, 7.0753836528431648)	(-7.9432447928906269, -8.0899789874894363)	1.0	slash	0.74901
24	N	A	N	M	A	M	B	B	A	8	4	shapes	A	3	True	144	(-0.010277555933292604, -3.5794569579337141)	(-8.7068257342465785, -7.8122183429362355)	(3.1661780207845727, -0.70889247521197696)	(6.7942680023805977, -6.7483488885139762)	1.0	z	0.796673
25	N	B	M	M	B	N	A	A	B	8	3	shapes	M	3	False	144	(2.9348605784685429, 2.6564241040474403)	(-3.4630981238552812, 4.0379708047834502)	(8.3551061239620061, -0.58009274947124467)	(-1.3871448605475774, -6.4590699944238299)	1.0	slash	1.2664
26	N	A	B	A					M	4	2	shapes	B	3	False	144	(6.2995869313684452, 6.3167763517839361)	(-2.4076827307764637, 3.375986506324093)	(5.7784355375412542, -3.9344112711353967)	(-0.61672823458068926, -3.5142256948214294)	1.0	slash	0.744043
27	N	B	M	N	M	A	B	A	A	8	7	shapes	A	3	True	144	(-2.3602528794537854, 0.60833937629708679)	(-5.5420819337469069, -2.2805602611933367)	(4.1697679203922124, 2.6170665677631391)	(1.5031481365223129, 8.5086819079357703)	1.0	z	1.16773
28	M	A	A	N	M	N	B	B	A	8	2	shapes	A	3	True	144	(-0.26741935635503289, -1.4058376598200883)	(3.5614446355072999, -4.1363851435941994)	(8.4063728657942178, -0.28461864554626715)	(3.4013545618106313, 1.4212990856945922)	1.0	z	1.15542
29	M	A	M	N	B	B	A	N	M	8	0	shapes	M	3	True	144	(-7.6562762888659366, 8.3548276029052211)	(-7.2377601261863331, -2.7819768154117677)	(-3.4174155705435467, -0.84286835157318585)	(1.8002064481512381, -4.6566166362792973)	1.0	z	0.761064
30	M	B	B	M	N	N	A	A	B	8	1	shapes	B	3	True	144	(-0.35203062440358757, -2.0773430515887075)	(-3.5123797804227586, 5.6009154766277582)	(4.559697353959006, -3.1551858874930367)	(-1.8346191060309849, -6.3233387965558814)	1.0	z	1.19858
31	N	A	A	N	M	B	M	B	A	8	7	shapes	B	3	False	144	(7.9924621380976006, 4.0923024687785503)	(4.8172822791294916, -4.8476495269083273)	(1.3179935428799521, -8.1052916068722798)	(-5.0446601402422004, 4.0175329691650106)	1.0	z	1.03791
32	M	A	B	N	B	N	M	A	N	8	5	shapes	N	3	True	144	(-1.0463706257954373, 6.5443292815113274)	(-5.3820923865849366, -7.8222551291764049)	(8.0771810827463923, 4.3691401589837042)	(7.3726307599817638, -8.0953183258196812)	1.0	slash	1.27373
1	M	A	N	N					A	4	3	shapes	N	4	False	144	(-3.2041880046806739, -3.3190579567837979)	(2.1784857040615577, 0.38336898607222913)	(2.1961702608463245, -7.6959914073217632)	(-7.0708406914005915, 7.8355831870626069)	1.0	slash	0.805523
2	M	A	B	B	M	A	N	N	M	8	2	shapes	B	4	False	144	(2.9259838707473929, -2.9701354920759924)	(3.4125559095494928, 1.3519050060587077)	(0.28267252469402493, -7.1352018930775465)	(-5.9054382644043901, 8.6326119852248624)	1.0	slash	1.75308
3	N	A	B	M	B	N	A	M	N	8	5	shapes	N	4	True	144	(6.06038203946013, -7.116288721006149)	(-3.0320106617635174, -3.6008564833431418)	(2.7387715169238422, 7.4682120757965258)	(-6.8387952077892002, 5.2101058459756757)	1.0	slash	1.14272
4	N	A	B	B					B	4	3	shapes	B	4	True	144	(4.1560192101095055, 7.1248094744910073)	(-1.6222313808764843, 7.8861415986872885)	(4.2443173278508581, -4.6366389929252358)	(-3.1164103090769588, -1.6443267110021047)	1.0	z	0.940048
5	M	B	N	A					B	4	3	shapes	A	4	False	144	(-8.707446196973132, -7.1791446508830115)	(5.9563819045843331, -1.5828102784684157)	(5.6095300766131473, 5.1382959380446742)	(-0.40536663372840565, 0.39582442703640375)	1.0	z	1.00992
6	M	B	B	A	N	A	N	M	B	8	3	shapes	A	4	False	144	(-2.350956676156903, -4.4982229666890818)	(-2.4120962915608439, 0.2752309273237934)	(1.9251667108288331, -4.7927976804103967)	(-2.2643176102528164, 6.7262431399246427)	1.0	z	1.01354
7	N	B	N	M					N	4	1	shapes	B	4	False	144	(7.5176954098238369, 6.1115782494572581)	(-4.4202793914683589, 5.5057240012186632)	(-0.6649601529063407, -4.423221020108544)	(4.692154233669557, -2.6256674312422792)	1.0	slash	0.741124
8	M	B	N	N					M	4	0	shapes	M	4	True	144	(-2.8704327165809813, 5.9033313319263314)	(2.2723651792176156, 8.6910125129612226)	(-1.9519488108966767, -0.5953994275715857)	(3.0408737266471491, -7.1755365948716676)	1.0	z	0.890727
9	M	A	M	B	A	N	N	B	A	8	5	shapes	N	4	False	144	(1.0510558197329161, -8.5854894461144884)	(-5.1814881700789286, 1.6528783811361603)	(-4.6321006077583551, -3.6074508804754304)	(-8.0151790354355406, 8.405778936360381)	1.0	slash	1.46252
10	N	A	B	N					N	4	3	shapes	N	4	True	144	(-5.5389954653456073, -1.4040495120409879)	(7.3011611038945219, 3.9888207169930254)	(-8.5818290576955985, 4.5152470925654011)	(7.5949652366144811, -8.0698508004339189)	1.0	z	0.812153
11	M	A	A	M					M	4	2	shapes	A	4	False	144	(-5.6458736221107184, -2.6805394284194755)	(-0.79776872234165985, 3.9520697036733008)	(7.5318585820597264, -7.9433296572885608)	(0.50242832586178565, 8.5336355128251178)	1.0	slash	1.14781
12	N	A	M	B					B	4	3	shapes	B	4	True	144	(2.3413654876923662, 6.7133863207650784)	(-5.8232818411674643, -8.6200243734464337)	(-4.9643696003854396, 7.4433374301326261)	(3.6986883659044096, -8.4598781344152112)	1.0	z	0.951551
13	N	A	M	N	A	M	B	B	M	8	6	shapes	B	4	False	144	(0.32542620214147, 8.2382695801051327)	(-0.43806033778985842, -6.7792484554377008)	(3.8385152785066481, -7.0293648078008051)	(3.9978672333885399, -2.0461424037124933)	1.0	slash	0.725116
14	M	A	M	B	N	A	B	N	B	8	6	shapes	B	4	True	144	(-4.0816173626259333, 1.6942893100495198)	(3.1297487483074384, -6.1225183560260685)	(-7.1751951517251218, -3.2684336472843158)	(-6.3571035999854217, 5.5865628755811194)	1.0	z	0.808796
15	M	A	A	B	B	M	N	N	A	8	3	shapes	B	4	False	144	(-4.7283285658458194, 7.0651543025216945)	(5.3194668271671031, -7.1369879330574086)	(-4.1880023880089539, -5.9609073274830742)	(-0.23772674820967232, -5.182451460709995)	1.0	z	0.972314
16	M	B	N	A					A	4	3	shapes	A	4	True	144	(-1.9649973989064868, -3.136505636859849)	(-6.0761881013014225, 7.635940171737154)	(3.1670797319705901, -7.4818935086130631)	(1.2325541322402334, 0.49897558910298834)	1.0	z	0.964164
17	M	A	M	N	A	N	B	B	N	8	3	shapes	N	4	True	144	(7.6317153598157823, 6.5139619199251531)	(-7.9797985566958509, 0.58251274275550813)	(-0.043466370985639102, -4.3886152700388976)	(-0.21047941061634567, 3.3042853223676509)	1.0	slash	0.959581
18	N	B	M	M	A	N	B	A	A	8	7	shapes	A	4	True	144	(5.8936519727881915, 4.4170621199199829)	(-6.7335210907771037, 1.7187307806760455)	(7.5423426264295159, -0.9018304158646)	(3.0229405257632411, 7.8636721176121895)	1.0	z	0.78931
19	M	B	A	N					M	4	1	shapes	B	4	False	144	(3.1441173182300517, 4.1571395221976921)	(1.5956772096348661, -3.0910859592513189)	(-7.1418657005024588, -0.22986032926492683)	(-1.4135070517257304, 2.4905064408814059)	1.0	slash	0.736967
20	N	B	N	A					B	4	1	shapes	B	4	True	144	(5.8215800868881971, -6.7719087235845183)	(5.130792293727831, 4.0763599797892898)	(-0.37758875321054042, -5.5747989339342867)	(-1.7155127819315261, 0.54169371799227761)	1.0	slash	0.928659
21	M	B	N	A	A	M	N	B	A	8	2	shapes	N	4	False	144	(3.8147019744699975, 1.5116313360320888)	(-3.9306211477374973, 0.33577171269818962)	(-0.66797887969237912, -4.0048511018815658)	(-6.1325067201974193, 6.2747660797761)	1.0	slash	0.852292
22	N	A	N	M	M	A	B	B	N	8	6	shapes	B	4	False	144	(-5.2850228901530532, -7.764982806257402)	(2.88774574979319, -2.4980992477501296)	(8.1474369853384268, 4.7137129412791161)	(-6.3932231324245059, 5.5560140179968318)	1.0	slash	0.805789
23	M	B	N	A	A	M	B	N	M	8	0	shapes	M	4	True	144	(5.2360013063313442, 0.47571219033232381)	(-7.348579152176228, -1.6870225617731816)	(0.11540313593588536, 5.6447065480943284)	(1.4226841301045763, -5.4720284161946076)	1.0	z	1.04952
24	M	B	N	A					A	4	1	shapes	B	4	False	144	(-1.4193107264040812, -0.10884558365332175)	(-1.4579850136649801, 4.0500520297299971)	(1.2025733200796846, -5.3145928103551725)	(5.0066109189463592, 2.3825516304059757)	1.0	z	2.30514
25	M	B	N	M					M	4	0	shapes	M	4	True	144	(7.1044467555999447, 2.4952326785442089)	(0.69508685291323857, -6.7063781869202304)	(-3.4345142998544143, -6.981379566365149)	(-4.675781121265584, 8.3465201810058964)	1.0	z	1.09471
26	N	A	M	A	N	B	M	B	N	8	0	shapes	N	4	True	144	(-8.3002259448546614, -0.7151016047492913)	(1.6312997407643159, 1.5883095506567066)	(-3.0066123524505057, -6.3741996707898334)	(-8.125817627270207, 5.9547639095166414)	1.0	z	0.856347
27	N	A	N	B					N	4	1	shapes	A	4	False	144	(4.2301863525704686, -1.0033138532760733)	(-3.9465337845535702, -0.94024288455542315)	(6.1461684118672988, 5.2545676844302793)	(-4.6471425580256405, 3.7484697530123423)	1.0	slash	0.720053
28	N	B	B	M					B	4	2	shapes	B	4	True	144	(5.9981506497082222, -1.1669048806615763)	(-3.3274485393824795, 3.9444687545272412)	(-3.9735493159481265, -4.1255061753823705)	(4.8905113909445355, 5.5758793443214856)	1.0	z	1.00168
29	M	A	N	N					M	4	3	shapes	N	4	False	144	(3.9273922019094414, -4.7719008046726827)	(-7.9437126482812248, 3.9226894995531048)	(6.348925667594818, 7.824868544032153)	(-7.710963406721123, -5.7784415596183392)	1.0	slash	1.82731
30	M	A	M	N	B	A	B	N	A	8	5	shapes	A	4	True	144	(1.9403235676024586, -5.7554988648612957)	(6.3172349677495578, 6.108765576207432)	(1.6059321899083248, 5.2123720035403842)	(-6.3578785065799206, 6.3532391566276516)	1.0	z	2.23495
31	M	A	A	B	N	B	N	M	N	8	3	shapes	B	4	False	144	(7.688660351174768, -4.8954520732237796)	(-3.4976595277524076, 1.5369205587871466)	(-6.7157472504642772, 5.6166380078323233)	(5.7557402832007547, 8.1938760157261932)	1.0	slash	0.760213
32	N	B	B	A	M	N	M	A	A	8	3	shapes	A	4	True	144	(-0.30661534825419423, -7.6352056287929599)	(2.4644681266254445, 2.4215449867394465)	(5.9167181081222431, -4.3779910566139169)	(3.1408188879658923, 6.4944320362513892)	1.0	z	0.750026
1	N	A	N	M	A	B	B	M	B	8	0	shapes	N	5	False	144	(-3.7132324656294644, 1.2478692315045183)	(4.688162763200884, 8.0361509769905091)	(-4.6870517351667011, -7.1132036558765259)	(-8.6419403779450832, 7.8259655181530619)	1.0	slash	0.699583
2	M	A	M	N	B	A	B	N	M	8	7	shapes	N	5	False	144	(6.3930479430763913, 2.6663686791466237)	(-2.7220080921261207, 3.5559204131435784)	(-4.6921939202693661, 7.5600294835931265)	(-1.7052763383804281, -4.6191664163721162)	1.0	z	0.813335
3	N	B	M	N	M	B	A	A	A	8	7	shapes	A	5	True	144	(5.6566997477034437, -6.2862633084987394)	(-0.21981523384287627, -5.46819308894122)	(-2.3987666105286625, 3.3659751682524366)	(6.9182467497714306, 8.2760227561578112)	1.0	z	1.4149
4	N	A	M	A					M	4	2	shapes	M	5	True	144	(-7.493281504042697, -3.7364923538877832)	(2.3409645314681153, 4.4084312366041036)	(-7.685539817090584, 7.4337930889641157)	(6.811785683727674, -5.6180987229077592)	1.0	z	0.694646
5	M	B	B	A	A	N	N	M	B	8	2	shapes	B	5	True	144	(5.1652168616804648, 2.8415820628336377)	(-7.5649390985166001, -1.2266256880331969)	(-1.6677764438423246, 3.5516044523222732)	(-4.8300024269272885, 6.3211427047614563)	1.0	z	1.03987
6	N	A	B	B					A	4	1	shapes	A	5	True	144	(3.6797842607360653, 7.6002005574605391)	(-7.1782311208886718, -5.3809944086648889)	(4.455169911711371, -1.0933596734747013)	(-5.6721021759140235, 3.3471640218900998)	1.0	z	1.13778
7	N	A	B	N	B	M	A	M	M	8	4	shapes	B	5	False	144	(3.0321037223406826, -3.5890720617710175)	(-3.009757748488715, -2.966443616093235)	(-7.1359391250365238, 3.4635173449955161)	(-2.7563510355632204, 4.8920374423163118)	1.0	slash	0.721479
8	M	A	B	A					A	4	3	shapes	A	5	True	144	(-1.980086174703831, -1.8372521880801811)	(3.0854561784895385, -2.2817678665126317)	(3.751289286742713, 7.1098859779552548)	(-5.9643234955381352, 3.5341575880362885)	1.0	z	0.746574
9	N	A	N	A					A	4	1	shapes	A	5	True	144	(8.4789242874473061, -6.7622659059699615)	(-0.95623082417091343, -7.9320832855079697)	(-1.7771207903059283, 3.1722294889530094)	(7.7562487276801022, 5.7273425164888199)	1.0	slash	1.52083
10	M	A	M	B					N	4	1	shapes	A	5	False	144	(5.2526991839118331, -0.5084360428583885)	(-6.282740555758056, -2.301089590708739)	(4.1326091268468019, 5.5592019494450167)	(-0.19989552909542319, 2.1519702590283512)	1.0	slash	0.754306
11	M	B	B	N					N	4	3	shapes	N	5	True	144	(-0.97903347809266883, -4.0972093063162554)	(-4.0016093091589164, 7.4628770742695671)	(6.7096483996698559, -6.3661589978241793)	(4.3296063117138246, 2.0096329554017505)	1.0	slash	1.43812
12	N	A	A	B					B	4	2	shapes	A	5	False	144	(3.1267980447034898, 6.3271593273803148)	(-6.8612708281854395, 2.0360022373362501)	(6.6655260378108689, -2.0079438063458026)	(-7.1427570918854455, -4.7882226986800163)	1.0	z	1.03971
13	M	A	M	B					M	4	1	shapes	A	5	False	144	(-0.54619526650464323, -4.3971803626721933)	(-2.4226554329006582, 0.063437323571427839)	(0.38565635708539858, 6.0187077359815646)	(6.7828651082102702, -8.3529451760993254)	1.0	slash	1.0734
14	M	B	B	A					N	4	1	shapes	B	5	False	144	(-7.3642470471463497, 0.78330208966671044)	(7.3228880516803088, -5.1361557036346586)	(5.4154524283415366, 8.4466301196559606)	(-0.5089370284926158, -2.1674837923093424)	1.0	slash	0.71679
15	M	B	M	B	N	A	N	A	A	8	7	shapes	A	5	True	144	(-6.8864573074572633, 8.4539318366318312)	(5.7302484726312102, 1.9436300555699138)	(-4.2480065288503805, -6.0068576226447927)	(6.3969018911196542, 6.7666931358732239)	1.0	z	1.38668
16	M	A	A	N	N	M	B	B	N	8	1	shapes	A	5	False	144	(-7.1280203811083371, -0.59780444421570778)	(2.8412831433424159, 4.6482299899129451)	(-2.8441831163742552, -2.7613786502727962)	(1.4423514319702573, -7.7889658674167936)	1.0	slash	1.09829
17	M	B	N	B	M	A	A	N	B	8	7	shapes	N	5	False	144	(-1.7579306007267137, -3.2464955014750156)	(3.2205993556270531, 0.74261331428528976)	(-1.1824587286966208, 7.7372162198874364)	(5.6168083583462192, -5.3779075735707238)	1.0	slash	1.0358
18	M	A	M	B					M	4	0	shapes	M	5	True	144	(-5.0093954834944894, 5.9284027639629073)	(-7.1814988830320967, -4.9576928414631816)	(1.3404382605819372, 8.2427738544091582)	(0.78125866220715956, -4.084569165269742)	1.0	z	0.871597
19	M	A	N	A					B	4	2	shapes	N	5	False	144	(-1.7089418032031212, 0.4910541941061517)	(-3.8133907977059627, -5.7721229109067531)	(7.8278003301026047, 5.008738095891152)	(8.5053506604773332, -6.2762888118571265)	1.0	slash	0.779262
20	N	A	N	B	A	B	M	M	A	8	4	shapes	A	5	True	144	(8.0632441224578848, 4.6401856267695862)	(3.4267148923680981, 0.61999793066067177)	(-3.654677984273337, -7.7737497376546196)	(-8.126918490406247, 7.6651003742611685)	1.0	z	0.940775
21	N	B	M	M	N	A	B	A	N	8	0	shapes	N	5	True	144	(-3.0427111963632445, 7.9393015817655481)	(-0.59581710356861706, 4.0850437575379015)	(6.8036506323679102, -8.0430899996325387)	(-1.696082968297536, -0.66025737003005425)	1.0	z	1.13435
22	M	A	N	M					B	4	1	shapes	A	5	False	144	(7.2126408760458922, -3.7645642708741365)	(-3.3149880211042237, -5.4315663233082594)	(-4.7418570784449869, 6.7312432021852864)	(6.018018846083045, 6.0910561121185118)	1.0	slash	0.973926
23	M	B	N	A	N	M	B	A	A	8	2	shapes	N	5	False	144	(-8.616268387639332, -1.5520737908254869)	(-0.62288062238763509, 2.7103014470099254)	(-2.0845656482914929, -8.4595458388303104)	(3.1089032411295676, -7.5240671875557084)	1.0	slash	0.855692
24	M	A	B	N	A	N	B	M	N	8	2	shapes	B	5	False	144	(4.0667952740989595, -7.1293178977070655)	(6.1449408585977814, -2.436615471852801)	(-4.2479616172720549, -3.3901567320314658)	(-5.496948429345224, 6.2158088324646705)	1.0	slash	0.78539
25	M	A	M	A					A	4	1	shapes	A	5	True	144	(7.1261959644329309, 7.2609095654090758)	(4.2531634386363226, -6.4510147505506339)	(-3.5955215768546891, 0.81695263941083063)	(-6.2217456731780443, -4.4026370547498281)	1.0	z	0.774957
26	M	B	M	N					B	4	3	shapes	N	5	False	144	(1.4104807745469756, 4.028753021130413)	(-0.17955860588033445, 7.7765788337301132)	(6.4990801255502095, -2.6985537573227703)	(-0.68508404163281256, -3.8411220567529387)	1.0	slash	0.694857
27	M	A	B	A					M	4	2	shapes	B	5	False	144	(-8.6492211861555859, 5.5645788066149322)	(3.3411465761092849, -2.7661154458196933)	(3.1451909669160756, 2.2393146900320513)	(-2.6057000940986201, -8.151994587329165)	1.0	slash	0.821852
28	M	A	B	B					M	4	0	shapes	M	5	True	144	(4.2389980951468971, -8.6203895479038213)	(-0.48779229397714552, -1.6607974485748045)	(-6.8919126537539723, 3.4195566569837919)	(3.7021449066558567, 3.0565914745952103)	1.0	z	0.708114
29	M	A	A	B	M	B	N	N	A	8	1	shapes	A	5	True	144	(4.7827032015871094, -3.2697174328442991)	(2.5591616635075614, 2.168862670026332)	(2.2366007065022924, 7.1277598096435053)	(7.8191801891338777, -6.4524507374283475)	1.0	z	1.09973
30	N	B	N	A	B	A	M	M	M	8	6	shapes	M	5	True	144	(-6.8433549138432168, 5.063128421660176)	(-1.6577023422991219, -0.90254519075923145)	(2.1940071252066389, -2.9518814524351553)	(7.9184767039237514, -7.9268024153406156)	1.0	z	0.933427
31	N	A	B	M	A	B	N	M	A	8	3	shapes	M	5	False	144	(0.59278330866267837, -4.9013373358241088)	(-0.78974169857042931, 1.751174187384688)	(-6.5704160782433929, -2.8466897929876218)	(8.6096566446543967, 8.3874821735128222)	1.0	slash	0.910801
32	N	A	B	N	M	A	M	B	N	8	0	shapes	N	5	True	144	(4.7713025413115826, -4.6659901601936689)	(-0.14078250117817959, 1.166692916899521)	(-6.9482541388297872, -7.3199696397288818)	(8.4849472292618096, 6.5429322860857901)	1.0	slash	1.02264
1	N	B	N	M					A	4	0	shapes	N	6	False	144	(8.5959205888108734, -2.1242750879549339)	(-0.85366924527781496, 3.6346457835857606)	(3.6230357971024691, 7.9003868426751858)	(-8.0117851160637379, -2.0387696267335507)	1.0	slash	0.606299
2	N	A	B	B					M	4	2	shapes	B	6	False	144	(8.5546322746306345, 3.3745972029022795)	(-8.3135260772707902, -3.4967895456761839)	(0.5963207950925753, -4.889247371300109)	(-4.5918094895681172, 0.26207095519101564)	1.0	slash	0.807592
3	M	B	B	N					N	4	3	shapes	N	6	True	144	(3.900358195606815, -2.6133874721727892)	(-0.17365386979665232, -2.0082286319719698)	(0.85379928725231125, 7.2990712839158718)	(-8.663485755055877, 1.9376072824779822)	1.0	z	0.94367
4	N	B	N	M	B	A	M	A	N	8	1	shapes	B	6	False	144	(-5.6422799978127234, 0.24561565333376301)	(-4.4750694876719468, 6.0363890378104639)	(3.7660988872406698, -0.79738814452293916)	(7.7757381428628953, -6.8786748101544308)	1.0	slash	1.15915
5	M	A	M	B					A	4	0	shapes	M	6	False	144	(-5.5747111804516045, -7.6532399614486391)	(-3.2400055108053181, 2.0999328389221414)	(5.9982979435582031, 0.92367615962953309)	(3.6517641658749529, -5.0991271869938224)	1.0	slash	0.752742
6	M	B	A	N					A	4	0	shapes	M	6	False	144	(-7.5251744507153839, -5.9014039170798434)	(4.6972051903704877, 3.8005884091036695)	(4.1809033142293082, -6.1266261186103428)	(-1.3371040164806152, 1.9471852581272557)	1.0	slash	0.660492
7	N	B	N	M	M	A	A	B	B	8	3	shapes	M	6	False	144	(-6.0978912494086437, -4.4652641560939479)	(-8.4948735920714302, 7.6544708756484567)	(6.747644331677872, -0.46022393848748067)	(-1.3465575210589042, 0.31379660846199364)	1.0	slash	0.766133
8	N	A	A	B	N	B	M	M	B	8	3	shapes	B	6	True	144	(4.6527688662116375, 1.3616334183557939)	(0.68628657626100953, -2.152001369108822)	(3.8526389670602246, -5.9040121950716129)	(-1.029118148562099, 2.1218421486276107)	1.0	z	1.12958
9	M	B	N	B					N	4	2	shapes	N	6	True	144	(7.6382185916846623, -7.4277951713821793)	(5.279909500137185, 5.0412491966139186)	(-0.65612518853328261, 3.4202261675726788)	(-3.7383117346137613, -6.7572093672614875)	1.0	slash	1.04949
10	N	A	B	N					A	4	2	shapes	B	6	False	144	(-6.8018930465209699, 7.5090980461623325)	(-7.0977019824157557, -5.8672814814634613)	(3.4696883415392215, 7.6098843443548034)	(0.57803382352618726, -7.9718142927342823)	1.0	slash	1.47312
11	M	B	B	M	N	N	A	A	N	8	7	shapes	A	6	False	144	(1.2327818781892166, 6.2251622610983688)	(0.76110222230460778, -5.129932960505319)	(-8.6022736398511217, 3.1751323492140155)	(7.5945118684381399, -2.0870071052263492)	1.0	z	1.11065
12	M	A	A	M	B	N	N	B	A	8	6	shapes	N	6	False	144	(-6.5089861705191145, 5.4120694575586707)	(-0.32448645620798899, -7.7247497453660525)	(-7.9206005813735807, -0.17586377777042195)	(8.7002671642081637, -4.3141697809132085)	1.0	slash	2.41215
13	M	B	B	A	N	N	M	A	M	8	0	shapes	M	6	True	144	(6.4492646760423735, 0.93427285945013416)	(4.17460473495853, 6.3089739824202944)	(6.3834422559309374, -6.1400565155776334)	(-6.0449686508341589, -3.6044544547759108)	1.0	z	0.949743
14	M	A	B	M	N	B	N	A	B	8	0	shapes	M	6	False	144	(4.6325744179336343, 6.7102332925625348)	(6.1632814526464532, 2.7353031755955577)	(-3.5278149947533182, 3.9132394388910399)	(7.5021667800216285, -4.0565902275569465)	1.0	slash	2.25926
15	N	A	B	M	B	M	N	A	N	8	0	shapes	N	6	True	144	(-7.252697863850365, -2.5008233048213704)	(-2.9859460918628393, -2.9368500068743453)	(5.9927325280483235, -5.5212206181937198)	(-7.1547479534969343, 3.0267899221047383)	1.0	z	1.06095
16	N	A	B	A	B	N	M	M	A	8	0	shapes	N	6	False	144	(-1.2398273909157824, 3.3511265120762399)	(8.618278196331957, 8.2968392639153201)	(-6.0666516422681322, -6.8798462213113254)	(3.9500332583265116, -4.6365159601959185)	1.0	slash	0.956629
17	N	B	B	A	A	N	M	M	M	8	4	shapes	A	6	False	144	(-2.4317513368075048, 8.1190296940437925)	(-6.9502162403745587, -0.90213204064081332)	(-7.325012309704455, -5.6742737251350803)	(7.9194187671211438, 4.8573695468785498)	1.0	slash	1.16223
18	M	A	B	B	M	N	N	A	A	8	1	shapes	A	6	True	144	(8.7006411731470372, -6.6977565856932557)	(-5.8496705986063127, -0.36011025600010527)	(-4.9883106572103877, 8.6982690206534521)	(-4.34564962615016, 3.5054756460027789)	1.0	z	0.837798
19	N	A	M	A					N	4	3	shapes	A	6	False	144	(1.9329222146917964, 2.5297101729336493)	(-2.7667831197297286, 3.466127352171771)	(0.30810946890357904, -7.2561959944846377)	(-5.2055179219055407, -7.0012471520921595)	1.0	slash	0.791516
20	M	B	M	A					A	4	3	shapes	A	6	True	144	(-5.2912947895402462, 1.0759477935174573)	(-5.4036545409973114, -7.3482740877175896)	(8.0959711897803039, 4.4721417004160671)	(3.0685045504550157, -7.2760083698477587)	1.0	z	0.843049
21	N	B	B	N					M	4	3	shapes	N	6	False	144	(4.9882882185955015, -0.24142653694321226)	(-1.8907395425832272, 7.4786666345518427)	(-1.0297185642977942, -5.0564786495978939)	(4.8732591240113265, 8.112879852555011)	1.0	slash	0.916794
22	M	A	A	N	M	N	B	B	B	8	4	shapes	M	6	False	144	(-7.6863132017206404, -3.8795921263877045)	(0.25184579520450434, -5.7662268351080925)	(5.8739284249724406, -7.7936227937635278)	(8.2510126871003031, 2.774920429602231)	1.0	slash	1.25857
23	M	B	N	N					N	4	3	shapes	N	6	True	144	(8.0091388842816365, 1.1914860109875178)	(-2.9635202989074614, 6.7442901727898565)	(1.0645918892227151, -8.495081272625324)	(-7.5201371062993205, -3.8646282353594472)	1.0	z	0.704133
24	M	A	A	B					B	4	3	shapes	B	6	True	144	(-4.287171927128167, -2.457385841818839)	(4.6644498132374999, 5.4827693271101623)	(-6.3861741221117043, 6.9944647419529282)	(6.2823106288543542, -1.3409273592162894)	1.0	slash	0.877661
25	M	A	M	N					M	4	0	shapes	M	6	True	144	(5.9118745680668656, -5.813557576753686)	(2.5667087917226699, 1.701914699835859)	(-1.938686788222026, 7.0847953153828946)	(-2.3451233156885785, -4.5718443632243142)	1.0	z	0.815231
26	M	A	N	M	A	N	B	B	A	8	1	shapes	A	6	True	144	(-4.8268005595060721, 0.8381595201257479)	(-0.3829723028161105, 0.39759263056784455)	(-7.3374793976578481, -4.0729713931591371)	(6.5149143185436671, 5.0403466483974562)	1.0	z	0.897088
27	N	A	A	B	M	M	B	N	M	8	5	shapes	M	6	True	144	(-5.1098777950272378, -5.3054821235956773)	(4.0658675724093118, 7.8678726372947061)	(-0.25992479251832812, 3.5399515612783734)	(7.6216166122102145, -6.5892772053393394)	1.0	slash	1.04066
28	M	B	N	M					M	4	0	shapes	M	6	True	144	(-2.492253587702657, -0.92661189660480314)	(-6.5830823124578961, 8.1872796884134083)	(1.7078480928165174, 6.8206175073399464)	(4.834049732240226, -7.7719201977246799)	1.0	z	0.834447
29	M	B	B	A					B	4	2	shapes	B	6	True	144	(-3.2566485003889349, 5.4733128619543496)	(2.132753846156012, 6.4802485209257075)	(-2.7431198076173731, -4.9653523843217213)	(2.2361606890500685, -0.66931388652215063)	1.0	z	0.910155
30	M	A	B	A	B	M	N	N	B	8	2	shapes	B	6	True	144	(0.48463976314977941, 3.7823690672473926)	(6.8456317349801417, -7.3742456398977296)	(-5.8159534230744176, -2.5993254028628838)	(-7.7652816974166941, 5.604091648312032)	1.0	z	0.781795
31	N	B	N	B	A	A	M	M	M	8	6	shapes	M	6	True	144	(-1.0396887596132309, -3.3517320586581478)	(-2.8625830194025124, 2.4203204283708573)	(-3.8997058274588703, -8.3844369525573619)	(2.3937000927197403, 0.23462443460115523)	1.0	z	0.997102
32	N	A	A	M					M	4	1	shapes	A	6	False	144	(-7.6243396871882201, 7.4869606278501415)	(-7.0367120464191455, -6.1603558205382143)	(0.36825217020694545, 1.6065268127574956)	(6.6290957684436282, -6.5341921778616374)	1.0	slash	0.728938
1	M	B	M	A	N	B	A	N	A	8	6	shapes	A	7	True	144	(-7.3710856473004958, 2.6476137305396605)	(7.7082683060732045, 1.5590491199660921)	(-4.7496292676159451, -3.7179297753417835)	(7.9246449930856642, -2.5352605756364017)	1.0	z	0.986556
2	M	A	N	M					B	4	1	shapes	A	7	False	144	(-1.2293119899434881, 5.9854904912085711)	(-4.7316441353554373, -0.56180493698610157)	(4.6516569716789373, 6.1609382823409895)	(4.5552922695183842, -7.1938731033719021)	1.0	z	0.768219
3	N	B	N	M					B	4	0	shapes	N	7	False	144	(-6.5495782646644924, -0.34766647783268567)	(5.3117669202959945, 0.15739659841693054)	(3.2046574243214483, -3.9068917672046881)	(-6.395326635952479, 6.2384909956273464)	1.0	slash	0.631904
4	M	A	N	B					M	4	0	shapes	M	7	True	144	(6.0492280784804286, 7.4838342142955376)	(-2.8478339093478837, -1.5976204232535869)	(-8.096761016612346, 7.9216253829667309)	(4.6543155060018346, -0.85196297886231775)	1.0	z	0.771581
5	M	B	B	A	N	N	M	A	M	8	0	shapes	M	7	True	144	(-2.8223286146828404, 3.0760709862541127)	(6.5040693513377459, -2.9997313838229944)	(-7.1871891392604663, -5.8705940773820773)	(-6.7325902006065821, 4.052751097734248)	1.0	slash	1.26105
6	N	B	A	B	N	M	M	A	A	8	7	shapes	A	7	True	144	(5.5571232868811116, 6.5231310736874217)	(-7.7531891248518665, -5.5504687198043587)	(-4.5207932470626098, 8.1143550882475068)	(0.66382898849488647, 5.3218241224856868)	1.0	z	0.710855
7	N	A	M	N					B	4	2	shapes	M	7	False	144	(-5.0387332879142832, -4.2730462154991908)	(-5.2029408873915308, 6.5250307615158274)	(4.9782045477733181, 7.5061979028843666)	(3.3465636557339362, -5.0388023274275469)	1.0	slash	0.698323
8	N	B	M	B					B	4	1	shapes	B	7	True	144	(-1.0833576705837187, 2.2483197942140425)	(5.0049284126022542, 1.6409592535596946)	(-5.0207628846323633, -0.45667557191546848)	(1.412652630051614, -2.259739569332468)	1.0	z	0.632202
9	N	B	B	N					N	4	3	shapes	N	7	True	144	(4.864114876508566, 4.9139184973243903)	(-4.5637068921736388, 0.16553939792204808)	(1.2079923054018185, -4.366999692198748)	(-6.2227266270855317, -4.8279992758411705)	1.0	z	0.651695
10	M	B	M	A					M	4	2	shapes	M	7	True	144	(0.63056343189055575, 0.67843554783008919)	(-3.8274468749339228, 4.8502616541403292)	(-1.499982332980351, -3.6256867513085531)	(2.5761105997764577, -4.0779114433974764)	1.0	z	0.747404
11	N	B	A	M					N	4	0	shapes	N	7	True	144	(-7.8437487641953005, -1.7010406580135067)	(-0.59912819704126896, 5.3178640452591228)	(3.7791893282717357, 7.8131959061125968)	(2.2154667106811985, -2.1504198582664609)	1.0	z	0.537171
12	N	B	B	A					M	4	2	shapes	B	7	False	144	(2.1923078942897583, -7.6782830164706954)	(-7.9109972023688604, -1.348802636855523)	(5.540166494692528, 3.547858453285734)	(-5.6151851936369734, 8.532661223113319)	1.0	slash	0.608909
13	M	B	N	M	B	A	A	N	A	8	5	shapes	A	7	True	144	(6.565179593415472, 0.66852642887741531)	(6.9905987419486451, -4.8267959359827524)	(6.2840096537825207, 4.9821186455253166)	(1.3654328828296993, -1.4352137140735799)	1.0	z	1.08636
14	N	A	N	A					A	4	3	shapes	A	7	True	144	(-7.5670740199245285, 4.505870463332446)	(5.083745979145867, 7.5930708572339434)	(6.3009965620354809, -7.9095054155518358)	(-6.0059880781196551, -8.257733392098018)	1.0	z	0.816005
15	M	A	M	B	A	B	N	N	B	8	7	shapes	N	7	False	144	(-8.4870717105964832, 1.2088418687674416)	(4.4965043204028543, -6.0378546052409616)	(-2.8775699177275733, -8.6859785225589814)	(7.5640602877111718, -2.1818266471152334)	1.0	slash	1.06565
16	M	A	B	B					B	4	0	shapes	M	7	False	144	(-4.5844631076948223, -1.6104759509296782)	(-8.2677853759443583, 5.6197995260848934)	(2.9329331688900364, -0.54012192621472721)	(1.9958529046007385, 6.1269855392416535)	1.0	slash	1.60744
17	M	A	M	A					M	4	1	shapes	A	7	False	144	(3.8676815218587599, 7.5260390004734035)	(-7.868406768332382, -0.36513730328047878)	(-2.4670355154140635, 8.7300263778301535)	(0.74408010128836288, -6.5370191916551583)	1.0	z	1.21496
18	M	B	B	M	N	N	A	A	N	8	4	shapes	N	7	True	144	(-4.4806904869651181, 2.7666776172133147)	(3.6842350559096175, -5.2914360157453988)	(2.944033556602232, 4.1130509337464218)	(7.5961349114634942, -0.6896403312545818)	1.0	z	1.24052
19	N	B	N	M	M	B	A	A	N	8	0	shapes	N	7	True	144	(-1.1772253472572967, 3.2307034028475226)	(2.9533369309232036, 7.230139973569166)	(-5.680643038015142, 2.0509812621838606)	(5.6508754723269714, -3.5157838909630215)	1.0	slash	1.14209
20	N	A	A	N	M	B	M	B	M	8	6	shapes	M	7	True	144	(-7.2704041736106673, 6.6319046941024578)	(-6.720746908684422, -7.995714017776371)	(-0.062889799383459177, -1.9696379043190273)	(5.2482729660868195, -1.5704314943047519)	1.0	z	0.991714
21	M	B	N	B					B	4	1	shapes	B	7	True	144	(7.2707642565312085, -4.1372098000146433)	(0.96373993686155579, 6.6149090189603399)	(-7.7030889857972458, 4.6724492273345533)	(-7.9582644077859506, -3.802773655866944)	1.0	z	0.691459
22	N	A	M	A	B	N	B	M	N	8	4	shapes	B	7	False	144	(-6.8619239888828325, -1.8079963413190896)	(1.439377011938344, 8.2028038497303726)	(-1.5499714955949342, -3.0954303357638837)	(4.8138465988508639, -3.2162305572919365)	1.0	slash	0.877096
23	N	B	B	N	A	M	M	A	N	8	1	shapes	B	7	False	144	(4.4697725526734029, -0.97392061163868515)	(-4.7808950692064718, -4.2499893460585012)	(2.897839852422015, 7.2781357804400493)	(-1.3569773721501637, 2.9412478382643936)	1.0	slash	1.13098
24	M	B	A	N					M	4	3	shapes	N	7	False	144	(-3.8945366556880527, -1.5348543344005252)	(-2.1898515814447119, 2.9263136816178008)	(7.7771245055456397, -8.0268837194612299)	(2.9949957063671633, 7.3442034291758276)	1.0	z	0.858399
25	M	A	A	B	B	N	M	N	N	8	1	shapes	A	7	False	144	(1.0567300401711996, -7.5354721125607691)	(-7.8148677872632026, 0.55179044256635912)	(1.3809718824426298, -0.8725921123307856)	(-0.35484305422457929, 7.2746010762355873)	1.0	slash	1.95802
26	M	B	B	M					N	4	3	shapes	M	7	False	144	(-8.0114398584572513, 3.3013228694149976)	(5.9723172295982643, -1.9960993138698955)	(-2.037638015798886, -7.4029762578493514)	(5.9620172540936434, 3.7948689284667942)	1.0	z	1.00764
27	M	B	A	A	M	N	B	N	A	8	0	shapes	M	7	False	144	(-1.1709334844394634, 2.4384621846192776)	(-6.8574123747245679, 1.0912608314729564)	(5.2481727638195608, 2.2644903773664318)	(1.4810339955505327, 6.0422814512404894)	1.0	slash	0.993143
28	N	B	M	N					N	4	3	shapes	N	7	True	144	(7.5259559458687413, 7.4432802242875056)	(-2.4487946468725887, 6.1236715477676711)	(8.1182658338539468, -5.8543506891034252)	(-0.99185209386619899, -0.79639515856962539)	1.0	z	0.948851
29	N	A	A	M	N	M	B	B	N	8	4	shapes	N	7	True	144	(-2.6409754101321479, 2.1445910194313793)	(1.5073790915873211, 6.2853412421482791)	(-2.8919495586660986, -3.0570139412449295)	(1.6890011967623799, 1.6545902496890204)	1.0	z	0.844599
30	N	A	A	M	M	N	B	B	M	8	0	shapes	N	7	False	144	(1.1569287569080373, -5.7794612152245488)	(-5.0301548271826917, -7.2219654561462745)	(3.4999804525181268, 1.3235301124112429)	(7.164984389070316, -2.3596503350430966)	1.0	z	1.0402
31	N	B	B	N	M	M	A	A	N	8	4	shapes	M	7	False	144	(-4.5166836820359295, -6.6842533939289108)	(-6.7875893266436886, 8.5189793371499682)	(-8.4112722923082508, -2.5648177047633771)	(-4.7362199224664456, 4.0555082613444871)	1.0	slash	2.34988
32	M	B	A	M	N	B	A	N	B	8	7	shapes	N	7	False	144	(-8.0278341350762652, -3.1514267354799061)	(-0.86452581475491108, -7.4537576226232414)	(-7.8142938516148313, 7.2719466672818278)	(8.2617137470123403, 3.1556045088337861)	1.0	z	2.74125
1	M	A	N	B					B	4	2	shapes	N	8	False	144	(-1.260447459695742, -1.8676239937275723)	(-3.2098720946078618, 2.6585065052080292)	(0.32081907960525768, 8.5007958248513518)	(3.8855422320796933, -8.4918108548417397)	1.0	slash	0.828868
2	M	A	B	N	B	N	A	M	A	8	2	shapes	B	8	False	144	(5.6345691411344134, 6.5691587367800395)	(-8.6278960712947939, 3.1439494058272164)	(-5.4212013929039111, -6.7679756483272389)	(-0.051169901424547248, 4.4544140502668821)	1.0	z	0.980544
3	N	B	N	M					B	4	0	shapes	N	8	False	144	(5.8479294129066748, 5.9729924834460046)	(-8.343967088664753, 1.9967235032148576)	(4.9960567534880482, -2.2278252253665842)	(-6.3943441072061855, -1.6836438941961642)	1.0	slash	0.802372
4	M	A	B	N	B	A	N	M	M	8	0	shapes	M	8	True	144	(-5.9646161533373006, 3.7960384179133815)	(2.1685970375096169, -5.441900737879263)	(-2.4748802143373023, -5.3304206569311283)	(7.0547943027850213, 7.4285170235581575)	1.0	z	1.38574
5	M	B	A	N	A	B	M	N	B	8	4	shapes	A	8	False	144	(1.98186128612865, 5.3235733502999025)	(-4.0144896117076225, 2.6449875341442457)	(-6.7510695050439002, 6.6384589188844743)	(-1.9026478388953434, -3.9761365111975246)	1.0	slash	1.50508
6	N	B	M	M					N	4	0	shapes	N	8	True	144	(3.088610038182166, 8.1083347277900089)	(-1.7297628470345519, 3.9776641948637241)	(-0.11515108504153559, -3.7523358032323912)	(4.3783975166883469, -0.39122100278106764)	1.0	slash	0.87892
7	N	A	A	N	B	B	M	M	A	8	2	shapes	A	8	True	144	(-3.294604777519341, -1.0053024578898224)	(5.2409022482772176, 8.5004415174456263)	(2.6515468815983922, -7.1170944121136852)	(2.3576656419129893, -2.3201740186208326)	1.0	z	0.820478
8	M	B	M	N	B	A	N	A	M	8	1	shapes	B	8	False	144	(7.4090840761435963, -6.7717556406417536)	(-1.7925545751755418, 8.1561644735145364)	(-4.7745613880410218, -3.3180934893736342)	(0.14545843915636425, 1.7708108879919848)	1.0	slash	0.790117
9	N	B	B	N					N	4	3	shapes	N	8	True	144	(-4.9019735682333287, 2.4758568717536438)	(5.8239617523390166, 8.0816326285346847)	(7.2630288799245335, -5.915695127927183)	(-1.9997548965572935, -1.8180686742455006)	1.0	z	0.92158
10	M	A	N	B					A	4	2	shapes	N	8	False	144	(-4.72075151404926, 8.2740833622691383)	(6.3110667941466012, 7.2101333537234407)	(5.7500705005509403, -2.8521184722119628)	(-3.5525288405667368, -7.5278532925486186)	1.0	slash	0.755686
11	N	A	N	A					M	4	3	shapes	A	8	False	144	(1.3063878718008102, -7.2223941236842339)	(-3.3937677035927836, -3.5927488937526526)	(-8.1258815498551424, 8.1300414675717221)	(2.9783898417784247, 8.6216422952423954)	1.0	slash	0.839112
12	N	B	N	A					N	4	1	shapes	B	8	False	144	(0.65607403451291368, 6.0195064764476793)	(-6.2047508517665406, -7.7351575789633298)	(2.9757564967130481, -5.4759401803221488)	(-4.9453906937057077, 6.1848604485453809)	1.0	slash	0.688858
13	M	A	A	N	M	N	B	B	M	8	5	shapes	N	8	False	144	(-3.6961305506202233, -6.5066492881121896)	(8.5978184176970949, -6.8076393955409156)	(0.953313314634606, -4.5447545932129971)	(-8.5849888977457809, -0.35893743210150753)	1.0	z	0.778509
14	N	B	M	M					N	4	0	shapes	N	8	True	144	(5.0115778862053606, -6.5687598861562932)	(-1.8629305136903866, -4.2996674630071974)	(1.9806811220924292, 4.4181203221799343)	(-2.7297130508781615, 8.0899044345289575)	1.0	slash	1.50416
15	N	B	A	N					B	4	2	shapes	A	8	False	144	(3.0116374737940426, 0.20948984219841904)	(-8.073403020721047, 3.4793852796340037)	(1.5153313870753085, -7.4662701799104623)	(-2.3612309254908794, -6.4608037309774353)	1.0	slash	0.685852
16	M	A	M	B	A	N	N	B	N	8	4	shapes	A	8	False	144	(-6.3940757112388464, 4.2827338963162518)	(-0.68073891534502451, 2.9434280015936167)	(-1.3905872329786719, -7.3266103897903054)	(6.3667227942327518, -3.6989039636291494)	1.0	slash	0.865289
17	N	B	B	N	A	M	M	A	A	8	7	shapes	A	8	True	144	(-2.7961009922046296, -7.3394624084994673)	(4.3711054774644342, -0.86619767129834457)	(0.084819564862899099, 8.080461877379296)	(5.2544680605921634, -4.7941973359167784)	1.0	z	0.929212
18	N	B	B	A	A	N	M	M	N	8	5	shapes	N	8	True	144	(6.7664491077201205, 0.012570438221885638)	(6.1989848514248234, -4.4117902531193378)	(3.6147891979006221, 7.5917498329069808)	(-0.96260499116815712, 2.9996726571177188)	1.0	z	0.834749
19	N	B	A	A	M	B	M	N	B	8	1	shapes	B	8	True	144	(-8.3821157782496467, 1.2514456788740436)	(1.1148522844755693, -3.1260215008281795)	(8.1087004536604574, -4.3789003312962578)	(-6.3823351012518064, 8.4257463797438561)	1.0	z	0.760387
20	N	B	A	A	N	B	M	M	M	8	7	shapes	M	8	True	144	(4.3439047585421449, -8.0493580617163154)	(6.705474800447023, -0.82359210883600742)	(-7.284611528620422, 5.0387804192292531)	(-0.14229652468948295, 4.8521069908375534)	1.0	z	0.798025
21	N	A	B	N	M	M	A	B	M	8	7	shapes	B	8	False	144	(-1.2023817847866445, 5.9903013594074892)	(-8.2713035910942274, 1.8476032763549419)	(-2.4417656878432386, -0.31323637839980378)	(4.8290558069638649, 0.55599344132253492)	1.0	slash	0.747139
22	N	A	M	N	B	B	A	M	B	8	6	shapes	A	8	False	144	(-6.8285683134250812, 4.1586429148003088)	(8.1170738826389126, 3.0093519329378005)	(1.1874655223306529, -1.1492557106692587)	(-5.3323582608696736, -2.8030535415253786)	1.0	z	1.0353
23	M	B	M	A					A	4	3	shapes	A	8	True	144	(7.5155122812334518, 0.98286993168857784)	(-7.8117267811721538, -0.28346384419338477)	(4.784195949917736, -3.2153175238438996)	(-4.3065040610475371, 6.9799022536732949)	1.0	z	0.767017
24	M	B	A	N					M	4	2	shapes	A	8	False	144	(-6.790765022484325, -5.720960335985481)	(-3.766648063423629, 6.583043316079511)	(7.2366511260063646, 3.3652358960845135)	(7.5701857322516197, -0.69797191109103807)	1.0	slash	0.760735
25	N	A	A	M	B	M	N	B	M	8	1	shapes	A	8	False	144	(-4.0929416907844116, 3.0174231958857831)	(-8.7218158699499799, -7.0999624051553667)	(2.5433590699883641, -7.3316185108612855)	(8.0271868206056816, -1.7238996544675569)	1.0	slash	0.77443
26	M	B	A	A					A	4	3	shapes	A	8	True	144	(5.7254727033486184, -2.9226968031601288)	(-4.7425579710769448, 4.2362136711176195)	(-4.1568977198640056, -3.4978633888884225)	(5.9895103581267559, 4.1737959500516908)	1.0	z	0.622066
27	M	B	B	M					M	4	3	shapes	M	8	True	144	(-1.7736750531381604, -4.6883168495663918)	(-0.68758559618354553, 1.5045663633722093)	(7.1642007152534184, 0.48057811025355868)	(5.3059537373866785, -6.4960364594405346)	1.0	z	0.65178
28	M	B	N	N					B	4	1	shapes	B	8	True	144	(-6.2462558837840376, 0.88081138450922936)	(6.3335260084801668, 1.5239105185146471)	(7.9754768141154457, -6.2894671740945913)	(-7.3180132838785905, -5.3799065971880218)	1.0	z	0.82536
29	N	A	B	B					A	4	1	shapes	A	8	True	144	(-1.0356672081365499, 5.8663447210201234)	(-6.222220265325312, -4.4474410617449482)	(6.5024417279044702, -5.1745578679303019)	(8.0066700603992231, 7.0633709665344284)	1.0	z	0.687005
30	N	A	N	A	B	B	M	M	B	8	5	shapes	B	8	True	144	(-6.1675620868807002, -5.3032485953148321)	(4.1968205221161785, 5.4160547791192357)	(6.9634679260481729, 1.9759592765083127)	(6.7721916001202533, -7.2803554789784712)	1.0	z	1.9065
31	M	A	B	B					M	4	3	shapes	B	8	False	144	(5.6783365680221554, -8.4872940713397149)	(-4.0569594793467818, 8.242695550343111)	(-7.2330057070870302, -2.7407844269137511)	(7.8874808612185703, 6.1315067223502329)	1.0	slash	0.672331
32	M	B	A	N	N	A	M	B	M	8	6	shapes	M	8	True	144	(-5.3672600402502209, 2.7078127603826925)	(6.5180480594080006, -2.541353677549707)	(5.3303013717339685, 3.0939417094894601)	(1.9603039504365523, -1.6595855380968771)	1.0	z	0.72583
