TrialNumber	stim0	stim1	stim2	stim3	stim4	stim5	stim6	stim7	stim.probe	ttl.stims	corr.num	trial.type	stim.corr	block	match	Subject	stim.pos0	stim.pos1	stim.pos2	stim.pos3	ran	resp	RT
1	M	B	A	A					B	4	1	shapes	B	Practice	True	150	(-3.8505622618963313, -5.3123172751075138)	(-1.5966664715739025, 3.0102663420387969)	(5.8914975478295393, 1.2785333488569055)	(5.7460807821505782, -8.5138584915905309)	1.0	z	2.49213
2	N	B	N	M					N	4	1	shapes	B	Practice	False	150	(8.3904162823975419, 5.2069605466628008)	(-1.0193709608549071, -1.2223842690105311)	(4.6317952986537421, -7.3012445382650473)	(-5.7172656414812026, 4.5528003254095211)	1.0	slash	2.32686
3	M	B	N	A	A	M	B	N	N	8	7	shapes	N	Practice	True	150	(-3.5033975305137099, -4.6530444300422635)	(4.5171237298206393, -6.6197624855810702)	(8.1187944495061011, 5.9736607719468111)	(-2.382738929624109, -8.6417117023201975)	1.0	z	1.64154
4	N	B	N	A					A	4	3	shapes	A	Practice	True	150	(-3.7180723145820309, -6.5433615648405716)	(1.8502522173301763, -3.5905979427014927)	(-1.1025137071427213, 1.3545329254646727)	(2.4647510638966139, 3.6855858019463117)	1.0	slash	3.94631
5	N	B	M	A	M	B	N	A	M	8	4	shapes	M	Practice	True	150	(0.32437283952139495, -5.0539602471772431)	(-0.55657720824428303, 0.35311576908717157)	(5.8187008240338383, 8.2990373264704651)	(-5.9772216210596039, -5.9429816987229422)	1.0	z	1.89224
6	M	A	A	N	N	M	B	B	B	8	5	shapes	M	Practice	False	150	(6.0923751008418066, 8.4702257829494982)	(-6.3777870694510232, 5.9276380573688598)	(8.2870873077049119, -3.4943030673893594)	(1.2225957040698798, 1.9150711943637386)	1.0	z	2.42382
7	N	B	A	M	B	A	M	N	B	8	3	shapes	M	Practice	False	150	(-8.3368677128007906, 5.1562102158553955)	(7.7461446264195928, -2.8075514107337973)	(-2.1334396185201676, 7.2410373581740828)	(1.720552518013335, -8.6658242136824786)	1.0	slash	2.18675
8	M	A	N	M					N	4	1	shapes	A	Practice	False	150	(-1.5632601517803462, 0.24607755604218262)	(3.1272862963920272, -2.7691725911343852)	(8.3540372556628633, 0.12338837318855411)	(-7.4290707022980174, -6.0718377967019501)	1.0	slash	1.7844
1	N	A	A	N	B	M	B	M	N	8	2	shapes	A	0	False	150	(0.19539475759355973, -7.0372161218139402)	(2.370358098584564, 4.0848506542957406)	(6.5867685053346747, 8.4527824482680813)	(6.5854667304391477, -5.2641842931664495)	1.0	slash	1.8907
2	M	B	A	M					A	4	3	shapes	M	0	False	150	(-6.3371509711206908, -7.2911395106396606)	(2.4562767342216461, -7.9889867784343185)	(-3.268653087873628, 1.7417026941084401)	(1.5605650178618227, 6.4692849626062241)	1.0	slash	1.06614
3	M	A	M	A					B	4	3	shapes	A	0	False	150	(7.6683671607466053, -0.29435545107612704)	(-1.9685414222596513, 4.6587882127992444)	(-7.5594954889687038, -1.8763703525905031)	(2.9782624062076302, 8.2986468943576561)	1.0	z	1.31929
4	N	A	N	B	B	M	A	M	N	8	2	shapes	N	0	True	150	(8.1372886779437401, 7.8367144342560273)	(-6.1563454267983788, 4.4745807337528465)	(1.3459589149662641, 2.6673865257718958)	(-3.4375186924537706, -1.0904283207992256)	1.0	slash	6.40323
5	N	A	A	N					N	4	0	shapes	N	0	True	150	(5.0650979617431346, -3.9118784595139982)	(6.4926085896609091, 3.8607221460418621)	(-0.062545761316815884, -0.1111097638320846)	(-2.4148327357654322, 3.761257988049211)	1.0	z	1.42869
6	N	B	N	A					M	4	3	shapes	A	0	False	150	(7.1557931415593146, -6.2593308445548939)	(1.4687069402527406, 4.8715568964117946)	(-1.0187312043753005, -5.3635312570854259)	(-4.1952310228803151, 3.3088072306878331)	1.0	slash	0.929475
7	N	A	B	B					A	4	3	shapes	B	0	False	150	(8.6353622847125777, 6.4824810449758186)	(-4.6065050183439427, -5.6091771319883934)	(-8.4990074765407844, 6.6008709824691127)	(8.3751029587728709, -5.2027058453062978)	1.0	z	1.06331
8	N	A	M	M	B	B	N	A	B	8	7	shapes	A	0	False	150	(-6.9085337853144901, -7.3563284510281175)	(7.6514863934301509, -2.0071950825447438)	(0.27507548987720121, 3.7265391801144805)	(-7.2287494976647428, -1.249198010723962)	1.0	z	2.10899
9	M	B	M	N					N	4	3	shapes	N	0	True	150	(6.3047341338340832, 8.0957733137534511)	(-6.9560846736428523, -1.3585964130622177)	(-8.0524684637973145, 6.8384310888303226)	(7.9288046624541586, -1.4084574497555735)	1.0	z	1.34309
10	M	A	B	N	N	M	B	A	B	8	6	shapes	B	0	True	150	(3.6473090038103653, -3.0017187569609129)	(-6.2215529521986586, 0.68728446171477309)	(0.26119340319162454, 4.5713517936055776)	(-2.5188103103077584, -7.6169830351323951)	1.0	slash	1.11819
11	N	B	M	N					B	4	1	shapes	B	0	True	150	(-2.5241321101528271, 4.6600126612843038)	(-0.1263432678979548, -2.4521732597991663)	(2.154433500173667, -5.869447339564708)	(2.7201790101259871, 3.789684264339261)	1.0	slash	1.47233
12	M	A	A	B					B	4	3	shapes	B	0	True	150	(3.5084440321655048, 2.6565148928302875)	(3.7144384918432163, -1.7327730849684793)	(-3.6757158083555934, -5.2289892456851819)	(-3.9498680710622462, 4.7535330905601221)	1.0	z	0.921987
13	N	A	A	M					N	4	2	shapes	A	0	False	150	(1.1989318215729181, 0.59236025125988157)	(5.0430975475250168, -1.0133968958643864)	(-3.1995449162304546, -7.3495461128072108)	(-5.7894921457285315, 0.17375398630296601)	1.0	slash	0.979054
14	M	A	M	A	B	N	B	N	N	8	7	shapes	N	0	True	150	(4.8029639887968756, 3.0395955358865443)	(-7.2907058058288996, -0.54840345139831825)	(-3.7270159710919017, -6.2361612512668607)	(-0.12074561706546838, 0.37817670221214783)	1.0	slash	1.76128
15	N	A	N	B	A	B	M	M	M	8	0	shapes	N	0	False	150	(-3.8505992510979432, 7.7525061831256643)	(3.7562879962161801, -3.0621693995991661)	(-8.64148311555733, -3.1871929287824612)	(6.8181858635724009, 4.1301544744084051)	1.0	z	1.11607
16	M	A	N	B	B	M	A	N	A	8	1	shapes	A	0	True	150	(-2.4469987190056024, -5.102615649417964)	(7.1589538290272312, -6.5561794933045441)	(-4.9710437244079309, 1.181560060581246)	(4.6437415680167984, 8.5714925635924359)	1.0	z	1.3997
17	M	A	N	B					M	4	0	shapes	M	0	True	150	(0.42445152344331838, 4.3321858246382536)	(8.4312780224127941, -5.7274741697107743)	(-7.4237647821638681, 8.221452426530842)	(-0.41701340820172206, -0.48028057546547664)	1.0	z	0.901268
18	N	B	A	N	M	B	M	A	B	8	4	shapes	M	0	False	150	(-1.9179783235766399, -7.4833548673434365)	(2.2306134603303232, -6.3087801681270621)	(-2.3122479388957276, 1.1314583936824629)	(7.8760167180230845, 5.9387054313373575)	1.0	slash	1.50703
19	N	A	B	N	B	M	A	M	B	8	5	shapes	M	0	False	150	(4.2201452739579306, -4.3777705265576561)	(8.4746142129458946, -2.2709053319361177)	(-3.3829497537953079, -3.2688634162338603)	(0.53698788586114432, 3.0073755090020526)	1.0	slash	1.03059
20	M	B	B	A	A	M	N	N	A	8	3	shapes	A	0	True	150	(-2.3704663729995072, -4.5621332272503441)	(4.5827452314782882, -8.2153985130924667)	(-7.144976648304401, 0.5904034754735541)	(4.5398445781149199, 7.2283501480867116)	1.0	z	1.73086
21	N	A	B	M					M	4	3	shapes	M	0	True	150	(8.3873963782827516, 6.0744302560824153)	(-7.6774133831847502, 5.761544530086681)	(4.5510251911241912, -1.4451795922244246)	(-0.1167584987923842, -2.4994841819683034)	1.0	slash	0.746863
22	M	B	M	N	B	N	A	A	N	8	5	shapes	N	0	True	150	(4.9834466277476341, 2.3481345730780259)	(4.5265357834865068, 7.7950113927923681)	(-0.20576072419549085, -1.4895531445451482)	(5.1496599241813641, -8.2152312232740616)	1.0	slash	1.27131
23	M	A	A	B	N	B	M	N	M	8	4	shapes	N	0	False	150	(0.93224726757076049, -3.3548090682742879)	(-2.499099164185659, 2.4800645483634209)	(-7.3345871801681355, 5.6207639996824774)	(7.5792350018495256, -3.2479917432262919)	1.0	slash	1.38979
24	M	A	N	N	B	B	M	A	A	8	7	shapes	A	0	True	150	(6.6638610447985016, 3.3541657719975628)	(1.6784218498528833, 4.0240653181658956)	(-3.6116967939779245, 8.1914460411472874)	(6.7552512607211792, -5.7234151545315388)	1.0	slash	0.984868
25	M	B	A	B	M	N	A	N	A	8	1	shapes	B	0	False	150	(-7.6099984831780887, 7.9974292552878303)	(3.3695116001070442, 2.6076991650780723)	(7.7665364853180492, 5.8071737641533723)	(6.4977326419420116, -4.2556696564769769)	1.0	slash	1.31049
26	N	B	B	N					B	4	0	shapes	N	0	False	150	(-4.0543479227623607, 5.6514978677742054)	(-6.4908237447106636, -0.97228424380301703)	(8.0577082799569233, 2.328598481068795)	(4.3626938055860336, -0.46897947914376203)	1.0	slash	1.26405
27	N	B	M	A	A	M	B	N	M	8	2	shapes	M	0	True	150	(8.40909462066017, -6.707661371584372)	(-6.0136886367441482, -6.2976418177775448)	(3.6583506059316111, 8.2955966849973777)	(3.7076514289684201, 0.68786626258307315)	1.0	z	0.765343
28	N	B	B	N					B	4	2	shapes	B	0	True	150	(1.2464189035021143, -3.6831611741326435)	(-8.5608424806298249, 4.2059627475285275)	(-7.1407363651378679, -3.6950274590095651)	(1.2268357218530106, 0.87383767331275308)	1.0	slash	1.19771
29	N	A	M	A	M	N	B	B	M	8	1	shapes	A	0	False	150	(-4.1381302613323996, -0.63124868524672451)	(3.327840027023214, -4.7652174352776413)	(4.3955069917080252, 0.41454289009628731)	(8.3477192385920915, 8.3236066026267537)	1.0	slash	0.830794
30	N	A	M	M					B	4	0	shapes	N	0	False	150	(6.1211880484720478, 3.5649262191431852)	(3.2940008641573204, -5.8398046517918054)	(-5.5414246814621002, 5.1077019224130229)	(-5.3320821301003409, -2.835759605510261)	1.0	slash	0.633119
31	N	A	A	M					A	4	1	shapes	A	0	True	150	(2.078249381059603, 1.4162004950389004)	(-4.0807271010689972, 6.063772224438873)	(-8.1247230392918244, -1.1001769699821837)	(1.5712874261682632, -4.6128777813845616)	1.0	z	0.883076
32	N	B	M	N					A	4	3	shapes	N	0	False	150	(7.5791092151171711, -2.4902226550857973)	(0.77798706907462112, 1.4811249166208427)	(-5.3087615644039463, 3.7079401925860669)	(-1.3963894397612222, -5.2034541133601397)	1.0	slash	0.908415
1	N	B	M	M					M	4	2	shapes	M	1	True	150	(6.7857558026975191, 4.4832211902276704)	(-5.3173801086226815, 4.7248529598452844)	(2.7153264220873332, -3.4435835563705872)	(-2.8529232721899103, -0.025653824542398951)	1.0	z	1.05022
2	N	A	N	A					M	4	2	shapes	N	1	False	150	(6.8865211116487792, -6.7004618891028729)	(-1.9882562775075199, 7.1359012299943885)	(7.9042206396554882, 1.0011920598463604)	(-7.4483820633014801, -8.2338504649021722)	1.0	slash	0.625791
3	N	B	N	B	M	A	A	M	M	8	7	shapes	M	1	True	150	(-5.5583064199218217, 7.8191926709320292)	(-3.1621279898140751, -7.9816372570694787)	(0.60841708422107921, 2.6196577370418819)	(8.4726762653414944, 4.2773075628274473)	1.0	z	0.929311
4	M	B	A	A	M	N	B	N	M	8	2	shapes	A	1	False	150	(0.9065921048143597, 7.3425055087038267)	(-5.1090442991943963, -7.1677808799900991)	(7.9722263316353441, -0.98039743396330703)	(1.7124049192640349, 1.6214321169565657)	1.0	slash	0.656532
5	N	B	M	N					N	4	0	shapes	N	1	True	150	(-1.1301463989949401, -2.834279141043349)	(6.2431513642399512, 3.7659460243631049)	(-2.392087360379012, 8.4228283924196781)	(5.7698376643192066, -4.056017905814862)	1.0	slash	1.15674
6	N	A	N	M	M	B	A	B	B	8	5	shapes	B	1	True	150	(-4.3571352515593693, -4.1589924246546319)	(7.9542205206966408, 4.9070805714736725)	(0.19873991581799721, 7.1093668235459777)	(-2.3133202665819326, 2.8169700071415242)	1.0	z	2.26378
7	N	B	B	M					B	4	0	shapes	N	1	False	150	(-6.1484992964055394, -5.8456972176896578)	(8.0510592246418931, 2.8733978199706716)	(0.29290048825797221, -5.6719155336577254)	(-7.622343388790032, 8.6243363288807195)	1.0	slash	0.893928
8	M	B	B	A					M	4	0	shapes	M	1	True	150	(1.428079664718771, 3.718575151948178)	(2.5383299553763514, -0.40853625443908115)	(-8.5963427290657908, -4.1367603281860461)	(-3.9330074798075625, 5.1920839452169645)	1.0	z	0.724574
9	N	B	B	M					B	4	0	shapes	N	1	False	150	(-7.7455537890904402, 2.9167888187827611)	(-4.6672224162698681, -4.4017593361002261)	(8.6760107051131179, -6.6813065218709635)	(4.8260124340298063, 0.36824312973987894)	1.0	slash	0.626658
10	M	B	N	N	M	A	B	A	B	8	0	shapes	M	1	False	150	(-0.34923391033905915, 2.786460893123861)	(8.1165053601653128, -5.5642568130335182)	(1.0270035393666426, -1.660304229076293)	(-6.3899777860728619, -1.6967281925857396)	1.0	slash	0.696341
11	M	B	B	N	A	N	M	A	B	8	4	shapes	A	1	False	150	(-4.0350468946384757, -7.8718143338420301)	(-5.2554885977411248, -0.11842651073483879)	(-6.9016196077960217, 5.9098470583822724)	(1.5481880646404775, -1.8105739373916379)	1.0	slash	0.694055
12	M	B	A	N	M	N	B	A	B	8	6	shapes	B	1	True	150	(7.686404865021931, -0.5956586219246276)	(5.7471796988253292, 3.1159568510254214)	(-3.1317677696185635, -6.3923173918805718)	(-1.2383980640184955, 8.5101495982097788)	1.0	z	1.08765
13	N	A	B	M					M	4	3	shapes	M	1	True	150	(8.3872065631444421, -1.7831844376319639)	(3.2865974793887744, 1.6115662808945004)	(-5.7319897186530522, -7.4689243959676368)	(-7.4020296732308353, 5.922863032275119)	1.0	z	0.823078
14	N	A	N	B	M	A	B	M	B	8	1	shapes	A	1	False	150	(-6.3032777829165401, 4.2809362954794423)	(8.3388033157781898, -8.2811522609300035)	(-3.054558629196352, 1.3155346447222769)	(3.3839647277059051, 6.5188274579123462)	1.0	z	1.60266
15	N	A	B	B					M	4	3	shapes	B	1	False	150	(-7.2070796054832513, -7.9400267401661129)	(3.7809615475900191, -2.9953534620744593)	(3.8860474046967415, 4.8467208019924559)	(-8.5452703847370728, 4.4859354816476529)	1.0	slash	1.04506
16	N	A	A	M					N	4	0	shapes	N	1	True	150	(1.0877682102605117, -3.8155835997611556)	(-7.3957414324069877, 0.073770684140162857)	(7.6159974941759216, 4.1100535311329089)	(-5.4556290714907032, -3.6801553029533354)	1.0	z	1.38671
17	M	B	B	M	N	N	A	A	B	8	1	shapes	B	1	True	150	(6.3053307410441999, 5.9499815109432532)	(-2.0780714853301578, 3.63995612992308)	(5.9717431352644237, -2.5164208643584249)	(7.3580829896346351, -7.0464239435376719)	1.0	slash	2.10887
18	N	B	A	A					B	4	1	shapes	B	1	True	150	(3.0141614727085297, -1.7443365277411651)	(-6.0100226160889356, -0.54987881108170988)	(2.3190490081657167, 5.2008175806476071)	(-4.5229957114588446, 8.3888629407092914)	1.0	z	0.921876
19	M	B	B	A					A	4	3	shapes	A	1	True	150	(0.41109002285567442, -3.5422397949378333)	(-5.5095699534372997, 6.8527482553251637)	(5.7932038118757134, 4.2469142575151473)	(-8.4373300857792266, -3.0926983563467099)	1.0	z	0.503979
20	M	A	M	B					M	4	2	shapes	M	1	True	150	(-2.2111916668089648, -4.1197063349694893)	(2.8950121094498513, -8.3117881829771942)	(-7.5535812484656439, 0.69732548545959006)	(7.0349370638792976, 7.0267981912163524)	1.0	z	1.52511
21	N	B	N	B					M	4	2	shapes	N	1	False	150	(6.6996857940208248, 4.2284036289829778)	(-4.0985731382946922, -5.3636903005686589)	(2.2307779427623746, -2.7393633685948293)	(-5.276714624737882, 5.6013691701988559)	1.0	slash	0.918268
22	N	B	N	A	M	B	A	M	M	8	7	shapes	M	1	True	150	(1.4280600467281843, 0.7686797682393447)	(-8.6338774494473398, -1.8272673219309281)	(1.3768302796413803, 7.2319236592402358)	(8.4755593348371043, -0.74818365863085567)	1.0	z	0.721888
23	N	B	A	B	N	M	A	M	A	8	1	shapes	B	1	False	150	(0.40134630787807346, 8.2413351158557688)	(4.7651051274483596, -2.1806092948189093)	(-2.7082470313601776, 3.2834522466416907)	(-0.089154325525894862, -0.019685297688596393)	1.0	slash	1.13156
24	N	A	M	A					N	4	1	shapes	A	1	False	150	(5.13207117124748, -2.5060964196956226)	(-8.7066393044322048, -4.6257801608775244)	(0.46030929881892035, 1.8471354322189093)	(-4.1152448386463831, 5.0640190940431378)	1.0	slash	0.822009
25	M	A	A	M	B	N	B	N	B	8	6	shapes	B	1	True	150	(-0.49164274769015748, 7.2592527913891587)	(5.1963929089634071, -6.1639619470715816)	(5.0680471597861914, -1.8764036289038453)	(-5.3457447908070446, 5.0780061688479226)	1.0	z	0.818913
26	N	B	B	N	A	M	A	M	N	8	7	shapes	M	1	False	150	(-1.6366614794413019, 2.4374544607226785)	(0.91507690064461755, -8.0296541949490301)	(-4.5659694069328243, -2.4135265740283733)	(5.7265561066898947, -4.5684373269603347)	1.0	z	2.54445
27	M	B	A	M	B	A	N	N	A	8	7	shapes	N	1	False	150	(4.6893671998091548, -5.7992371480065277)	(0.25772096398981681, -4.5224192360147946)	(-5.9745785052376341, -0.43808417752633311)	(-7.2376273426200903, -7.7417251890240468)	1.0	slash	1.26202
28	M	A	N	B	N	A	B	M	M	8	7	shapes	M	1	True	150	(7.6177064335730229, 8.0350131623032333)	(-0.7715493604237551, 1.6139504261880138)	(0.49054378923451658, 7.8014165832915943)	(-0.76405756490683174, -6.0983122200828195)	1.0	slash	1.79598
29	M	B	N	M	N	A	B	A	N	8	0	shapes	M	1	False	150	(-1.2831732134593272, 7.4633349911113562)	(-2.1424786917593064, -1.6027925172811139)	(0.44204341681102122, -7.6320660554931061)	(-5.9166467093644739, 6.0842804894389904)	1.0	z	1.64517
30	M	A	N	A					N	4	0	shapes	M	1	False	150	(7.3031532000819901, -0.55607995105003205)	(-1.3381947872781339, -7.9890282305666434)	(0.46105080896289685, 5.3778746663042316)	(-6.2750704813750549, 1.9069024619473325)	1.0	z	1.16021
31	N	B	M	N					A	4	0	shapes	N	1	False	150	(2.6837068108568829, 5.4333338195321073)	(-7.555743018618684, 1.7412783771107527)	(7.1895888983147032, -6.0102102558657009)	(-8.2983791222261178, -5.9590972953406993)	1.0	slash	0.814738
32	M	A	B	A	N	B	N	M	N	8	4	shapes	N	1	True	150	(-0.22187972461910732, 5.6125161637447807)	(1.6056288779969812, -8.4405196032548186)	(-6.9142821798187839, -2.4334718790758636)	(-7.6957895492529129, 4.3602623444318525)	1.0	slash	0.886121
1	M	A	M	B	A	N	N	B	N	8	6	shapes	N	2	True	150	(-1.1165447551780039, 1.695720023407322)	(-8.522873595164139, 0.51411633518853428)	(-0.065364009193471517, -6.1394961177944491)	(-3.8808624955121385, -4.6863973489302433)	1.0	z	1.38058
2	M	A	M	A					A	4	1	shapes	A	2	True	150	(1.7012378182359544, 3.5942680237527327)	(-3.0609411997920422, 0.25092205547025692)	(1.1242150631755852, -3.8624883043731089)	(-7.5709408743966158, -4.6434674975259149)	1.0	z	0.655457
3	M	B	N	B					B	4	3	shapes	B	2	True	150	(-2.3620837621880186, 1.8501848692132814)	(-7.5773273741031266, -0.99295374698754912)	(5.1517155304797999, 4.6863671907719127)	(1.5238561706934952, -6.0872240417284829)	1.0	slash	0.514797
4	N	B	N	A					M	4	1	shapes	B	2	False	150	(1.9674724594302031, -7.74281082052741)	(7.1705294047650909, 2.3506821514895151)	(-1.9886553444450508, 6.3475095487382998)	(-0.4945626290036742, -1.7104919381452897)	1.0	slash	0.883033
5	M	B	N	B	N	M	A	A	N	8	7	shapes	A	2	False	150	(4.5678416121624483, 5.2392288258902155)	(-3.5647335173386079, -8.539481573720046)	(-2.1915811861756076, 0.73730047908942709)	(-7.1767335682822395, 5.6169644645409686)	1.0	slash	0.974185
6	M	B	A	A					B	4	1	shapes	B	2	True	150	(2.4804044033285333, 3.4597838454731331)	(-6.5742965198224059, 4.4413872523876297)	(0.77899466927344285, -6.7688778270921084)	(-1.0102295310447209, -0.74167886197879085)	1.0	z	1.04392
7	M	A	M	N	B	B	A	N	M	8	4	shapes	B	2	False	150	(-4.8674188858199958, -3.947192384336315)	(-8.1075721970541466, -8.1241944160097486)	(4.1293657050762942, -1.369246812613679)	(2.3905316786885837, 8.479414567258182)	1.0	slash	0.829442
8	N	B	A	M	B	M	A	N	N	8	2	shapes	A	2	False	150	(3.9975286897115474, 8.7295001870351427)	(7.7461595709706117, 4.201033989460683)	(-1.5345500556350951, 2.344384325315291)	(-7.1055635815765239, 6.9304137981197584)	1.0	slash	0.985168
9	N	A	M	M	A	N	B	B	B	8	6	shapes	B	2	True	150	(-7.5347259821601842, -0.86253882725115627)	(-2.4733719226041844, 3.0768285389710375)	(7.8260829747439082, -6.2189957363854278)	(2.7497322947841809, 7.1006009729480137)	1.0	z	0.905052
10	M	A	M	B					N	4	0	shapes	M	2	False	150	(6.6386202980572051, -5.6124745706842205)	(-7.924309490759641, 3.8356536721140824)	(6.0540871726723005, 8.4771764626898189)	(-1.8646190449101301, -4.7071333444449399)	1.0	slash	0.780466
11	M	A	N	M	B	N	B	A	B	8	0	shapes	M	2	False	150	(-2.1602935784970221, 5.7307313583978878)	(8.5006223027602132, 7.7295504407665305)	(-6.4821146662609674, 4.1186617862378956)	(-8.3625778690534123, -5.5724153934464207)	1.0	slash	0.890736
12	N	A	B	N					N	4	3	shapes	N	2	True	150	(5.4456949093605953, -1.9753554799848105)	(-3.476844314195092, -2.3077846868810417)	(-4.8575929943898277, 2.7334971276559195)	(8.4706562690969598, 8.6241861637805144)	1.0	slash	0.857696
13	N	A	A	M					N	4	0	shapes	N	2	True	150	(-3.7491273004247949, 7.7620416497532396)	(5.0903985001335368, -0.31152799209584892)	(4.3334212549026372, 4.439585408841662)	(-8.2199699230436565, -3.234067082500979)	1.0	z	1.23004
14	M	B	N	A					M	4	2	shapes	N	2	False	150	(5.7918424333541019, -5.3846925909180392)	(-1.533271030577656, 3.5864878880710886)	(2.7794333105655689, 1.8335031712283865)	(-2.830190520767518, -5.909870385276335)	1.0	slash	0.697799
15	M	A	M	N	A	B	N	B	M	8	0	shapes	M	2	True	150	(-7.1446370897313427, 6.0665705386420754)	(3.6932756226828491, 7.7703798859131616)	(4.6269259746729485, -5.758508298876837)	(-2.1707365420861695, 4.1240582255701721)	1.0	slash	0.792572
16	N	B	N	B	M	M	A	A	A	8	0	shapes	N	2	False	150	(4.6549652169251097, -6.77429138293021)	(2.2825731651568741, -1.9446357601889463)	(-3.6751521604567721, -2.4101351771881347)	(-3.6693327512990965, -8.0102355286997113)	1.0	slash	1.02803
17	N	A	B	N					B	4	2	shapes	B	2	True	150	(5.0406193818406582, -6.8409204283291594)	(-3.426226272456268, 1.0500182307538779)	(3.8766326046031949, 3.1182680140922905)	(-4.1619744185705621, -8.2376085904251948)	1.0	z	1.20598
18	M	B	B	A					B	4	3	shapes	A	2	False	150	(-3.7490642887776628, -6.659612392097511)	(-8.2541406086450539, 5.438772116737276)	(0.60670362841154457, 6.9918043537539436)	(1.9839827212047325, -5.7094887838509187)	1.0	slash	0.797926
19	M	A	A	N	B	N	M	B	N	8	6	shapes	M	2	False	150	(-3.8204353454128341, -2.5751364724404446)	(4.2925850464170701, -6.1508992985273716)	(-4.0928062483048695, 5.2286742334031633)	(-8.2445038144792449, 4.9306589417172972)	1.0	z	1.1698
20	N	B	M	M					A	4	0	shapes	N	2	False	150	(3.3766889214839271, 0.27348040761090076)	(-8.1007206406134848, -1.6578844580645127)	(-6.7878753775493346, 5.9869961270723309)	(0.33619665022017564, -6.5433347795428363)	1.0	slash	1.12083
21	M	A	M	A					N	4	3	shapes	A	2	False	150	(-3.4838941161529764, -3.4507457947344431)	(-6.6831578049210831, 0.96246958685154205)	(2.7895996448939293, 7.0714085790406536)	(4.1995811204855649, -7.1564041737713504)	1.0	slash	0.610492
22	N	B	M	N					A	4	1	shapes	B	2	False	150	(-6.292663538366341, -0.25922053603345674)	(2.2541706959655041, -2.4933091803761007)	(2.5710966634734227, 6.4217830353401126)	(-2.5062171695003448, 3.7435968937450124)	1.0	z	0.736171
23	M	B	N	B	M	N	A	A	M	8	0	shapes	M	2	True	150	(-5.9976909809075876, -6.2320824011592464)	(-2.0335586261758376, -0.43500130740579479)	(4.7448732159815687, -7.6233169207521438)	(1.7690175112067799, 4.4221213752061175)	1.0	z	0.872101
24	M	A	M	A	N	N	B	B	B	8	6	shapes	B	2	True	150	(1.1836049017098667, -3.1938399572428242)	(-6.3653556163070943, -7.1844862824560645)	(-0.032704528818987555, 1.9351424856277308)	(-5.9097175603679499, -1.0356159863620977)	1.0	z	0.907125
25	M	B	M	N					A	4	3	shapes	N	2	False	150	(8.1938712925920498, -1.0311345562018577)	(-7.168351459191479, 1.3386841542059909)	(-3.8043034913554044, -6.5003188673742489)	(3.4574736337091387, 5.3868879774893728)	1.0	z	0.845922
26	M	B	N	N					B	4	1	shapes	B	2	True	150	(5.8985704719108103, 3.6376227410624384)	(1.1786665727666801, -2.0148296921747004)	(-7.0418378737533605, -6.7317223482266488)	(-7.0688762675421231, 5.0062978109462577)	1.0	z	1.1089
27	M	A	N	N	B	B	A	M	B	8	0	shapes	M	2	False	150	(-4.0496852790630937, 0.11540272505730798)	(6.8979720039248207, 2.5165771482762533)	(-8.6308446941020325, -3.2658106036608965)	(-2.8564288436492262, -6.7514518274484283)	1.0	slash	0.762472
28	N	A	M	B					B	4	3	shapes	B	2	True	150	(-3.4727870512247279, -2.5392825415149307)	(0.94818904985645425, 3.7586770961780864)	(0.98789617140627151, -4.4362624276653921)	(-5.5148961009799597, 7.6214068788879104)	1.0	z	0.700003
29	M	A	N	A	M	B	N	B	M	8	4	shapes	M	2	True	150	(-7.8180544344898344, 8.2565424070352691)	(-0.37276964821028358, 7.9146316127559651)	(1.1700636676515792, -7.5069919702138925)	(0.23120322281169869, 2.1748257527203112)	1.0	slash	1.45222
30	M	B	A	N	B	A	M	N	A	8	5	shapes	A	2	True	150	(-8.7392919826583455, -4.2821797163743147)	(6.0306075190191084, -2.0975067485361825)	(-0.012721646579665347, -1.74682440525691)	(4.6107933524007247, 3.774257991826417)	1.0	z	1.14738
31	M	B	B	N	N	A	M	A	A	8	4	shapes	N	2	False	150	(-5.1626979578686871, -3.5057154232465759)	(4.6951414870849781, -5.6043906176655067)	(5.9653685623887434, -0.36332061011336769)	(-3.7999063366443835, -7.3559578957486087)	1.0	slash	0.807077
32	N	B	B	M	A	A	N	M	B	8	2	shapes	B	2	True	150	(-4.8233113623772663, -6.3129346437355416)	(3.8743781751547743, 5.1216653501061611)	(-3.3509957614334001, -0.05385880688564626)	(2.4987380645157202, -5.6610455915260518)	1.0	slash	3.39059
1	N	A	B	M	M	A	N	B	A	8	5	shapes	A	3	True	150	(2.9973991559386661, -1.6945669601705751)	(-8.4930739648483478, 7.8816255108121496)	(3.7519001174641282, 2.4596726896945356)	(8.644196082870014, 6.9587692878664491)	1.0	z	1.19607
2	M	B	M	N					M	4	0	shapes	M	3	True	150	(4.6031742781432197, 2.9648784550456693)	(-2.8515038266583499, -8.531466992794428)	(-1.3752837347457882, 1.3427858013849328)	(5.6108261740042433, -3.8903720014402499)	1.0	z	1.07621
3	M	B	A	B					B	4	3	shapes	B	3	True	150	(3.6197748335624684, -4.0577274402359826)	(-3.1413901615618327, 2.2129009261755357)	(-2.1085648598955906, -8.5668649789585025)	(4.1687567292977583, 5.6213717440651187)	1.0	z	1.02119
4	N	B	A	M					A	4	1	shapes	B	3	False	150	(0.2431022273360135, 4.108115736634117)	(-5.4955069722402694, 3.8785076261594966)	(7.8453062913249418, -6.2737728057702995)	(-4.2297969981614827, -4.2612482653646326)	1.0	z	0.72084
5	M	B	M	A	A	B	N	N	N	8	5	shapes	B	3	False	150	(8.6695000752547706, 0.54779419695278087)	(2.0627239190917326, 0.24814074840919176)	(-8.6512252059542618, 8.2947447006470512)	(-7.2714345777455982, 2.1152281318563197)	1.0	slash	1.21897
6	M	B	N	A					A	4	0	shapes	M	3	False	150	(6.9599045451489108, -7.3281003837370378)	(-6.6424977876292512, 5.5628478008508644)	(3.8042147285689545, 8.5006094675023398)	(-1.0422599234087651, -6.7205079120006559)	1.0	slash	0.72031
7	N	A	A	N	M	M	B	B	A	8	6	shapes	B	3	False	150	(8.0230467588896559, 3.2214056380697897)	(-2.4257697677244874, 1.8534900746569392)	(-0.3547848192221057, -4.3112122730135294)	(7.8633008645464848, -1.0318809543343752)	1.0	z	0.899899
8	M	A	B	A					A	4	1	shapes	A	3	True	150	(-4.7997917225372024, 3.7135798626987473)	(8.3309539901360914, 7.0747280124275456)	(-4.3672925208971742, -5.4402213954509495)	(6.3533128763247682, -7.3749267397273668)	1.0	z	0.888064
9	M	B	N	M					N	4	2	shapes	N	3	True	150	(1.1231267887835017, 0.34086272779163274)	(-3.38454901279359, -6.0572751534348477)	(8.1650127821303577, -0.5832671605251516)	(-6.3566796215388788, 6.2689176942456903)	1.0	z	0.895708
10	M	A	M	A	B	N	N	B	A	8	3	shapes	A	3	True	150	(-7.0610361098182075, 3.7413077518004414)	(-1.3752811764072232, -5.0285515491560222)	(-5.5122309025425356, -8.2425514208133244)	(6.6619960265888736, -6.197458360606344)	1.0	z	0.735262
11	N	A	A	B	N	B	M	M	M	8	4	shapes	N	3	False	150	(-2.7956379131316886, -7.3422234868854579)	(8.1894358938819813, 4.4885349271764134)	(4.8053826962550268, 8.4297478399001236)	(-3.2201115965708498, 2.441062221631304)	1.0	z	0.928759
12	N	B	M	N					M	4	1	shapes	B	3	False	150	(4.8900854354212075, 4.1130287533604548)	(-5.2235754421964069, -5.1131957193677184)	(-4.448510167912139, 6.7578505179638952)	(1.1103733638930073, -4.807413654645508)	1.0	slash	0.792707
13	N	A	A	B					M	4	3	shapes	B	3	False	150	(1.3539683996018432, -3.885046560841606)	(-7.1837734456568194, -3.6509046618243675)	(6.5141456762800605, 6.719117793916876)	(-1.1928768399715599, 4.2542629149494928)	1.0	slash	0.761787
14	N	A	B	N					B	4	2	shapes	B	3	True	150	(5.7444666501599499, -1.9953635181397242)	(2.7125959062266709, 7.688153487994331)	(-4.9632101796805959, -2.9803382934898242)	(-4.7590580274916867, 4.1918743920052304)	1.0	slash	0.619341
15	N	A	B	B	M	M	A	N	N	8	0	shapes	N	3	True	150	(-6.501876279398636, 8.140964300190543)	(-7.2131400245201203, -3.9675745348867153)	(6.303435343459082, 6.7899261672886464)	(0.26986918321057729, 0.17009181522132444)	1.0	z	1.41891
16	N	B	A	M					N	4	1	shapes	B	3	False	150	(1.7282475341019712, -1.2415688489831105)	(-4.2682146805043235, 1.7757750826209104)	(6.3802989693537615, 6.8791686330729238)	(-5.2494777710472196, -8.5581627344219751)	1.0	slash	0.850861
17	N	B	N	M					N	4	2	shapes	N	3	True	150	(7.4634482386548555, 7.0661356826234485)	(-0.52891251185062949, -6.4383508421532385)	(4.0007495768450863, -6.60163846213245)	(-0.95283182916343723, 8.6397628693609718)	1.0	z	1.31099
18	M	A	A	M	B	N	N	B	M	8	3	shapes	M	3	True	150	(0.38471599570730319, 6.6471084506681901)	(6.7597454131250032, 7.8908908665901478)	(5.5705875510865841, -3.6452431123858737)	(-1.1599960674591099, -0.09434782517429241)	1.0	z	1.668
19	M	B	B	A	N	A	N	M	A	8	5	shapes	A	3	True	150	(4.4684966738334211, -3.9172404976076791)	(8.0094393198808476, -0.012803628677859891)	(-3.0432499466828071, 2.0232332470522039)	(8.2600771967537732, 8.1856739737026665)	1.0	z	1.01783
20	M	B	B	M					A	4	3	shapes	M	3	False	150	(6.2478257478956696, -6.7405305080532356)	(8.7205668874121898, 7.6611462538289032)	(-0.87531369196670106, -7.5876742859221338)	(-7.2382087839639979, 2.7471576533331525)	1.0	slash	0.935022
21	N	B	N	M	B	M	A	A	N	8	7	shapes	A	3	False	150	(1.0350331187778057, -4.2459884279950284)	(4.8495440507186256, 5.2996990048294847)	(5.8145045376736526, -2.4595366893841746)	(-8.5761393521173179, 6.2736407070606433)	1.0	slash	0.737549
22	M	A	N	M					M	4	0	shapes	M	3	True	150	(3.0322948067138213, 0.79925013461394556)	(-2.3977185035937874, 3.9130286135350048)	(-0.30649309395670343, -5.4050477460745512)	(5.7367778199353925, -7.6129184642704768)	1.0	z	1.66292
23	M	A	N	A	N	M	B	B	N	8	4	shapes	N	3	True	150	(-6.5084813163736044, -6.3392877382469095)	(-7.5812144945426878, -1.3055150153879822)	(2.7437567348705461, -1.553655959407755)	(5.9566564696011746, 6.1328469452633048)	1.0	slash	0.746113
24	M	B	B	A					A	4	3	shapes	A	3	True	150	(-2.3575625628188597, -2.1657985678337441)	(6.551229527577803, -6.5025469911660103)	(8.2016675817996259, 8.1420422573579643)	(-5.9635165948633357, 2.8634825307722593)	1.0	z	0.731751
25	N	B	A	M	M	B	N	A	M	8	1	shapes	B	3	False	150	(-3.0377293544371611, 4.5887464963621163)	(-7.9647078611294031, 7.8081667445020955)	(7.6106739023371617, 5.3588265711145855)	(2.2632890424166305, -6.5616902726248378)	1.0	slash	0.861318
26	N	B	M	M	A	N	B	A	M	8	2	shapes	M	3	True	150	(3.8264300529335884, -2.866382696765049)	(2.3021170252591912, 1.4418278306949173)	(-0.012850585135110393, -7.5849891967934218)	(-7.2360909760593088, -6.456941760555317)	1.0	z	1.57125
27	M	B	A	B	N	A	M	N	B	8	3	shapes	B	3	True	150	(3.5121594644556957, -5.0867314168586173)	(-8.6288970562784506, -2.5852089359438013)	(0.83184744826032997, 8.6373082770969383)	(6.5222195008625246, 0.7962078470404812)	1.0	z	1.87714
28	N	A	A	B	N	B	M	M	M	8	1	shapes	A	3	False	150	(1.8341821667146583, -3.8126110193056695)	(-6.9799470335755167, -5.4394407511825307)	(-6.8814024443725099, -1.3939409802437206)	(7.5960031055056021, 4.4923955757850411)	1.0	slash	0.822183
29	M	A	M	N					B	4	2	shapes	M	3	False	150	(-7.1880398924915268, -4.0291491304745257)	(-8.3686145363453814, 5.9231852569518875)	(4.7385489205814686, -3.4426803464725024)	(6.9517395941323059, 2.7518660479542287)	1.0	slash	0.709546
30	N	B	B	M	M	N	A	A	B	8	5	shapes	N	3	False	150	(5.166803555082744, 5.6460439861224767)	(-7.5278988765495072, 5.3341526631859324)	(1.0573244530217885, 7.5711217612679143)	(-5.8187845214884941, -3.9389915456360383)	1.0	slash	0.835459
31	N	A	M	A	B	N	B	M	N	8	3	shapes	A	3	False	150	(-0.082302899388592365, -7.8505199055801107)	(3.7504255826646986, 0.88059333796018535)	(-4.2919859317220528, -2.9470962038801112)	(-4.1626602187253816, 4.153748862152236)	1.0	slash	0.64578
32	M	B	A	N					B	4	2	shapes	A	3	False	150	(-6.2377728274002049, 2.2309798649878321)	(1.2382549368949967, -0.37523693470379982)	(-5.7229221533132364, -3.7574637569777511)	(8.0260188637108101, 6.4391675877769341)	1.0	z	1.12126
1	M	A	B	A	B	M	N	N	M	8	6	shapes	N	4	False	150	(4.2652445991355616, 7.9586622074795628)	(-7.7085832858833658, 6.5680570629362567)	(-0.90629160376745688, -7.1800683785408435)	(-2.4281740582895415, -1.9959359918337727)	1.0	slash	2.36398
2	M	B	M	A					A	4	2	shapes	M	4	False	150	(2.1817302204777906, -2.5752109051776468)	(-0.58943214414789757, 7.6343016991964134)	(-2.699600407426626, -1.7960846714569287)	(5.1104309564952874, 8.4105624596415183)	1.0	slash	0.753814
3	N	A	A	N	M	B	M	B	M	8	4	shapes	M	4	True	150	(-5.4427509153746243, 0.51410585459123581)	(-7.6776176714225084, -3.8961319727133237)	(7.6481256931153965, 2.1382480492695297)	(2.1640074003955547, 6.3021790609731418)	1.0	z	0.787271
4	N	B	N	M					N	4	2	shapes	N	4	True	150	(-1.9888922615345717, -6.8937660707641779)	(3.3388287645990467, 2.2175920685482016)	(1.5801779593489851, -4.1675002210802132)	(-0.14205788806266284, 8.2046795374310584)	1.0	z	1.1757
5	N	B	N	A	B	A	M	M	M	8	6	shapes	M	4	True	150	(-3.1359738909221582, 2.9769969617693128)	(4.8926268494931726, -7.7359679096764413)	(7.4956631187330558, 4.6868257867621352)	(2.6303392656454534, 4.2538355375426349)	1.0	z	1.26295
6	M	A	N	B					B	4	2	shapes	N	4	False	150	(-4.4139329483563161, 6.1037271852837165)	(4.0191683387260859, 2.4833240006525337)	(-4.8996392886636375, -2.0509884832515475)	(8.2913212708809141, -5.6934667680536784)	1.0	slash	0.610989
7	M	B	B	A	N	N	A	M	N	8	2	shapes	B	4	False	150	(-8.5820761521214788, -2.9989931437302513)	(-7.4936247163620129, 7.7449042203636012)	(4.0657963589416966, 2.0872369559815755)	(2.7134284772622905, 7.9837482588120672)	1.0	slash	0.75418
8	M	B	A	M					N	4	1	shapes	B	4	False	150	(7.0542257703889977, 1.5110288979488384)	(-4.486242527851398, 5.8365618899572489)	(-8.4797895857445429, -3.3259367176525609)	(0.87361241343736751, -7.1481850408764878)	1.0	slash	0.556275
9	M	A	A	N	N	M	B	B	M	8	1	shapes	A	4	False	150	(4.2339910882537346, -0.20299778575764904)	(-1.3802874196104762, 8.5223221794311605)	(-0.49694097871409326, 4.0823802918605274)	(-1.2807776674749727, -8.3817364760529252)	1.0	slash	0.565456
10	M	B	M	N	N	B	A	A	A	8	6	shapes	A	4	True	150	(-7.946075991074494, -6.8480307633190929)	(6.4785629360401096, 6.4758614331250222)	(-1.7563223793244882, -5.9213506807768646)	(-1.8712427728564114, 6.5624461901009727)	1.0	slash	0.749029
11	M	A	M	B	B	N	N	A	A	8	3	shapes	B	4	False	150	(6.1756510532598021, -4.3667745642847153)	(1.2417845613673517, -4.8554205677533941)	(-8.0857835538101845, 0.87595443927390448)	(1.6103913305870119, 0.49928145955467329)	1.0	z	0.993452
12	M	B	B	M					M	4	0	shapes	M	4	True	150	(7.7270954993191729, -2.9291327163903613)	(-4.1029813391366607, 6.2828751778614418)	(-7.4651557902430969, -6.7057210717574893)	(2.6925141303563525, 5.7361949524057749)	1.0	z	1.01711
13	M	B	A	M					M	4	0	shapes	M	4	True	150	(-3.8593528807455453, -8.6412972091946294)	(5.2169217425572025, 2.6294975137995245)	(-2.6295952598050025, 6.030552180487792)	(5.4543737673599697, -7.8295280890890986)	1.0	z	0.836539
14	M	B	N	B					N	4	1	shapes	B	4	False	150	(0.18023513202666663, 7.8106415922043055)	(-5.2605299815532467, 0.34662920837342348)	(-4.1095805534704697, -8.6846120716275088)	(8.1371285750553248, -2.4906290316655584)	1.0	slash	0.661738
15	N	A	M	M	B	N	B	A	N	8	2	shapes	M	4	False	150	(2.2992540483129691, -8.1525073581881493)	(-2.5099591332274445, 4.783016629228543)	(-4.9289616034418522, -7.8613353948010829)	(-6.3633024993892278, 3.3964736923110355)	1.0	z	1.26931
16	M	A	M	A					A	4	2	shapes	M	4	False	150	(-0.87664129519677481, 4.5855973012981277)	(8.0109225563822974, -7.0817587628803631)	(4.3672213337607531, 5.712519942808699)	(-7.7374405343369901, -4.940069992529561)	1.0	slash	0.774964
17	M	A	A	B	B	M	N	N	B	8	4	shapes	B	4	True	150	(-6.3106159711277483, 6.0873917477822879)	(4.6602829694803969, 6.8005055848598239)	(7.1642623021800862, 2.27885300349317)	(-6.6738290829688305, -7.1642196450001405)	1.0	slash	1.27055
18	M	B	M	A					M	4	2	shapes	M	4	True	150	(2.3279447353899769, -3.8350318640156509)	(7.7606684880971564, 1.0392268572155494)	(-3.0931668074631649, -6.8683239324238894)	(-8.4929602207108292, 1.0813281710229159)	1.0	z	0.754211
19	M	A	B	B	M	A	N	N	M	8	5	shapes	A	4	False	150	(-1.58544825099239, 8.0370534718540227)	(3.9573394193465461, -4.2470345330988355)	(0.40670437594503284, 4.4776339014360094)	(0.84790458659871426, 0.41004463940731739)	1.0	slash	1.23997
20	N	B	A	A	M	M	N	B	M	8	4	shapes	M	4	True	150	(-2.9142357886682149, 6.5475868919448938)	(-5.281671046968917, -7.6654312980784516)	(3.8949801763283869, 1.0101912874682633)	(8.2543469628971273, -1.7226592508250826)	1.0	slash	0.626138
21	M	A	B	A					N	4	2	shapes	B	4	False	150	(-1.2695965378046266, -7.3015738454128316)	(1.0990325360675879, 6.906884363918433)	(-6.5227270679154987, 4.7599189502764663)	(3.8666427110725063, -2.2243960329059158)	1.0	slash	0.763133
22	M	A	M	A	B	B	N	N	M	8	6	shapes	N	4	False	150	(-5.2292123551498308, 5.7061609851478163)	(-1.1905541878403056, 4.483296149141724)	(-3.7076099041694892, -5.1709717295094286)	(8.6861311865786099, 8.3285699808898066)	1.0	z	0.843317
23	N	A	M	B	N	A	M	B	B	8	3	shapes	B	4	True	150	(-3.9036153121171511, 4.5533128260278364)	(-3.8823790511343521, -7.3491234524840161)	(5.353220585746195, -6.7499865891215558)	(8.232099340360385, 1.9206841103446717)	1.0	slash	0.426376
24	N	A	N	A					B	4	3	shapes	A	4	False	150	(3.9721348771164156, -7.1636611855360179)	(-5.8778875688640788, 1.2236379985517924)	(5.3864343104292889, 5.2521104391176543)	(-8.5252167018662437, -2.617792967859855)	1.0	z	0.750017
25	N	B	A	B					B	4	3	shapes	B	4	True	150	(4.312424545908101, 3.8912354334354724)	(8.6631196197761575, -4.8885879056884161)	(-4.6373603649702009, 4.8125264175543911)	(-3.9562738212907371, -5.6184937421511725)	1.0	z	0.78422
26	M	B	A	N					B	4	1	shapes	B	4	True	150	(7.69861242368437, -0.39343854375210086)	(-6.4740759858894066, 6.1700629346833367)	(0.37396141226176915, 1.7332597204346065)	(-3.5239997848673434, -5.4446517715226266)	1.0	z	0.828084
27	M	B	N	M					B	4	1	shapes	B	4	True	150	(2.7810913236912054, 0.99942750997582586)	(6.0146097789002013, -5.6891297891636583)	(-8.0473523078347817, -6.1169861574647006)	(-2.5052946811801799, 0.2594612941395269)	1.0	z	0.856688
28	M	B	M	N	A	B	A	N	N	8	7	shapes	N	4	True	150	(1.5204709463304606, -3.9085018469255273)	(-5.9130418160736031, -1.2778433866051886)	(-1.2768541579646424, 3.6011995554297656)	(3.4834248601648614, 7.6403084118740914)	1.0	z	0.82526
29	M	B	N	N	A	M	A	B	M	8	5	shapes	M	4	True	150	(-8.1665673635449458, 3.7791658651644688)	(6.9388091226820201, -2.2691085237649311)	(-2.8051290461310874, -8.5203241865262402)	(-3.8901943710276017, 2.4877924060781549)	1.0	z	1.05687
30	M	B	A	M					B	4	2	shapes	A	4	False	150	(8.4674969415421835, 5.2165876916283231)	(-4.3531098011563838, 0.057172366126060581)	(3.610949344322913, -1.8025706159188442)	(-5.6161610348568942, -6.8682058156456272)	1.0	z	0.812138
31	N	A	B	A	M	N	B	M	A	8	0	shapes	N	4	False	150	(-7.597664233998934, -1.0657985427844752)	(8.6960251599989853, 1.9989719386537796)	(4.4177981515392162, 1.7493010518901233)	(4.1413235196262672, -3.7434499265906505)	1.0	slash	0.786214
32	M	A	B	M					A	4	1	shapes	A	4	True	150	(0.48943764462124406, 4.2771325455358102)	(-4.393190402817952, -0.28476090224342343)	(-3.007991680664559, 8.3633225967713898)	(5.0288931862528976, -5.431291337723434)	1.0	z	0.723453
1	N	A	M	A					B	4	2	shapes	M	5	False	150	(-3.6419329044187272, 7.5397971054643591)	(3.4047342922590005, 4.9153527180917109)	(1.6240033606156494, -8.6856286675210512)	(-0.19084476630395386, -0.94694306569749642)	1.0	slash	0.669468
2	M	B	A	M					A	4	2	shapes	A	5	True	150	(4.6435989739054175, -0.78575321898060757)	(-0.3280092977972604, -3.9985728946920247)	(2.0529822231157198, 4.72503570304095)	(-4.2207406956673408, 7.4595664682109764)	1.0	z	0.609376
3	N	B	B	N					M	4	2	shapes	B	5	False	150	(5.2160240893174663, -5.2658909835349652)	(-3.2928758887149048, -5.0160757477740825)	(2.3924252198825684, 5.6755894828829234)	(-0.071226718126533584, 2.2750663922168197)	1.0	slash	0.586189
4	N	A	N	A					N	4	1	shapes	A	5	False	150	(-7.5461634542429419, -2.5732324383703942)	(-1.0273386426813476, 1.571635004373352)	(3.2234924910986784, -4.1826393827136412)	(5.912827058078916, 4.8984171883039913)	1.0	slash	0.638096
5	M	B	M	B	A	N	N	A	M	8	0	shapes	M	5	True	150	(7.8111117826193066, -0.37525091919693665)	(7.8544711139773362, 5.5580059934601671)	(1.5982327249858965, -4.4357037377453645)	(-2.4901093677557515, 0.24087459123989952)	1.0	slash	0.817894
6	M	B	A	N	B	M	A	N	M	8	0	shapes	M	5	True	150	(7.9781305629531474, 1.6850033286987873)	(-0.57828975051853249, -0.19611255017276719)	(-4.5348122578188761, -7.9100588525710025)	(-0.30318372997172105, 6.5002597208500337)	1.0	slash	1.32719
7	N	A	B	A					N	4	2	shapes	B	5	False	150	(-5.9824874976784139, -3.9212500921026567)	(-1.946113388756781, 8.3614273536254551)	(6.3559330141656361, -1.2268299218298759)	(8.5231997914159585, 5.6036568890077074)	1.0	slash	0.574971
8	N	A	M	B	M	N	B	A	A	8	7	shapes	A	5	True	150	(4.9934498607980728, 8.5792389595596141)	(0.71489398261507731, -0.57462252430882899)	(-4.3881545489210438, 7.1401079770793885)	(-0.93003745999575127, -7.051746311431633)	1.0	z	0.86444
9	N	B	M	B	M	A	N	A	A	8	7	shapes	A	5	True	150	(5.7180954907574009, -2.3139432226517549)	(-7.9300482967579677, -1.0287009291434996)	(3.977498939663155, 2.9419628603019294)	(-0.099459280435864272, 3.302092828792448)	1.0	slash	0.572384
10	M	B	A	B	A	M	N	N	N	8	3	shapes	B	5	False	150	(4.6230708496263091, -0.50558944052877131)	(7.0828060189878901, 4.6156855257717915)	(-6.4038663585775248, 4.4019959304348664)	(0.44145550000370015, 7.0653789398837858)	1.0	slash	0.458003
11	M	A	M	B					B	4	0	shapes	M	5	False	150	(1.2785220854016579, 4.3005712276348742)	(4.7713073024219774, -7.255267405532182)	(-3.707735896393646, 6.6410704887415761)	(-3.3898115937670221, -1.7155658891220398)	1.0	slash	0.59177
12	N	A	B	N					A	4	1	shapes	A	5	True	150	(8.57459611425476, -0.98811047042532252)	(7.9207575468241842, 6.5411957551916995)	(-4.7840617316149876, -3.7479119228262405)	(-7.3539159388901387, 7.8175485000681384)	1.0	z	0.713038
13	M	B	A	A	N	M	N	B	B	8	7	shapes	B	5	True	150	(0.20687580554818474, 4.0105680663546472)	(-7.9445548046649419, 4.6760594263249633)	(3.612539310101381, -2.9135705027929344)	(2.3416214149639494, 8.5047083381377639)	1.0	z	0.762618
14	M	A	N	M	A	B	B	N	M	8	4	shapes	A	5	False	150	(-1.6199348564298583, -1.8634305217718579)	(-7.7069548075101517, -3.2255838404861574)	(5.9641779443104976, 8.2488578096288379)	(6.9517517543509282, -6.3710629743491545)	1.0	slash	1.06852
15	M	B	N	N					M	4	2	shapes	N	5	False	150	(-4.5753641116705523, -8.2868999785550432)	(5.9135148357516307, 2.7296375691549173)	(-5.3060314825288106, 5.1446339865602706)	(2.8464977638774123, -2.8999996001499486)	1.0	z	1.2785
16	M	A	B	N					M	4	0	shapes	M	5	True	150	(-5.112550743943606, -0.87741487390146577)	(0.48280680561820688, 3.1760554124428122)	(0.77294765307717839, -7.6963841179248025)	(-6.7994887387035821, 8.1468868585634482)	1.0	z	0.678121
17	M	B	A	B	M	N	A	N	A	8	6	shapes	A	5	True	150	(8.7292222785695479, -3.8417051159756248)	(-2.6984583343899375, -3.0017336205081939)	(0.97588072037712514, -0.78909245251593951)	(6.1311560513039129, 4.5801884205500816)	1.0	z	0.976151
18	N	A	N	A	B	M	B	M	N	8	2	shapes	N	5	True	150	(-1.3935659840131018, 7.1514922621677499)	(-6.7480585967312159, 1.177729066258669)	(6.4796741891223064, 3.9023697287210783)	(4.5018576222894868, 7.9887578208088676)	1.0	slash	0.533265
19	N	B	N	B					N	4	0	shapes	N	5	True	150	(-2.6639160162910018, -3.9698344253215456)	(-5.0090870755614674, 6.1427928146775894)	(8.3449506644852214, -4.9455977590205116)	(8.4881252172810235, 4.1194238373918441)	1.0	z	0.677565
20	N	A	M	M	A	N	B	B	M	8	5	shapes	N	5	False	150	(2.5218137921873272, -2.0886154810200681)	(-1.7943255775058038, 6.993314374204548)	(-0.70203054444893809, 2.5468971720386442)	(-5.4984595048646341, -8.6370154057634565)	1.0	z	1.48858
21	M	B	B	A					A	4	1	shapes	B	5	False	150	(-0.25710233198595134, 4.4890878536885435)	(5.1960360521996751, 6.7497216520773922)	(-3.7183571872338463, -7.8380330051727363)	(4.1741413262782032, -4.1682109827644158)	1.0	slash	1.09536
22	N	B	N	B	A	A	M	M	A	8	5	shapes	A	5	True	150	(-2.8482797238313324, -5.13123339504779)	(4.9609608406771297, -3.0173965018307047)	(7.7815758932100678, -7.6695028909036331)	(8.5629725394406506, 2.1584579609612131)	1.0	z	1.18152
23	N	B	B	M	A	A	N	M	N	8	4	shapes	A	5	False	150	(-6.1807620171220705, -1.9547534895422576)	(-5.8992594692449813, 8.2937398648649854)	(-5.2263834435263528, 3.9480701881981819)	(-6.6108342481067552, -8.1380952760414633)	1.0	z	0.979261
24	M	B	A	N					B	4	1	shapes	B	5	True	150	(8.6316389406662992, -7.7327963589515418)	(-3.7651938373158815, -4.2577380389336907)	(-4.1011336439002788, 2.3132223719662441)	(8.4511706388947232, 2.933567374878141)	1.0	z	1.32894
25	N	A	B	N	A	M	M	B	B	8	3	shapes	N	5	False	150	(-4.5705998570076041, -1.6623621027979425)	(-5.6323167501184939, 5.9543002523134181)	(5.0149335141340838, -7.2748162912264647)	(5.8281251341297455, 1.1016376118335085)	1.0	slash	0.516501
26	M	A	N	M	N	A	B	B	B	8	3	shapes	M	5	False	150	(-6.1342467619751941, -6.4210688443578752)	(5.2665417408976278, 1.4794649522440739)	(8.0596979201222503, 5.2238599026434436)	(-1.4759003987856412, 7.8716025531068965)	1.0	slash	0.680457
27	M	B	A	M					B	4	1	shapes	B	5	True	150	(-3.8960826215881177, -7.3647187778289087)	(7.8518990153789332, 1.8063303442790453)	(2.0565953146691545, -4.9107878623734376)	(-3.8919558075986211, 7.6379401889018759)	1.0	z	0.55432
28	M	B	B	A					B	4	2	shapes	B	5	True	150	(-0.47051006764713144, -1.3426984753127913)	(0.95471184784709351, -5.5774601027767492)	(-8.6841173768026891, 6.501404436429608)	(3.7045177412695143, 0.82742656866478548)	1.0	z	0.496225
29	N	A	A	M	B	M	N	B	N	8	1	shapes	A	5	False	150	(3.8513972998810164, -0.27790559274761151)	(-2.3465304302024945, -4.4717951251504777)	(3.1941510289439954, 6.9976738542902783)	(-6.9750887346587982, -6.5390665426921961)	1.0	slash	0.81569
30	M	A	M	N					N	4	0	shapes	M	5	False	150	(-7.6407399553352917, 0.95164700012532677)	(4.7664291174298103, 5.8439363288941397)	(8.2156858823698755, -5.0005487750630229)	(-7.7192347664945897, -6.1221231653909225)	1.0	slash	0.73263
31	M	B	N	N	M	B	A	A	A	8	4	shapes	M	5	False	150	(-4.3049979757456791, -3.2875169316736912)	(0.41213570739018124, -2.0113491899933118)	(8.6807111060583004, -1.4065055350075841)	(-7.7761707630921002, 0.2292570286950788)	1.0	slash	0.900382
32	N	B	B	M					B	4	1	shapes	B	5	True	150	(8.2180017980653659, 2.8154506027296868)	(-6.9327113102584175, -6.5334565367664288)	(3.2573528467972928, -7.8927328578417626)	(-4.6413128479281296, 4.9440842637259426)	1.0	z	0.538145
1	N	A	N	B	M	M	B	A	B	8	6	shapes	B	6	True	150	(7.8352343861578611, 0.91140775484551995)	(-4.9207472743715313, -6.2199413552912048)	(7.6568875706949591, 6.6660590552193639)	(-2.2716014002277198, 7.9230574349764424)	1.0	slash	0.766013
2	M	B	A	A	M	N	N	B	B	8	1	shapes	B	6	True	150	(-6.4484938646112813, -5.751716538699009)	(-8.3634005653649144, 6.0397260189542852)	(3.0357719088874369, 7.9103414068289375)	(0.58024799384507908, 0.91114119767574309)	1.0	slash	0.736005
3	N	A	A	M	B	N	B	M	M	8	7	shapes	M	6	True	150	(1.1356057801821553, -5.7375061279030506)	(-3.5762417059141693, 5.6677793539653987)	(6.7262926195665003, 5.342782425292711)	(-7.2459337690272339, 2.46926408304871)	1.0	slash	0.933931
4	N	B	B	A	M	M	A	N	N	8	3	shapes	A	6	False	150	(-6.3199553807675173, 0.98548303915565683)	(-1.9120151844237565, 8.4868697697346924)	(4.4215168005885737, 6.0110499396021631)	(1.3394223242016015, -6.6045158070190535)	1.0	slash	0.66095
5	M	B	N	A					B	4	1	shapes	B	6	True	150	(4.6037860579249017, 3.6072984604255449)	(0.056492535143446432, -0.58194208840791006)	(-5.0365785094362092, 7.2732243553630482)	(-0.78637367736359032, -7.533608089285627)	1.0	z	0.547107
6	N	B	M	N	B	A	A	M	N	8	1	shapes	B	6	False	150	(0.45002724967926433, 6.6188731672813308)	(-7.9266094437669743, 4.2319907469038398)	(6.1201464502243201, -2.9581984177088705)	(1.3122773157470089, -1.4024075094183965)	1.0	slash	0.502123
7	N	B	N	M					M	4	1	shapes	B	6	False	150	(-7.2941512358010776, 2.7548628964920372)	(-2.3140754159027477, -5.8580987686965713)	(8.4084062273396825, -4.1109906291198683)	(3.9898032853591783, 1.0845963512427605)	1.0	slash	0.507743
8	N	A	M	M	B	N	A	B	M	8	7	shapes	B	6	False	150	(7.6298323223781885, 2.5679145798640892)	(-7.9855869800120205, 2.6224733077880931)	(0.30371913045298982, 1.836653154389035)	(-4.1861837304727967, -8.2551120447702626)	1.0	slash	0.530218
9	M	A	N	A					B	4	3	shapes	A	6	False	150	(-1.8141765772554059, -4.4110124378584175)	(0.10346149144870154, 7.8978981246869218)	(-8.1082068561020897, 1.4195070938300542)	(3.8810083399379423, -4.7693773653266582)	1.0	slash	0.575251
10	M	A	M	B	B	N	A	N	N	8	2	shapes	M	6	False	150	(1.2119223860747841, -0.083902534622836811)	(5.7366286755025566, 1.5440683768446366)	(-2.5702029666481243, -3.661118205167444)	(0.57482397869330981, -6.8037562215337886)	1.0	z	0.484866
11	N	B	M	B					B	4	1	shapes	B	6	True	150	(5.5296475548530353, -8.096160791567133)	(0.095101888911244714, 7.5093492177632548)	(-0.46399988101897982, -8.2856365211895735)	(-5.1362154247009926, 2.3751611920589095)	1.0	slash	0.876535
12	M	B	M	B					B	4	1	shapes	B	6	True	150	(-7.2378632734505821, -6.2254490067013766)	(6.9578234920040369, 0.70993395906087464)	(0.03693531284455176, -0.40626600433564342)	(-8.5393670464851503, 8.5596946843119746)	1.0	z	0.638294
13	M	B	B	N	M	N	A	A	N	8	1	shapes	B	6	False	150	(5.0515779211483913, 2.2406855751188566)	(5.4951772059827366, -8.4935977485012693)	(-0.0034181037553793203, -3.386701831223319)	(-5.7111551382550072, -6.1428055415612501)	1.0	slash	0.505973
14	N	A	N	B					B	4	2	shapes	N	6	False	150	(0.18781923016802615, -7.7729980260906801)	(-3.5246199050836999, -2.9662896090102358)	(8.4784539997013972, 6.4570168633241654)	(-6.3258241280693648, 3.4509394601672962)	1.0	slash	0.563601
15	N	B	M	N					B	4	3	shapes	N	6	False	150	(-3.881707998064063, -4.4697004749674578)	(4.9322844277806954, 6.6843881171411645)	(-2.6138182092666877, 6.1074089191038912)	(8.1558075861682333, -4.5751064183976258)	1.0	slash	0.675363
16	M	A	B	M					M	4	3	shapes	M	6	True	150	(1.8718693231217678, -7.1385165615561839)	(3.9120021185696352, 1.0968528151571171)	(-4.5916439191861587, -7.4204686189011779)	(-8.0278004217846259, 8.1468438833904386)	1.0	z	0.828852
17	M	B	B	A					A	4	2	shapes	B	6	False	150	(-7.4847740227274064, 2.0610201459025586)	(5.4612086348609363, 1.6739132663103575)	(6.9650268821073809, -4.328889755719441)	(-0.56913588043139463, -0.6934584387846634)	1.0	slash	0.718321
18	M	A	M	B					M	4	3	shapes	B	6	False	150	(-2.6789131086189517, 0.76519009036138108)	(5.1014052708138351, 1.436900244431774)	(8.1513144949162566, -6.2235352853044112)	(-1.2884478527053442, -5.7738895192888604)	1.0	slash	0.576139
19	N	B	A	A					N	4	2	shapes	A	6	False	150	(-7.4362082613057545, -6.9176714998778834)	(-0.85439377314685228, 7.8200819194937097)	(6.5738598785238356, 6.1732390689087353)	(7.2613861497603374, -4.3511896678480966)	1.0	slash	0.537919
20	M	B	B	N					B	4	3	shapes	N	6	False	150	(4.8880143293297582, -3.801296840872018)	(-6.0900247043499762, -7.6764190172962916)	(6.5481600868756082, 6.0440176345711603)	(-1.77370042997849, 5.6833443736579827)	1.0	slash	0.504252
21	N	B	M	M	A	B	N	A	M	8	3	shapes	M	6	True	150	(-3.5048430708242355, -3.6715120829177152)	(-1.8769311291641655, 6.4039395363098013)	(-6.5455450106525399, -0.71325777758011988)	(3.2298712852552498, 0.93506822518497223)	1.0	slash	0.581203
22	M	A	B	N	A	N	M	B	M	8	0	shapes	M	6	True	150	(-0.27678374874750844, -7.9409212018774999)	(-3.0149129676356079, -1.2600779113704093)	(-5.2379371583396122, 5.6169734377663261)	(1.3408380836731304, 6.0816671999168026)	1.0	slash	0.483022
23	M	B	A	A					M	4	0	shapes	M	6	True	150	(5.031051171210418, 2.1222773405503847)	(-4.0557638678367383, -0.28021470086933498)	(2.5185284589397163, -4.9856028418498051)	(-3.0685726610914621, 4.0885928355133476)	1.0	z	0.786522
24	N	B	M	B	A	A	M	N	B	8	3	shapes	B	6	True	150	(-3.762934721664756, -4.4586433075634693)	(1.0248375209039171, 6.4359121367282679)	(-3.2608079710272602, 0.50421756706984411)	(3.4023047998220228, -5.30755491937368)	1.0	slash	0.470868
25	N	A	B	M					M	4	3	shapes	M	6	True	150	(2.3707944053801189, 6.5471229671763389)	(-5.0803810029200775, -1.8000716885523111)	(-5.3608667882004584, 7.4309638657284509)	(5.2118211523970768, -4.9355808765508939)	1.0	slash	0.746433
26	M	A	A	N					A	4	2	shapes	A	6	True	150	(-6.8576795775076871, 6.990545528856261)	(3.3212030828323442, -5.0472641403961855)	(-8.541507527803315, -1.8369425277497928)	(0.73005383256638368, 1.8919656459670477)	1.0	z	0.476276
27	M	B	A	B	N	M	A	N	A	8	7	shapes	N	6	False	150	(-0.47085421420590023, 5.495234176123061)	(7.4220821435400133, 6.312987339317587)	(7.3688544472096993, -6.4801151542371409)	(-8.2174121408366805, -8.323294981559032)	1.0	slash	0.655151
28	M	B	N	A					B	4	1	shapes	B	6	True	150	(-3.4767776581349823, 2.5860812819682444)	(-7.3956279178964266, -8.3957798055121824)	(6.5531428535819902, 7.4903357823225925)	(0.31151978463515029, -1.1708527987316888)	1.0	z	0.42295
29	N	A	M	M	B	A	B	N	N	8	0	shapes	N	6	True	150	(-8.2403939441664988, 4.8069059460860277)	(-0.90245032544263726, 3.8420088115099826)	(6.5399447643556954, 2.771116654319032)	(-7.0667833454097231, -7.81608268942637)	1.0	slash	0.466537
30	M	A	N	N	B	M	B	A	B	8	4	shapes	B	6	True	150	(5.0918300243518733, -1.0108115824526642)	(7.1248856499219908, 4.2428695493770281)	(-8.5388965920482924, -2.5132540955410763)	(-5.2417432882285429, 2.5309742404978106)	1.0	slash	0.462321
31	M	A	B	A	M	N	N	B	M	8	6	shapes	N	6	False	150	(-7.2449059405056975, -6.7628635371237156)	(-6.673267613303425, 7.1626978604583229)	(-6.664486850960591, -2.7747797624407928)	(-1.0315197259751843, 7.9017843180762171)	1.0	slash	0.523917
32	M	A	N	M	A	N	B	B	B	8	2	shapes	N	6	False	150	(1.3359709669780191, 5.638185609065097)	(-1.4497313890052128, -3.7901831196790017)	(5.3456788500618835, 6.9984065263879849)	(-1.5785489291683117, -8.6970118317831719)	1.0	slash	0.533746
1	N	A	M	A	B	N	M	B	N	8	1	shapes	A	7	False	150	(-2.7086940530296468, -7.5047202307328043)	(-7.4514438429464942, -6.6784738550943086)	(2.5573358939414792, -0.0085374075872532984)	(-2.67673617871188, 2.1561758368334818)	1.0	slash	0.891253
2	M	A	N	N	M	A	B	B	N	8	5	shapes	A	7	False	150	(-3.0910360207931902, 1.7878206703845532)	(-0.4589074441992107, -8.3998408932982649)	(4.2074840193224787, -0.2164529705125311)	(6.8366297234708284, -4.4257673625362539)	1.0	slash	0.522848
3	N	A	A	N	B	B	M	M	A	8	4	shapes	B	7	False	150	(6.4564684091834081, 1.7643547914092661)	(3.2869274129204378, 6.6298095398552537)	(-3.3133171755562341, 4.6703403558404357)	(0.50615321576703565, -6.6274962014841652)	1.0	z	0.852637
4	M	B	M	A					M	4	2	shapes	M	7	True	150	(1.2078173791316154, 3.2007093195319651)	(3.7694311209136693, -4.3273337479892549)	(-5.4704968884259939, -6.825162842383687)	(-7.9529046397433003, 5.5221748196278018)	1.0	z	0.516275
5	N	A	A	M	N	B	B	M	A	8	1	shapes	A	7	True	150	(-2.291547942560574, -0.030878545492404541)	(1.3631631531916213, -4.8099315202942385)	(0.19422240591865325, 7.8310313896623072)	(4.3180144627182138, -0.40984389871965199)	1.0	z	0.983801
6	N	A	B	A					A	4	1	shapes	A	7	True	150	(-6.7827792374878566, 1.3844784916830228)	(5.1768367916910947, 4.688545865409937)	(7.7782805608078114, -4.307858089816138)	(-5.2307038744990386, -6.9698548618110401)	1.0	z	0.769458
7	M	A	M	N					M	4	0	shapes	M	7	True	150	(-1.6026563474007691, -8.3057687529829334)	(0.62940317834623905, 5.2744867327845668)	(6.2518676274127607, -3.7736106291985401)	(-3.1953898724358103, 3.1388530656768872)	1.0	z	0.673726
8	M	B	B	A	M	N	N	A	B	8	2	shapes	B	7	True	150	(3.9347555002917627, -5.9574637105946637)	(-7.0070817808828103, 4.9313936619508567)	(-1.1592759217177386, -1.4791143330037171)	(-6.4129013305911737, -3.0478288541807093)	1.0	z	0.644889
9	N	B	B	A	A	M	M	N	B	8	3	shapes	A	7	False	150	(1.2163793890152732, -3.5895829840910825)	(3.6229152341832496, -8.2173266421193745)	(-6.3404641224315803, 3.4597525078397915)	(-8.1335147442139881, 8.2394068363302928)	1.0	slash	1.0806
10	N	A	N	A	B	B	M	M	A	8	1	shapes	A	7	True	150	(-6.8554047390176631, 7.213092153217616)	(-7.3116582007808795, -8.4864704908157513)	(5.5478264697221658, 5.7381730651494784)	(2.2148044212500597, -8.0800623345889804)	1.0	z	0.626667
11	N	A	N	M					M	4	0	shapes	N	7	False	150	(-7.4112192181610297, 2.8406014147165699)	(4.0229630566472139, 1.9058954248856779)	(-2.6683693702141156, -4.0569577691586396)	(5.5021784780894958, -2.8629235292110495)	1.0	z	1.25984
12	N	B	B	A					A	4	3	shapes	A	7	True	150	(-3.1168882597155703, 7.0023046282291954)	(5.7691171032161694, -3.3602178879988127)	(-2.5621550439549239, -1.2632482661262623)	(2.3495088961701889, 7.9335065963113216)	1.0	z	0.847573
13	N	B	M	A	A	B	N	M	B	8	1	shapes	B	7	True	150	(-0.078516419979948182, 4.113778277046011)	(-1.1326020775945222, -8.341260241853691)	(6.4787279307518233, 3.8772740626803976)	(0.10631502805629545, -4.2507485945181864)	1.0	z	0.663259
14	M	A	N	M					N	4	1	shapes	A	7	False	150	(7.1122881964706011, 4.7427102449619465)	(-5.0095282637074821, -1.0899100975788798)	(0.30555846424762123, -4.2010795718503413)	(-7.1955516932951724, 7.4234048857168986)	1.0	slash	0.578855
15	M	A	B	A	B	N	M	N	M	8	7	shapes	N	7	False	150	(0.98842559152924458, 3.3002833683236652)	(-2.4255004939831819, 8.2557090068654766)	(2.0595603263960545, -4.4055713246142787)	(5.4111943601173582, 5.0627553167229902)	1.0	slash	0.682482
16	N	B	A	A					A	4	0	shapes	N	7	False	150	(-6.9938076095551249, 3.188097808726658)	(4.8487745848737767, 0.71798499536174987)	(1.5052458781720439, -7.3320073307335223)	(-3.9549144867534514, -7.8054608751508212)	1.0	slash	0.522723
17	N	B	B	A					M	4	3	shapes	A	7	False	150	(-6.8022149892345336, 4.2512251756407942)	(6.1278653640065599, 0.33636997180689931)	(-1.7747397559558298, -7.6665150794859134)	(8.2607473786023604, -8.164559867500083)	1.0	slash	0.554056
18	N	A	A	B					B	4	3	shapes	B	7	True	150	(4.283286467743034, -0.6004819930611287)	(6.641777855294297, 7.4369808006008356)	(-5.2513120905934834, -3.2299156332380194)	(-7.6071217384653913, 8.3670257153325949)	1.0	z	0.851449
19	N	B	N	A	A	M	M	B	A	8	4	shapes	A	7	True	150	(4.2709767277040598, 3.6873261729850686)	(-5.3266792183356699, 4.1155514236090518)	(5.0089401637937101, -6.4642066304280341)	(-4.0851051215978122, -0.63147228620456453)	1.0	z	1.09299
20	M	A	B	M					A	4	0	shapes	M	7	False	150	(8.4896218331671491, 0.16604696533101304)	(-3.5522559067299309, -3.1937334384111677)	(-4.5365892387186761, 2.3391638014276399)	(5.5525374111050301, -6.412103496765539)	1.0	slash	0.54983
21	N	A	B	A					A	4	1	shapes	A	7	True	150	(-4.8624454558323613, 7.1513307565891058)	(0.33492267049383706, 0.74912947702403088)	(4.5273388290941643, -1.4043337971515175)	(-5.9500844208341199, -8.4595966043465278)	1.0	z	0.488331
22	M	B	A	N					A	4	2	shapes	A	7	True	150	(-7.4503734623940039, 3.6757076865543858)	(8.4226105277578966, 6.5736364230313669)	(7.6056894052588682, -3.7027063197721839)	(-7.3672216809634463, -1.7691459714760658)	1.0	z	0.64693
23	N	B	M	A					A	4	0	shapes	N	7	False	150	(5.137126739884172, 3.7935218578594387)	(-4.3061241219142081, -7.006188592710533)	(6.2811440608419122, -8.6125591875857523)	(-3.9950284953514767, 3.8339659101345713)	1.0	slash	0.803625
24	M	B	M	N	N	B	A	A	M	8	2	shapes	M	7	True	150	(6.2355301598952977, -4.1297044081772754)	(-3.9677696189814329, -0.43357675350124403)	(5.4973744021320226, 2.0169962991507262)	(2.621440721810341, -7.5038095985392417)	1.0	slash	0.574023
25	N	A	N	A	M	B	B	M	A	8	4	shapes	M	7	False	150	(7.4289423234221061, -6.663323177448671)	(8.687031235761804, 8.2179289684336219)	(3.8056363448697468, -3.67233488429601)	(5.4159797197692363, 5.7012386255952983)	1.0	slash	0.549454
26	N	B	M	A	M	N	B	A	N	8	0	shapes	N	7	True	150	(3.9877951090329589, -2.2869066650599459)	(-6.039091797522647, -7.2569656177660491)	(0.10302841190278933, 3.7296606152643825)	(2.2975543535782936, -8.2509518276718623)	1.0	slash	0.370816
27	M	A	B	B	M	N	A	N	B	8	7	shapes	N	7	False	150	(0.34282110151837308, -1.2018814333326997)	(-2.7539229765360869, 8.6289181304254861)	(3.9541241501541489, 5.2405750473750796)	(6.7067386248884269, -3.9218831670364755)	1.0	slash	0.490357
28	M	A	M	A					A	4	1	shapes	A	7	True	150	(-6.9697980180375163, -8.4887180781422238)	(5.6903346406224458, 2.1208526585201515)	(1.3987727684956877, -8.0355748871067192)	(-1.5678093812920855, 3.3552575556180564)	1.0	z	0.714736
29	M	B	M	A					B	4	3	shapes	A	7	False	150	(-4.8485027971061783, -2.4883952107809959)	(0.44473210484049552, 6.4394949124424929)	(-6.0342506946252623, 8.2666397262758338)	(1.6708488951991978, -3.2043169024212288)	1.0	slash	0.557033
30	M	B	N	N	B	M	A	A	M	8	7	shapes	A	7	False	150	(-2.1637991233455987, -6.9795517293232194)	(-5.6135491353255595, -0.10343677439539256)	(1.6485728439045175, 6.9369785601848903)	(-4.6278657294060705, 6.6377239217677815)	1.0	slash	0.662063
31	N	A	A	B	N	M	M	B	B	8	7	shapes	B	7	True	150	(-7.6849072551433544, -3.8461133702078127)	(-7.3147094699282258, 3.8834655244352838)	(-0.17319187084786414, -4.5592459609739286)	(8.1427646751757727, 3.3029908133410597)	1.0	slash	0.826985
32	N	B	M	N					A	4	2	shapes	M	7	False	150	(2.7788930771164377, -6.6020442970027453)	(-7.7113667555949554, 4.9661086931818978)	(-8.1681346742380754, -4.8821681577104536)	(1.0054766517294578, 8.0791587401508629)	1.0	slash	0.750782
1	M	A	M	N	N	A	B	B	A	8	0	shapes	M	8	False	150	(-1.2438040935227308, -7.1285492386538287)	(-7.1003258229475366, -2.7661319324945515)	(-5.5046436883606917, 3.5011825413591353)	(2.9052740825131149, -7.4397754684542399)	1.0	slash	0.562315
2	N	B	B	N					N	4	0	shapes	N	8	True	150	(8.680325406032825, 7.858949825991008)	(-4.2819976055966187, -0.45796924838250241)	(3.5374923008030823, -7.2330115620700175)	(-7.0753645114483739, 5.3044965549442935)	1.0	z	1.28199
3	M	A	B	B	A	M	N	N	A	8	1	shapes	A	8	True	150	(7.6220846927654229, 5.5462542206722709)	(5.4718841825406521, -2.905801298017046)	(-3.1340104743181287, -2.6452572643693104)	(-1.8749882437626395, 2.9905527433664147)	1.0	slash	0.725596
4	N	A	B	B	M	N	M	A	M	8	6	shapes	M	8	True	150	(-1.7138417116267171, 3.4568424442664938)	(8.1292069717174016, -0.19000583947862459)	(-8.0898518034369911, 2.2406049712965164)	(4.0661899819153984, -5.0470992567013919)	1.0	z	1.11935
5	M	A	A	B					M	4	0	shapes	M	8	True	150	(-5.6629153489888999, -4.385169447781025)	(4.9418627904365895, 5.4973148771135829)	(-0.47647146550075448, 5.7381169098994889)	(5.1717474151971743, -6.1337760799860002)	1.0	z	0.718912
6	M	B	A	M	N	A	B	N	M	8	3	shapes	M	8	True	150	(-7.4464585970937458, -8.3093341166164336)	(7.8074111071593535, -6.8394570340812013)	(0.70631608452189454, -6.1812020994471517)	(-3.7565612268963058, 0.81149763331170632)	1.0	slash	0.586946
7	N	A	M	M	A	N	B	B	A	8	1	shapes	A	8	True	150	(0.60831894304175371, -7.4721506362268464)	(6.268787033258409, 7.4885519811176522)	(5.9727253505851561, -5.4680909571488616)	(-7.9264691613939249, 3.8658788675277389)	1.0	z	0.958392
8	M	B	A	N	B	A	N	M	A	8	7	shapes	M	8	False	150	(2.8953597983756172, 0.21815433308477772)	(7.3582668305191881, -2.0081168572897816)	(6.4517419461056225, -8.3351559954231202)	(-2.6494626748732646, 4.5002929642310985)	1.0	slash	0.608029
9	M	B	B	N	A	N	A	M	M	8	7	shapes	M	8	True	150	(5.8995598658450863, -0.85824058565117411)	(-5.9801026398403785, -4.3520128146070567)	(5.6397852251449176, 6.4346443269901883)	(0.28527832296877698, 1.7869956153563056)	1.0	z	0.55957
10	M	B	B	A	M	A	N	N	A	8	6	shapes	N	8	False	150	(-8.7235129682134023, -8.0282489714691607)	(-0.18659728265626008, 0.53930887557726237)	(-7.0887367050299899, 0.084788791607408598)	(6.6610553081399413, -4.8166584613955425)	1.0	slash	0.569194
11	N	B	M	M					M	4	3	shapes	M	8	True	150	(2.4198383913491099, -8.7289781457666535)	(-5.0409729820208966, 2.6217558887736807)	(0.73436472642383421, 6.4560680979337359)	(-1.0055309952324265, -5.7690063806759868)	1.0	z	1.08893
12	M	A	A	M	N	N	B	B	N	8	3	shapes	M	8	False	150	(-6.2180173469277777, -5.6411859231287895)	(0.24255359986502967, -6.599954742184627)	(6.0735937492110637, 6.0296857481828763)	(7.161577004660197, -6.2687818458689906)	1.0	slash	0.580793
13	M	B	N	M					A	4	1	shapes	B	8	False	150	(8.4925252549457291, -7.7580151716172434)	(3.9900029607255583, 7.2665321073515656)	(-0.41874710972411222, -0.23578055377778639)	(-8.6229890818639721, 6.9163397773313839)	1.0	z	0.774277
14	M	A	M	B					M	4	2	shapes	M	8	True	150	(0.85325990331295642, -8.2167562427117673)	(6.1569613783605224, 5.9587598039594027)	(-5.9161580614891385, -6.476167202774322)	(-0.74745017307393447, 2.4143811332985603)	1.0	z	0.577754
15	N	B	B	A					M	4	3	shapes	A	8	False	150	(-1.2786411526270065, 5.2525707803264012)	(-5.7420757800626046, -6.5913626538983685)	(7.1791034118832666, -1.2541452804456767)	(6.285181991648388, 6.4135121682132734)	1.0	slash	0.599576
16	N	B	B	N	A	M	M	A	N	8	0	shapes	N	8	True	150	(3.9687614207546993, 0.65915926729995711)	(-7.3391048919793356, -0.24693413372714978)	(4.5781962586507969, -5.8083108884235273)	(-0.050927865654651683, 5.3137608692937182)	1.0	slash	0.497171
17	M	A	B	M	B	N	A	N	B	8	7	shapes	N	8	False	150	(-8.3875841511996097, -2.5852476557517319)	(-2.549592841109857, 4.9186732381298963)	(4.3242018438159668, -5.1027192615190273)	(2.4856545942998753, 8.0106417233955831)	1.0	slash	0.937359
18	N	B	M	A					M	4	1	shapes	B	8	False	150	(-5.352936049121654, 2.5978308551393212)	(8.4139831434903876, -3.7647420405165839)	(-0.2538696979416617, -6.2671851004606633)	(6.5153573088143126, 7.6809902225951063)	1.0	slash	0.508359
19	N	B	N	M					M	4	3	shapes	M	8	True	150	(-1.1590521347464762, -1.7133044319176909)	(-7.1803938188014236, 5.72930095514673)	(7.9259193478826298, -6.3353391762491862)	(5.6181222734263336, 0.4128414208220601)	1.0	slash	0.414842
20	M	B	M	A	A	N	B	N	A	8	5	shapes	N	8	False	150	(7.931235679643013, -0.20798327478533807)	(6.3306469833413352, 3.9936603671560462)	(-7.7003911172952897, 5.6703580103252484)	(3.2519878829597957, 0.11100379434340368)	1.0	slash	0.597738
21	M	A	A	B					M	4	1	shapes	A	8	False	150	(5.2871074934829743, 4.9805468220578781)	(8.3879511534550453, -7.2582304321702011)	(-7.5716563896809781, -7.4548935403520309)	(-4.0413008012539136, 7.7600851873942638)	1.0	slash	0.912162
22	M	B	A	A					A	4	2	shapes	A	8	True	150	(-1.981369546619125, 6.5708483861306703)	(1.8919157615360813, 1.9746841672585678)	(0.67357939819622636, -3.43512879169693)	(-5.6074087164177833, -1.1756027123483497)	1.0	z	0.801332
23	M	A	N	N					A	4	3	shapes	N	8	False	150	(-6.9720297061856265, 3.1445485203482892)	(-2.8747574593084115, -5.543158419354091)	(5.9706053946395183, -0.3709395328614864)	(2.0477155724990581, 1.1839777171105084)	1.0	slash	0.547026
24	N	A	M	N					M	4	2	shapes	M	8	True	150	(-4.6287643603114121, -3.1817951101237902)	(-7.1154134308199621, 6.815653828829447)	(5.4493997044226425, -4.3261557344800732)	(1.2434626709163954, 2.8774954424057704)	1.0	z	0.588601
25	N	A	N	M	B	A	B	M	B	8	5	shapes	A	8	False	150	(-7.9358868126644397, -2.7636057330538559)	(-7.8955213147748706, 2.2235854985749803)	(-0.36458494488904236, -4.0180758856133671)	(-5.524703453530508, 6.3326735165655244)	1.0	slash	0.560209
26	N	A	B	M					A	4	1	shapes	A	8	True	150	(0.19857971174585209, -1.0741142425164778)	(-3.6869920309363815, -3.4161379899111806)	(-1.1103938830846394, 6.9880904468968819)	(7.7495925037747995, 6.8289570986770904)	1.0	z	0.511761
27	N	A	A	B					B	4	1	shapes	A	8	False	150	(1.2793125841588271, -0.27330653654816928)	(3.5938758073036858, 4.6671700110146048)	(-3.4237958855027708, -1.0684154965674146)	(-8.1001537488277346, 6.480918496309874)	1.0	slash	0.571274
28	N	A	N	B	B	M	A	M	A	8	4	shapes	B	8	False	150	(7.7423977598991343, 2.867842093515673)	(-8.2622399997747564, -4.3281024978132052)	(-0.012306625090154455, -2.8023015707506236)	(3.8631898111632204, 7.7809351899087602)	1.0	slash	0.491864
29	M	B	A	N	N	B	A	M	M	8	7	shapes	M	8	True	150	(3.9955479887211371, 7.118634771303574)	(4.0669519792948012, 2.89140439933594)	(4.5565297046094706, -6.2502945083611916)	(-6.3037463911727709, 8.4541616252458169)	1.0	slash	0.570866
30	M	B	M	N	B	N	A	A	N	8	3	shapes	N	8	True	150	(-4.0925807443564679, 1.1659888869286004)	(-8.5009099251740619, -2.2535262669043084)	(1.845758771287958, -3.8186239212157362)	(-8.1552939386820213, 2.7035172001921755)	1.0	slash	0.402191
31	N	B	A	N					A	4	3	shapes	N	8	False	150	(6.5053831037648511, 0.00035546053450907777)	(-7.8202183123813827, -6.6283759316373851)	(-6.2110433383087287, 8.2089557477751711)	(7.9929954642683043, -6.3410908438329976)	1.0	slash	0.4762
32	M	B	N	M					N	4	3	shapes	M	8	False	150	(-6.0941195066844847, -6.7798157822795568)	(5.7707490842648355, 2.5779908000064609)	(-0.93834295085596775, 7.5778944074104793)	(8.6269616088708361, -2.5865763470803245)	1.0	slash	0.549754
