TrialNumber	stim0	stim1	stim2	stim3	stim4	stim5	stim6	stim7	stim.probe	ttl.stims	corr.num	trial.type	stim.corr	block	match	Subject	stim.pos0	stim.pos1	stim.pos2	stim.pos3	ran	resp	RT
1	M	A	A	N	M	N	B	B	A	8	1	shapes	A	Practice	True	152	(-8.2302190620053359, 4.0658983385735592)	(-0.40878788979165925, 5.5993072077502415)	(1.3662056904323325, 1.701518301289747)	(5.5290988304904758, -6.0997233995810634)	1.0	z	3.21141
2	M	B	A	B					M	4	0	shapes	M	Practice	True	152	(-8.0276326565890628, -1.9201474752392356)	(-4.7398901231417279, 4.3966451783215383)	(0.058560946883542186, 8.2107808440194354)	(6.8474450926554695, -2.5810874878860162)	1.0	slash	2.93726
3	N	A	M	B	N	M	B	A	N	8	4	shapes	N	Practice	True	152	(-3.9439549307038106, 3.8793071714381053)	(3.5471009496944639, -3.7749828667600864)	(-8.7292575013958231, 7.7243925061639445)	(7.1742560696836719, 6.7162070788857591)	1.0	slash	1.07406
4	M	B	B	A	N	A	N	M	M	8	1	shapes	B	Practice	False	152	(-5.327019555100887, 0.6945244561049293)	(0.25193553748689368, -1.6808171912050431)	(6.9553876652515765, 0.52028005301667868)	(8.2455477252157401, -6.9627975243028573)	1.0	slash	5.09579
5	N	B	N	B					A	4	2	shapes	N	Practice	False	152	(-7.0602200661621444, -0.0714973411219475)	(2.6953888914116177, -3.3399658277834501)	(3.8774868948012955, 2.0233060954139663)	(-0.97857115162802444, 1.4409473496510383)	1.0	slash	2.4515
6	N	B	M	M					M	4	1	shapes	B	Practice	False	152	(-2.6827848004042973, -7.8648382796272713)	(-7.4002889144734478, 4.6026103687435818)	(1.9305310450140745, 3.006616468521381)	(0.63704781132346433, -3.7409561253588981)	1.0	slash	1.00069
7	N	A	N	M	M	A	B	B	A	8	0	shapes	N	Practice	False	152	(5.4298204000232477, -7.8255531708618902)	(4.45562726182186, 3.4678435360190765)	(3.7032454474247523, -1.0971488583760083)	(-7.8363048423113257, 0.012976036403335556)	1.0	z	2.44618
8	M	A	A	N					A	4	2	shapes	A	Practice	True	152	(7.8508063172633591, 1.1606016084559894)	(5.1671842028746902, -5.46393712865666)	(-5.8475193175729183, -1.6389753762457531)	(-8.4751306487634981, 1.4031302442098834)	1.0	z	0.936549
1	N	A	M	A					A	4	1	shapes	A	0	True	152	(4.2502014542552597, 2.0812260292946689)	(-8.1996050054373075, 7.7456425879952207)	(-8.6436815456903897, -3.7788673305542204)	(1.7755521053848362, -6.0151636991248463)	1.0	z	1.1106
2	N	A	A	N					B	4	1	shapes	A	0	False	152	(-0.80184438614987386, 8.325376073898294)	(5.025279828573213, 0.18423823502687497)	(7.0693228974812641, -5.4002604441299082)	(-2.8268802460675335, -0.54061480553168728)	1.0	slash	1.70961
3	M	A	N	B					A	4	1	shapes	A	0	True	152	(-1.3314918006766536, 0.55538956302170561)	(8.2479762702974426, 3.4231153068850677)	(7.3809494480124407, -3.246301647368365)	(-0.33053602988638531, -6.5597987990052964)	1.0	z	0.969426
4	N	A	A	M	M	N	B	B	A	8	0	shapes	N	0	False	152	(-1.9046580681534264, -7.2822343538899501)	(5.2448716524113834, 3.4228560326022137)	(-6.1373340337306868, 8.6508577851888191)	(-1.0858554490877834, 0.37156171117548631)	1.0	z	1.72768
5	N	B	A	B	N	M	M	A	B	8	3	shapes	B	0	True	152	(-4.3874414711346912, 5.9540033050803061)	(4.5214367329662561, -1.9496014656191667)	(0.28931090988246311, 5.649366050720257)	(5.8579679764041774, -7.5193913963067773)	1.0	slash	1.77623
6	N	B	M	N	M	A	B	A	M	8	2	shapes	M	0	True	152	(-2.4892267413973892, -0.38511292122607088)	(5.9580040381259707, -6.9458533847320849)	(5.9156032456492653, -0.99212526993659456)	(-8.0317916314058539, -6.2016113150446692)	1.0	slash	2.51178
7	M	A	A	M					M	4	0	shapes	M	0	True	152	(2.9400192089701864, -4.0626157550795625)	(-0.190298403711326, 5.9653493320015087)	(2.3878463220807831, 1.3959875177406911)	(-2.2694871304300266, -7.8389543683727965)	1.0	z	1.07517
8	N	A	B	A	B	N	M	M	M	8	3	shapes	A	0	False	152	(-4.7737241133739055, -7.337830423540419)	(5.316659781463386, 8.3537424517139982)	(-3.8385880782129265, 6.4929467499994846)	(-2.1542844694212953, 0.38412836634282499)	1.0	slash	0.989182
9	N	A	B	M					A	4	1	shapes	A	0	True	152	(-0.2408065342825445, 5.5882423210209549)	(5.2031363088505778, -2.8221927373505347)	(-2.8649000370793614, -2.0234455354521126)	(6.1596567121875516, 6.9215209834725471)	1.0	z	0.696546
10	M	A	N	A	N	B	M	B	N	8	1	shapes	A	0	False	152	(-3.5214608833531695, -2.1757466465004116)	(8.2056716412502837, 7.2520452416681565)	(-5.3895671670519878, -8.2805956913312926)	(-7.8105218047119767, 6.5695701242351809)	1.0	z	1.87268
11	M	B	M	A	N	B	N	A	N	8	6	shapes	N	0	True	152	(-8.1038397626154595, 0.48122267443660505)	(-3.5611062241225921, -4.6567584748383712)	(8.1848128464803729, -0.2411395129515892)	(-7.0796762514023133, -8.2902053209207054)	1.0	z	0.768373
12	N	B	M	N	M	B	A	A	M	8	3	shapes	N	0	False	152	(7.1939237433741852, 6.9962205443473167)	(5.166098951171195, -0.95049772700746171)	(-7.2689952999056917, 0.95764748861603088)	(-8.7327480559769892, -4.4025458772883228)	1.0	slash	1.26555
13	M	A	N	B					B	4	0	shapes	M	0	False	152	(7.8139168038031421, -4.7766646313111565)	(-1.4254515210696868, 6.7448666432865245)	(7.5936998892198879, 0.33407315408236826)	(-5.8578350560143617, -0.081547960166281186)	1.0	slash	0.933037
14	M	B	A	N	B	M	A	N	M	8	5	shapes	M	0	True	152	(-1.7628085141559255, -6.7765890056937206)	(-0.30319579955204112, -0.3139581165722678)	(-4.4792023555239036, 3.9432661999048566)	(3.1554771295026232, 5.777984686014749)	1.0	slash	0.972692
15	N	A	A	B	M	M	B	N	M	8	3	shapes	B	0	False	152	(6.0534534176455104, 1.4895536810030983)	(-0.87815358263742915, -7.4313642974747118)	(-7.356691528705781, 3.1634915721676773)	(-6.5807874309731522, -1.2082595534097527)	1.0	slash	0.991151
16	M	B	B	N					N	4	0	shapes	M	0	False	152	(-1.615826914648534, -4.1016924032185607)	(-0.17125547084805781, 7.2644157697230796)	(4.4042145239483634, -5.3623578048862726)	(2.5385093588428163, 3.4532178382230256)	1.0	z	0.865764
17	N	B	B	M					M	4	3	shapes	M	0	True	152	(-5.7846278093725036, 7.2714210619028989)	(2.5476428723640954, 1.188566394959695)	(8.3416718061089909, -3.1471364884225563)	(-0.85200768632239665, -6.7838133700722603)	1.0	z	0.650412
18	N	B	M	M					A	4	1	shapes	B	0	False	152	(-2.1380762263919957, -8.5163174692256245)	(8.338703719007146, -3.1232330180270127)	(-8.0230991082540619, 3.8397473032454208)	(0.43804523948308116, 0.48137804722738942)	1.0	z	0.903017
19	N	B	M	N					M	4	1	shapes	B	0	False	152	(-0.37611053687752793, -5.2093566911728653)	(0.84774053378914793, 4.6734226776118621)	(-6.8008380472572494, 6.4991636143017182)	(8.235750219381611, -6.9991666163924844)	1.0	slash	0.761595
20	M	B	B	A	M	A	N	N	B	8	7	shapes	N	0	False	152	(8.4224020582927359, 7.5892092786001548)	(0.54818053011534928, -0.5790092704412384)	(4.0098976635645887, -6.8973585697892226)	(1.9157192420959728, 5.2106221191417337)	1.0	slash	0.386736
21	M	A	N	B	B	A	M	N	N	8	2	shapes	N	0	True	152	(0.78539733815832591, -7.2279438333108423)	(4.0259130609846192, 0.49222171519952873)	(-4.1393354304789547, 6.1252132697243944)	(6.178487708107097, -8.0516603412487804)	1.0	z	0.953068
22	M	A	B	A					A	4	3	shapes	A	0	True	152	(-5.6861940444536474, 2.5015818951778517)	(5.4706203816488408, -1.0158863039421311)	(6.9216168989153797, 8.2872500453416222)	(-0.058203670660379458, -5.237727158444466)	1.0	z	0.816011
23	M	A	M	B					B	4	3	shapes	B	0	True	152	(-7.7100345643513322, 7.7053379439952927)	(5.6263996033081565, 1.0067428028683416)	(0.025093862631928587, -8.114879971683358)	(-5.589789564607841, -2.2211052291342774)	1.0	z	0.64572
24	N	A	A	N					B	4	0	shapes	N	0	False	152	(1.3713790485638011, -7.5386456950847318)	(4.0723196777511355, 4.9109065643634526)	(-3.5437273239499083, 0.57934077175439391)	(-5.3296186658442775, -5.001393794073385)	1.0	slash	0.683871
25	M	B	A	N	N	A	B	M	B	8	5	shapes	A	0	False	152	(3.470329080692963, -1.4935482853248097)	(2.3692205263195341, 8.6234057998178955)	(-4.2007917521049185, -4.8891218678516051)	(-6.2861592065966754, 7.4351043226064526)	1.0	slash	0.932982
26	M	A	M	N					M	4	1	shapes	A	0	False	152	(7.5514618509006404, -6.2043651591014806)	(-6.50132413063423, 3.3826463766060826)	(5.8837668433221353, 1.186763262094038)	(-5.8605926355577802, -4.4162364198043109)	1.0	slash	0.61264
27	M	B	B	N	N	M	A	A	A	8	4	shapes	N	0	False	152	(-0.40962424938213715, -4.0187497263153746)	(-4.4157640704556282, -6.7143871265855424)	(1.8854089604255666, 2.9725290707747778)	(7.3928087451170903, -5.1238303119477102)	1.0	slash	1.06075
28	M	A	A	B	B	M	N	N	A	8	1	shapes	A	0	True	152	(3.0039298883814993, 4.2581527430059563)	(-7.5137117936346343, 0.72858272246617872)	(-2.7506860094062198, 7.3613434178107262)	(6.4502691323939612, -2.2672710454979619)	1.0	z	1.02104
29	M	A	A	M					M	4	3	shapes	M	0	True	152	(-7.7064852869419287, 2.6569849604459694)	(3.707942689545634, 6.9740755544198603)	(-1.2287806496497247, -3.4231876706981996)	(5.6039180913320692, -6.5281553615460188)	1.0	z	0.778171
30	M	B	A	N					M	4	2	shapes	A	0	False	152	(2.6770489287983992, -1.6753917683903019)	(-5.3870537702484018, 5.6667592708882495)	(7.5563441282168569, 7.4529527859668576)	(-2.4685126321144528, -7.6585217768538616)	1.0	slash	0.773202
31	M	A	M	N	N	A	B	B	B	8	6	shapes	B	0	True	152	(-2.5460964064018379, 5.0266375480215881)	(-2.5897544786954363, -0.25262968244377682)	(0.90951396431251652, 7.6195768453335901)	(-8.5787172036372361, 7.3151932682198044)	1.0	z	1.49881
32	M	B	B	N	A	A	M	N	N	8	3	shapes	N	0	True	152	(4.1102839116734007, -1.3961870318195784)	(3.3892602932542175, -6.1059637050588957)	(-8.4858704083211247, 0.34788452289980576)	(-7.962247986035111, 5.252510823144501)	1.0	z	1.08163
1	N	B	N	A					N	4	1	shapes	B	1	False	152	(0.71489546409511995, 1.8128438386150858)	(-4.6053195659124899, 5.7609104558083839)	(6.9646083004267716, -4.9129981849195712)	(-7.9973654728954795, -4.9223512749480944)	1.0	slash	1.15109
2	N	B	N	B					N	4	3	shapes	B	1	False	152	(-6.4686608018813931, -1.0585292219326803)	(-3.9117800260722566, 4.9245200254450161)	(6.8796931282765907, 6.1510116655579594)	(4.8854932473426995, -8.309263657759649)	1.0	slash	0.65765
3	N	B	A	B	M	N	M	A	B	8	6	shapes	M	1	False	152	(-2.998510951732368, -4.6784454834155653)	(-2.7944008162962861, 3.702530311447136)	(4.521856100426989, 5.3812373629956909)	(8.3789765968819374, -6.0192904851065467)	1.0	slash	1.58525
4	N	A	M	M					N	4	0	shapes	N	1	True	152	(2.8632850161490335, -5.8029525834335258)	(-1.8202879502787379, -1.7808114999932316)	(-0.71600024798996387, 3.6871037199648367)	(4.748048303021335, 0.0069141024216676783)	1.0	z	0.637114
5	M	B	M	B	N	N	A	A	B	8	1	shapes	B	1	True	152	(-1.4403418937838266, 2.9562622396935954)	(-3.073188172789675, 8.0900944349740804)	(1.5232560806164184, -4.3903672987458293)	(2.3522126823370364, -8.7309622507319773)	1.0	z	1.12074
6	M	A	N	A					A	4	1	shapes	A	1	True	152	(4.2623225078612172, 2.1208935126724278)	(8.4594958832172402, -6.1712035242376135)	(-8.3614281275878586, -7.2694377223025963)	(-4.5136611087895755, 3.3105088855924691)	1.0	slash	2.42625
7	M	B	M	A					A	4	2	shapes	M	1	False	152	(0.42371452031910906, 5.6456793983877862)	(-0.97948524280603877, -8.4026776405816257)	(-5.6210264341755654, 5.2977179625231656)	(6.5059052800827075, -6.2649111691861936)	1.0	slash	0.661485
8	N	B	A	N					N	4	3	shapes	N	1	True	152	(-2.7803956998278352, -3.5591718280052813)	(3.4267451615088369, 0.00040720000695770864)	(-6.3462266693495177, 6.0511778918441053)	(4.9388169271282685, -7.7434528376088858)	1.0	z	0.745469
9	M	B	N	A	N	B	A	M	B	8	4	shapes	N	1	False	152	(4.1965794816777642, 7.3219330544863439)	(5.7877537362880727, -0.50033162496723449)	(-7.2101146875220401, -5.5256510740841982)	(-4.8393335239454345, 8.0519285125171436)	1.0	slash	0.799241
10	N	B	A	A	M	N	M	B	B	8	5	shapes	N	1	False	152	(8.2478583469013458, 4.2280790648380009)	(7.4552807724679369, -1.1747435378455755)	(5.4029534634731746, 8.2109794912294163)	(-5.411612412999304, 1.6625682582202828)	1.0	slash	0.874558
11	N	A	N	M					A	4	1	shapes	A	1	True	152	(-2.1259991688841797, -7.7207531600384272)	(-0.59376687344800771, 8.5183544910921682)	(0.70581852623828567, -1.4536873993830666)	(6.5301767640546196, 0.99450296431132834)	1.0	z	0.898338
12	M	B	M	B	A	N	A	N	M	8	2	shapes	M	1	True	152	(4.9660450372054736, -5.4765022285656979)	(-3.0972597343306978, 8.2855988677524373)	(8.5534158718612474, 7.9392944033344577)	(-7.7248547653576409, 4.6896818162829383)	1.0	z	1.08405
13	M	A	B	B					N	4	0	shapes	M	1	False	152	(7.8745544266113328, -1.0176355076001062)	(-4.959610207868165, 8.3990770452129411)	(-7.4575337009600267, -3.661104373598012)	(2.6282058413894216, 2.7680125317431461)	1.0	z	1.35574
14	M	A	A	M					B	4	2	shapes	A	1	False	152	(-6.358162132704015, 7.5644047641125312)	(8.0866057154959634, 5.895606094540975)	(7.6671816503586712, -7.4212946721172832)	(-6.4679006084453885, -4.3932453239283982)	1.0	slash	1.84644
15	N	A	A	B	M	B	M	N	M	8	3	shapes	B	1	False	152	(-6.9949605607630767, -7.9476257219178184)	(-4.2322414442411747, 6.2128646609863356)	(2.6404430863398645, -6.7444772679566096)	(1.2890585587587307, 1.6821292959761482)	1.0	slash	1.03303
16	M	B	A	N					M	4	0	shapes	M	1	True	152	(1.5207888578681388, -8.404204475632568)	(5.1729983087382116, 1.0460588143754066)	(-3.3969552119628572, 6.9176140604734169)	(-3.4922739552007185, -1.7735603357046097)	1.0	z	0.93914
17	N	B	N	M	M	A	B	A	A	8	6	shapes	B	1	False	152	(-1.2505690593703935, -7.2974972218100245)	(-6.4033027184617533, -6.3861454700586169)	(-7.5594806129898906, 5.1851735114030255)	(8.099395632079311, 2.9214833548890091)	1.0	z	1.08722
18	M	B	M	N					A	4	2	shapes	M	1	False	152	(0.92394687679482956, -6.9405110327759987)	(6.7248010363272872, 6.1819212563467261)	(-3.2454597738459476, -0.57585976177024456)	(-6.6798847767511784, 8.203647966776316)	1.0	slash	1.04778
19	M	A	A	N					M	4	2	shapes	A	1	False	152	(3.7995223811452643, -2.1297635209257049)	(-0.47076076302619363, 8.4114002788603273)	(2.8022991845306002, 2.7019629978048059)	(-5.2032705441847202, -2.4032980685672394)	1.0	slash	0.663992
20	N	A	N	M	A	B	M	B	B	8	4	shapes	A	1	False	152	(-4.6932158809979638, 4.1272882367320296)	(-1.0428048924506044, -8.6771399381339815)	(-3.0333762526110783, -4.6522795834230077)	(5.7278927715153625, 5.451937570792996)	1.0	z	0.901494
21	N	B	N	B	A	M	A	M	M	8	7	shapes	M	1	True	152	(0.74249827041105654, 8.4522507613830378)	(-4.1897712052185376, -1.9148517692256171)	(2.9965195674460769, 0.18204871517495747)	(-7.5294693110826634, -4.4393873790289176)	1.0	z	1.10744
22	M	B	N	N	B	M	A	A	B	8	1	shapes	B	1	True	152	(-1.6070882662292822, -7.8366355996914887)	(0.49303790663063296, 7.0284384575829524)	(-8.5609206602542649, 3.6296918395209854)	(7.9363756609516187, 1.2875353440081163)	1.0	z	0.714518
23	N	B	M	N	A	M	A	B	B	8	7	shapes	B	1	True	152	(5.5991607500739047, 4.6744302053295517)	(-1.1764352904627735, 5.3894294174029902)	(-6.9781222394592666, -1.6643822401762529)	(2.4782483353036646, -2.1153133919109459)	1.0	z	0.708033
24	N	B	N	M	M	A	A	B	B	8	6	shapes	A	1	False	152	(-7.4047345819551866, -7.3684823132488182)	(-2.4359907836461279, -5.4709397543384188)	(-6.766034975546094, 2.3168978107600715)	(-7.6055756943163413, 8.0927418319281301)	1.0	slash	0.689794
25	N	A	N	A	M	M	B	B	B	8	5	shapes	M	1	False	152	(-5.0557102028782195, -6.4929295629425088)	(5.768686258817203, 5.7712973573246913)	(1.4460168809950105, 1.1157416623386247)	(8.1665576536196411, -8.3313206667794919)	1.0	slash	1.05792
26	M	B	B	M	A	A	N	N	N	8	6	shapes	N	1	True	152	(0.84586942588362568, 1.6106180782200532)	(4.1127419187650709, -2.5310380965358457)	(-4.292239836144276, 1.3425131706863596)	(-7.1464840132191529, 5.4064886747150549)	1.0	slash	1.21551
27	M	A	B	M	N	A	B	N	A	8	5	shapes	A	1	True	152	(8.5228998592546255, 8.2230243052857936)	(6.3049728109889447, -2.3197955547948013)	(-2.8584945198774392, -5.0960847198091521)	(-0.62454542341397001, -0.033467111919666337)	1.0	z	0.522733
28	M	B	M	B					A	4	0	shapes	M	1	False	152	(1.4747811362014556, 7.5813099413672909)	(-6.8860634289689902, 3.8902047917263793)	(7.7971604368801408, -1.8310794393410852)	(-6.4574317097353076, -4.9636533391558428)	1.0	slash	0.536284
29	N	B	B	N	M	A	M	A	A	8	5	shapes	A	1	True	152	(4.1251780765789334, 2.4440675872970274)	(-2.3618940591410347, -1.5367561483495153)	(4.4554549400629995, -3.3583030226056065)	(0.85139876084514299, 7.1576605261960609)	1.0	z	0.926723
30	M	A	M	B					M	4	2	shapes	M	1	True	152	(-8.5274517316537217, -1.0879285243734174)	(2.9608835545981549, 7.3535528066663822)	(-1.1618159237938395, 5.9498810564334477)	(1.6754534427829544, -0.92928194733658831)	1.0	slash	1.05954
31	N	A	A	M					M	4	3	shapes	M	1	True	152	(3.6771594641902858, 3.2988218040412161)	(-3.7740430545555856, 5.2089911306131498)	(0.74338766754230257, -6.6179697583983526)	(-4.8827132740741872, -6.1466859761356627)	1.0	z	0.79942
32	M	A	A	B					A	4	2	shapes	A	1	True	152	(-8.6613790207457502, 6.9887604196937367)	(4.8982645910106584, -3.2914116488100946)	(-5.1530159178110617, -4.4066543749785305)	(7.6650350640667604, 4.118826819374469)	1.0	z	0.879263
1	M	A	M	N					M	4	1	shapes	A	2	False	152	(-4.4704812011482016, 1.2053385476755132)	(-0.53966961609878439, -8.371628082329007)	(8.3544155924709465, -8.1029959643235259)	(2.7758283381345645, 5.4815338669795377)	1.0	slash	1.51487
2	N	A	A	M					M	4	3	shapes	M	2	True	152	(0.16604289755618673, 1.3190587476124627)	(-6.2135037456310744, 4.1746528596983499)	(-4.0620470673521423, -0.89499634941834394)	(0.89896395433635945, -5.8412326547158715)	1.0	z	1.41262
3	M	A	B	A	B	N	M	N	B	8	6	shapes	M	2	False	152	(-6.3805485306123799, 6.0273276225132371)	(8.7363272656776694, 1.5652239339002598)	(-3.2554646965837568, 3.424403651235755)	(-2.8814208172124776, -8.3152579396532413)	1.0	slash	0.5397
4	N	B	A	N					A	4	2	shapes	A	2	True	152	(3.4921342505756545, 0.039030474890797251)	(-8.2555880402880089, 6.6855667420487777)	(-7.4208780430969874, -3.3560511147103416)	(3.6257228653493776, -8.0365031012442305)	1.0	z	0.998939
5	M	A	M	N	A	N	B	B	N	8	4	shapes	A	2	False	152	(6.6916075001743849, 5.0754705397180793)	(1.9044306052861071, 3.7717062931049963)	(-3.1953421138199527, 8.0546096686127271)	(-2.2709597739184826, -6.6407461191947847)	1.0	slash	0.572962
6	M	A	A	M					N	4	3	shapes	M	2	False	152	(-7.4590907941754949, 6.1961957466576685)	(5.31054768540222, 8.2249119699037827)	(-7.6582263754150208, -4.289968103720958)	(7.242757216131551, -4.3646222671759185)	1.0	z	0.780451
7	N	A	A	M					A	4	1	shapes	A	2	True	152	(-6.9498133552711616, -1.5265861958833993)	(2.048334812839947, -7.1254801363655611)	(-0.40109521405786275, 7.1082202906497152)	(4.8918480011258048, 5.2568678226980836)	1.0	z	0.504307
8	N	B	M	B					M	4	2	shapes	M	2	True	152	(-1.4278172718019615, -1.1088221847194921)	(3.4642268164750032, 0.76792314705688014)	(4.8916799979174161, -6.1915110853485107)	(-2.4960557882631846, 7.7378784848494995)	1.0	z	0.734043
9	N	B	N	M					M	4	1	shapes	B	2	False	152	(-2.6061083948753065, 1.2256430087380679)	(6.0639248990629113, -1.4194064228547223)	(5.8211716028902654, 7.5838442825890127)	(-4.9849190843826481, -2.2964883155523541)	1.0	slash	0.763617
10	M	B	M	N	N	A	B	A	N	8	3	shapes	N	2	True	152	(7.3035870483649852, 2.5466153771874254)	(-5.6568297956633433, 6.8746780018122653)	(-3.0685299278098688, 2.1342297488588393)	(4.8366601814304389, -6.8840445052741215)	1.0	slash	2.04519
11	N	B	B	M	N	M	A	A	A	8	6	shapes	A	2	True	152	(-5.1045338331303034, -0.5960145167133053)	(8.3226094345417074, 5.8203127740322174)	(-6.2841297584057623, 5.7578719094578545)	(-1.4067701211127899, -8.6571137572789869)	1.0	z	0.9655
12	M	B	B	M					M	4	0	shapes	M	2	True	152	(-5.2514728687818453, -1.4919513665177355)	(-0.34901375866256323, 4.9028196767163728)	(8.349768190253279, 2.981829080181388)	(6.3730312280056438, -7.2496833880526204)	1.0	z	1.04261
13	M	B	N	N	B	A	M	A	N	8	3	shapes	N	2	True	152	(7.8059664511633677, 7.2131009411039884)	(-1.5701936553531111, 6.5342838717233818)	(-7.9542452833433588, 7.3206273891401175)	(-7.8910324102137963, -3.4836034276583421)	1.0	z	0.964108
14	N	A	B	A	N	B	M	M	A	8	1	shapes	A	2	True	152	(4.3617524402834444, -7.4849120798842774)	(5.6394438948741712, -2.2313401151005108)	(-6.6697265617826069, 4.8822640683174843)	(-4.1467638871416712, 0.36388123177596832)	1.0	z	0.859831
15	N	B	M	B					N	4	0	shapes	N	2	True	152	(-1.5039036922715372, -6.2237505766006569)	(4.9716037712231707, -1.2412998093185887)	(-7.9293571189452372, 6.1418426979699188)	(7.1963450018975852, 6.975135852896118)	1.0	slash	0.92545
16	M	A	N	A					N	4	2	shapes	N	2	True	152	(-1.4869186722852685, 3.9837955711536637)	(5.9781695651739764, -7.3512880684135373)	(7.5336279527380476, 8.1882833332711833)	(-4.3353069661327011, -7.8004002181305738)	1.0	z	0.525656
17	N	B	N	B	M	M	A	A	A	8	4	shapes	M	2	False	152	(0.97927807894580887, 4.0814814464184597)	(1.7379289096341211, -2.4116716680758365)	(6.5300670857301615, 1.0302489522762439)	(-6.422828087462177, -7.7905042627442018)	1.0	slash	0.823316
18	M	A	B	N					A	4	0	shapes	M	2	False	152	(-8.122693452029397, 1.3310602671642577)	(2.2116896307892961, -0.29129308855723934)	(-3.0153035347072361, -3.134578797601244)	(6.7583353651062446, 8.2368248126928094)	1.0	slash	0.691118
19	M	B	N	N	B	M	A	A	A	8	7	shapes	A	2	True	152	(5.6293876201053461, -1.5790509850543808)	(8.3981338390145304, 1.6414517523019114)	(4.4444663504739541, -8.385934669826371)	(-5.1083225608188059, -7.7471686988953499)	1.0	z	0.806142
20	M	B	N	N					M	4	0	shapes	M	2	True	152	(-6.219733676881801, -0.62958659408754336)	(4.7935361003240491, 5.4515124611274164)	(-7.474713670103041, 7.7562044832121266)	(0.10676164374647357, -5.0244838102765117)	1.0	slash	1.18159
21	N	B	M	B	M	A	N	A	N	8	6	shapes	N	2	True	152	(3.2345478783296784, -1.9995581611412945)	(-0.62106845447285863, -8.103079845325496)	(7.5863790097962749, 5.1085869150750103)	(-7.0280825750638778, 5.0831848096765242)	1.0	z	0.947281
22	M	A	A	B					N	4	0	shapes	M	2	False	152	(2.5217208621028693, -6.316919676451878)	(-6.3455885600852113, -2.1015944197800183)	(2.2586563566063909, 4.8888944091957942)	(-5.7485993725541489, 5.3669729796659347)	1.0	z	0.807085
23	M	B	B	A					A	4	0	shapes	M	2	False	152	(-2.8122592909380373, -5.2433939734351664)	(3.4792507649557436, 3.1957464892056766)	(7.6542349752936794, -4.950674349566146)	(-4.5968035715028615, 5.0681556528034619)	1.0	slash	0.680627
24	M	B	N	A	M	B	N	A	B	8	1	shapes	B	2	True	152	(-4.9604662636065324, -2.7820483358957695)	(0.29236443803777767, -2.334145219638855)	(3.9791140860734782, 1.749468114337505)	(-3.5456976697202407, 6.0748219177319154)	1.0	slash	0.518147
25	M	A	B	B	M	A	N	N	M	8	5	shapes	A	2	False	152	(0.98960681834267561, 2.4119880170584835)	(5.4862458689639357, 8.4081007744003493)	(-3.3614597103150414, -0.86793775760111824)	(-6.7166868555152348, 2.714587583416181)	1.0	z	2.89123
26	M	B	A	N					N	4	2	shapes	A	2	False	152	(7.4948707325796562, -8.6437359814234025)	(-2.3222070360272031, 1.5260915374759509)	(-2.4450394434041129, -6.0503671545304369)	(7.9755826234595091, 4.6499972868491515)	1.0	z	0.726374
27	M	A	B	N					M	4	2	shapes	B	2	False	152	(5.6705630784078593, -6.6551756636882722)	(-1.8245686134494639, 5.0425956709906359)	(4.1814694391372651, 4.0826863224025338)	(-1.5762591760832008, -5.7337359629942064)	1.0	slash	0.840265
28	M	B	N	M	B	N	A	A	A	8	2	shapes	N	2	False	152	(8.6616840041272525, -1.5170717786307755)	(0.57032705834733655, -6.0907230431550747)	(-6.5136851412637329, 5.217116932725002)	(7.1684320588769097, 6.3904889889297785)	1.0	z	0.298786
29	N	B	B	M	N	A	M	A	N	8	4	shapes	N	2	True	152	(-2.1226579297474135, 6.8994448988605477)	(5.1686435157053374, 0.57915928109707515)	(8.2622642436191427, -5.1670486589793594)	(1.2077287121634459, -4.2081682997084853)	1.0	slash	3.26633
30	N	A	B	N	B	A	M	M	B	8	3	shapes	N	2	False	152	(2.2232993682722491, -1.9076800373680989)	(-4.9728585716181772, -2.5709729799218746)	(5.1347062767277247, 4.3164749348469034)	(-3.9620001137439873, 6.8176437360980895)	1.0	slash	0.510153
31	N	B	M	A	A	N	M	B	B	8	0	shapes	N	2	False	152	(3.7098723758916883, 2.324545072809574)	(-2.6545771297873646, 3.0106263476749309)	(7.5085602793128601, 0.68097130253056193)	(-2.4499632603514998, 8.342408804642151)	1.0	slash	1.28967
32	M	A	B	M	N	N	A	B	B	8	5	shapes	N	2	False	152	(-3.609706670239361, -4.9930474915932308)	(0.46353934063885127, 6.2528827483556846)	(-6.8062688239083364, 4.7498606280255782)	(-8.440593409285837, -0.3181917080013168)	1.0	z	0.833098
1	N	A	M	M	B	B	N	A	B	8	5	shapes	B	3	True	152	(-2.5108496188936833, -1.2744263236962423)	(4.9372146215524459, 6.4033792468467698)	(0.49940413892672275, -7.9355406797203472)	(-1.2347045633479095, 6.1501859049245748)	1.0	slash	0.884768
2	N	A	A	N					A	4	2	shapes	A	3	True	152	(-1.1212479674243205, -1.8845180816528577)	(-2.4586424474640669, 3.0840983013907906)	(5.7625819941882774, 3.1791347019313516)	(5.7384125808425086, -4.0580873837697355)	1.0	z	0.916475
3	M	A	N	A	N	M	B	B	A	8	3	shapes	A	3	True	152	(7.4514278825783222, 2.8483057113159802)	(8.3168884640280112, 7.3069774307915125)	(-6.0603514937783274, 3.8260351971089399)	(-1.0692815616841553, 7.4563488699659182)	1.0	slash	0.57649
4	M	A	A	N					A	4	0	shapes	M	3	False	152	(7.5836832537904293, 5.1392854662557461)	(-1.7848378511580725, -6.5531873125913584)	(-6.3846600398145785, 1.5329077939445721)	(7.9344932393847181, -1.3255505108357033)	1.0	slash	0.676272
5	M	B	A	N	A	M	N	B	N	8	4	shapes	A	3	False	152	(-0.10265651561228673, 3.6721710782583976)	(5.5745788935398686, -1.3873016394710245)	(6.2074832355857534, -7.7254611969046705)	(-5.1097864268794275, 7.8805697072590881)	1.0	z	0.875911
6	M	A	N	B	N	A	M	B	N	8	6	shapes	M	3	False	152	(7.0588283553386635, 6.802308046103958)	(-0.031870304252590742, -3.5007461025008171)	(-3.0521328434338937, -8.1403980836991039)	(5.840660741224406, -5.0355594570259061)	1.0	z	0.741505
7	N	B	M	N	B	M	A	A	B	8	1	shapes	B	3	True	152	(6.7935874995623422, 0.98047779541966662)	(7.5723328847369409, 8.201756399041777)	(-2.9115479640887258, -0.83045123326840642)	(-3.8791519535832979, 6.6040763541178631)	1.0	slash	0.722471
8	N	B	N	B	M	M	A	A	A	8	6	shapes	A	3	True	152	(1.3848418885720459, -2.5032923544506689)	(2.6286782611777149, 3.4587613683974912)	(-1.7832510715772143, -7.4003394022347058)	(-7.8995983046592597, 1.1762584119724409)	1.0	z	0.390996
9	N	B	M	M					B	4	1	shapes	B	3	True	152	(-6.8253546748377678, -5.8150959532090329)	(6.6242969980104771, -5.8944788620972748)	(1.6123864072737284, 5.7579020891532178)	(-5.1175648012432617, 2.6113832192269637)	1.0	z	0.836043
10	M	B	N	N					M	4	1	shapes	B	3	False	152	(6.6127208934170021, 7.7749748169309605)	(3.9672430781921069, -3.7361065037351597)	(-0.54759328862803081, 7.4760847036351628)	(-2.3521920436187216, -8.3334173062701939)	1.0	slash	0.685524
11	M	A	A	B	B	N	M	N	A	8	7	shapes	N	3	False	152	(-5.9043201381022534, -3.3978539536064769)	(7.2551764732671735, -1.3745544446516043)	(-1.7996559908902405, -4.0119578722391616)	(-6.059972632791899, 4.8452716988810511)	1.0	slash	1.07925
12	M	B	N	M	B	A	N	A	A	8	0	shapes	M	3	False	152	(8.2132431223741236, -6.5200164681978734)	(-5.4870988163276113, 1.3618295985767386)	(-3.0779739173246563, 7.7794910005092888)	(0.71302100811152869, 4.1695915533341061)	1.0	slash	1.39287
13	N	B	M	A					M	4	1	shapes	B	3	False	152	(5.6402106706866277, -7.9897415100535394)	(-4.4962729631337623, -5.4809804655867707)	(2.9303492370627282, 1.4680695949487657)	(-4.3552787249621545, 7.1386566889962406)	1.0	slash	0.642644
14	M	B	A	N	B	A	N	M	N	8	6	shapes	N	3	True	152	(-2.6865350363346163, 3.3250075890230022)	(2.2067959481135944, 0.66567999898451369)	(8.5707803742399129, -6.6974078892195168)	(8.5625233954660054, -0.24290947820915498)	1.0	z	0.620268
15	M	B	B	M					B	4	2	shapes	B	3	True	152	(5.6608471641894624, -8.3612027459733689)	(-0.86770895601979614, 2.6918263436912717)	(-2.6609608947869647, -8.2349789063820928)	(3.4047154090020335, 1.7976787792380531)	1.0	z	0.697808
16	N	A	N	A	M	B	M	B	A	8	3	shapes	A	3	True	152	(-8.1761583048194506, -1.6495775099373278)	(-7.9952852387711522, -8.5551500813456727)	(-6.1435486968578754, 3.4552164610567768)	(4.1058111644594533, -4.4190632333769138)	1.0	slash	1.47999
17	N	A	N	A					A	4	3	shapes	A	3	True	152	(-6.1848938741919914, -0.41439611642128504)	(7.1980228206373109, -6.4046030842984516)	(-3.4392582065967234, 5.1847318886816254)	(1.1909298181782848, 5.4786136657207489)	1.0	z	0.809409
18	M	B	B	M					B	4	2	shapes	B	3	True	152	(3.637775984424664, -6.806320578933069)	(-0.023224851659364276, 3.4095596792063336)	(-7.9313331421849202, -1.3506869633262228)	(5.4592709109663637, 7.6704133206731449)	1.0	z	1.55064
19	N	A	M	A	B	M	B	N	B	8	6	shapes	B	3	True	152	(5.5355230872761307, -5.1639621624653183)	(7.1175535430442256, 4.8445920436346519)	(-0.14231246142918863, 1.0423541939298744)	(-5.8326634235331012, 5.1101150796272439)	1.0	z	1.88408
20	N	B	B	A					A	4	1	shapes	B	3	False	152	(-6.0057080301978569, 1.6839628368908386)	(8.365775232941715, -2.208673197414722)	(-3.2596931167853693, -7.1490616531075659)	(3.3075899684977035, 5.6933583171815361)	1.0	slash	1.43656
21	M	A	B	N					N	4	3	shapes	N	3	True	152	(-1.4949351548325751, 3.7549659724519753)	(-4.559160414692971, -1.1391348329789182)	(4.7338811307443631, -4.3315446785760612)	(7.7746016179575541, 3.1770999837713081)	1.0	z	0.486088
22	M	B	N	M	N	A	A	B	M	8	0	shapes	M	3	True	152	(-8.0475854854272466, 8.1029411199218444)	(5.1895401839974333, 1.3652877719799079)	(-5.0366170196686939, -1.9232209838662637)	(-1.1081159122407334, -7.09567060257789)	1.0	z	1.33706
23	M	A	A	N					A	4	1	shapes	A	3	True	152	(4.0532783941583599, -7.1060864766807121)	(-6.8507830462532064, 7.3658850683355297)	(3.380515902737848, 6.4468684199355177)	(-8.2718755414301608, -8.1844878854373047)	1.0	z	0.534968
24	N	A	M	B					B	4	2	shapes	M	3	False	152	(-4.8990884484332673, -1.446574209138868)	(3.5503323302556122, -6.0923578796494153)	(-1.3770232662715518, 2.1366971412234435)	(1.8482724183763004, 6.9274153617141661)	1.0	slash	0.575508
25	M	B	B	M	N	N	A	A	M	8	6	shapes	A	3	False	152	(2.7588763459863888, 5.3936848731386373)	(-2.1521471456457588, -8.6365515897723864)	(-4.6899920121093208, 8.6034971657974424)	(-6.201051456766109, 3.6291855900212795)	1.0	slash	1.69673
26	M	A	B	M					N	4	1	shapes	A	3	False	152	(-4.7654793660091395, -2.0180616088186536)	(8.5808903702812529, -1.4971357417591733)	(0.28275138694028534, 0.44143135995515692)	(-0.85870899224329023, 5.0232694714711457)	1.0	slash	0.652568
27	M	B	N	A					B	4	2	shapes	N	3	False	152	(6.026884559802161, -4.0151813213844898)	(-6.0954488578840325, 6.9458123534248468)	(-3.3503057467537101, -4.1555709128811262)	(6.2291884990351303, 5.1346836621442247)	1.0	slash	0.493461
28	M	B	N	M	A	N	A	B	A	8	7	shapes	B	3	False	152	(-2.2242339815435335, -3.4790941514766809)	(-7.9014996630670398, -1.1674892351997439)	(1.3258460001758028, 8.3701615874362147)	(3.2907182882429122, -4.466890431138677)	1.0	z	0.973158
29	M	B	M	B					B	4	3	shapes	B	3	True	152	(5.3394103151790517, -2.0180142945975215)	(6.7784844370509312, 8.1546755671902496)	(-0.71500900484380026, 2.9312253391847598)	(-6.475864882368338, -8.4342130625067799)	1.0	z	0.878835
30	N	A	B	B	A	N	M	M	B	8	6	shapes	M	3	False	152	(7.4264754113117775, 3.5571861221529932)	(-1.9983761579485373, -7.4900011730531224)	(8.4669315221618646, -5.4868881734243056)	(-5.8019972589987603, 3.5779461086247561)	1.0	slash	0.906439
31	M	A	M	A					M	4	3	shapes	A	3	False	152	(-3.6238872277543415, 1.7432832000781495)	(1.025796966006391, -6.6452862347544084)	(-1.4503469485580007, -1.8200948882134487)	(0.30230975942696148, 5.6667183607486624)	1.0	slash	0.589992
32	M	A	N	M	A	N	B	B	M	8	5	shapes	N	3	False	152	(1.6314543404266715, 5.5641094908787352)	(5.7613676857361344, -7.47145955768889)	(-5.6145124866926182, -7.0984782512373741)	(-2.2718651213751144, 7.0241496745004426)	1.0	z	1.22768
1	N	B	B	N	M	M	A	A	B	8	2	shapes	B	4	True	152	(-3.1314299901813865, 3.8427284306959351)	(-5.4407210318318526, 8.4755442562330678)	(1.5698116719761082, -6.187698853860903)	(-8.2212643640994916, -7.2246809489697839)	1.0	z	0.865208
2	M	A	M	B					N	4	1	shapes	A	4	False	152	(-7.1507879335988758, -7.5512778904860225)	(-1.964014110847863, 4.8294302461497853)	(8.1462186030515973, 5.4723864517271448)	(7.1551463503441983, -8.3886444971810281)	1.0	slash	0.661072
3	N	B	N	B					N	4	0	shapes	N	4	True	152	(-8.2649424092232948, -8.4622289844188128)	(6.1002767419829933, 8.6621946334482871)	(-4.5478261688279575, 7.2579514825275027)	(0.20756382229973269, -2.9105201566649122)	1.0	z	1.03267
4	N	A	B	A					B	4	3	shapes	A	4	False	152	(-1.2974775500394493, -6.94028424009967)	(8.0870509691978434, -0.16675216310710361)	(-5.3163713186760884, 8.1117589079114616)	(3.2312050762489477, 3.4748895301650844)	1.0	slash	0.732221
5	N	A	M	M					M	4	2	shapes	M	4	True	152	(-7.8147314516874857, -7.5566424409632322)	(-8.6593591015615008, 3.5354744082160217)	(4.9894399271157361, 4.4233296593775293)	(8.4437380194418381, -2.0750879149274999)	1.0	z	1.48446
6	M	B	B	N					B	4	1	shapes	B	4	True	152	(7.0162035096752682, 4.9308049509241165)	(-7.6126806953142552, 5.2189104164767635)	(4.671458333368351, -4.5593899757800953)	(-5.0261497877698247, -1.71684633925417)	1.0	z	1.34998
7	N	A	B	B					B	4	1	shapes	A	4	False	152	(-6.8931960851688263, 1.2761750678638926)	(0.46025992721578746, 4.5324624989114515)	(-1.9634881941260458, -1.5332593606287892)	(6.4953987918024882, -2.6650906872562734)	1.0	slash	1.02116
8	M	A	B	M					N	4	3	shapes	M	4	False	152	(1.0529960189901573, 6.9212757353396768)	(-7.4984669057343876, 2.2553115084473898)	(-2.4577486355737328, -4.9872637400391771)	(1.9575028674562631, -5.6375114171022611)	1.0	z	0.878763
9	N	A	A	N					A	4	2	shapes	A	4	True	152	(8.4987113256947744, -2.0968936633379567)	(-6.2057244524624062, 0.37944313256059736)	(-2.9648749161172123, -2.071532843779635)	(1.4259779530426471, 4.1962657659074392)	1.0	z	0.504921
10	N	B	M	A	M	N	A	B	B	8	7	shapes	B	4	True	152	(3.9783517007438469, -8.0668408885533935)	(-0.41095859670387469, -5.5765775138422313)	(7.0429007382959146, -2.384741165249217)	(-7.9314251648097205, 4.7856585374507077)	1.0	z	0.534002
11	N	A	N	A					A	4	1	shapes	A	4	True	152	(3.111567915103624, -0.060641585226058226)	(-1.4569309356186819, 7.0654694004174523)	(-0.43201466404673639, -4.5959019075603917)	(3.1414488335824267, 8.1322903623048752)	1.0	z	0.854272
12	N	A	M	B					N	4	3	shapes	B	4	False	152	(-4.1373223214435599, -1.99116989157036)	(7.531113256338255, 2.2700936147648569)	(-0.90885521735893082, 4.7290486196258357)	(2.952830879202164, -5.690313395871561)	1.0	slash	1.02952
13	M	A	A	M					M	4	3	shapes	M	4	True	152	(3.4204461703923457, -5.2103887734838246)	(-4.9531311998600636, -0.61680793855984639)	(1.2148826108307365, 7.3933654175624781)	(-5.1527740293816988, 5.0635698908095446)	1.0	z	0.801607
14	N	B	N	A	M	B	A	M	M	8	7	shapes	M	4	True	152	(5.5370166948862245, 6.8798531594608843)	(6.3523013416437735, -3.1846276206405717)	(6.807181703355333, -7.7112493745144661)	(-2.6847473161776296, 8.5099840447781787)	1.0	z	0.877304
15	N	B	N	A	A	B	M	M	M	8	4	shapes	A	4	False	152	(-2.7543075554546723, 6.2493578326216657)	(-7.7872148726333563, -8.46570379758416)	(5.3104231510966802, 5.6699044379290786)	(0.45987004191614922, -6.8303431595403037)	1.0	slash	0.934238
16	N	B	B	M	N	M	A	A	M	8	2	shapes	B	4	False	152	(-0.92097333070184906, 5.7603703368448631)	(-8.519988323935852, -7.3720636301373466)	(5.7042250406010542, 0.71342498836217949)	(-3.0114751799460358, -7.7851285338573426)	1.0	slash	1.04602
17	M	A	A	M	N	B	N	B	N	8	6	shapes	N	4	True	152	(-3.9570117730095618, 6.0140168333897872)	(-8.5519206498127431, 1.2606977044624301)	(1.4509429241414651, 3.4952531002576368)	(0.50975833235675694, -7.71969854654259)	1.0	slash	0.870252
18	N	B	N	B					A	4	3	shapes	B	4	False	152	(-6.0071813072715088, 3.5560087018997653)	(6.6673195298538932, -3.2180714427794381)	(6.8838482440854101, 6.435852465006084)	(-5.2984048573193565, -4.5200071231385364)	1.0	z	1.47187
19	N	A	A	M					A	4	1	shapes	A	4	True	152	(7.4605225553613153, -1.7747303690560639)	(-4.2562009833549697, -2.5413632427161614)	(4.8126864312478155, 4.1581312834647921)	(-7.5857919819780024, 6.6696012723536136)	1.0	z	1.3775
20	N	B	M	B	M	A	A	N	N	8	1	shapes	B	4	False	152	(6.4856747734572195, 0.11333779381613951)	(-6.496039805994382, 7.9180139444197621)	(0.75517561870399952, 1.4102409046336586)	(-2.64623879936725, -7.8230428298456696)	1.0	slash	0.568545
21	N	A	M	B	A	B	N	M	N	8	1	shapes	A	4	False	152	(6.4225703156943563, 7.4167615449517825)	(7.7699704521390238, -1.1216577088758717)	(-6.0082168873418116, -6.4373478061027338)	(-8.5229313876713242, -2.9414731431306187)	1.0	slash	1.13002
22	M	B	M	B	A	A	N	N	M	8	5	shapes	A	4	False	152	(-2.8606504081884321, -3.0604489932362533)	(-2.9084852894520337, -7.6821537684395658)	(6.5196780302918125, -3.2631384996258239)	(2.850865584666515, 7.2353719538038828)	1.0	z	0.786389
23	M	B	M	B	N	N	A	A	B	8	3	shapes	B	4	True	152	(2.6448243624108994, 6.7552017198794179)	(-7.026909385606416, -1.8525879237918499)	(5.3688864479128604, -4.1328756131636233)	(1.409065190953191, -5.044743848977669)	1.0	slash	0.601449
24	M	A	A	N	N	M	B	B	M	8	0	shapes	M	4	True	152	(-7.7922666825704132, -8.1105646491747887)	(-8.1294054452030533, 3.2542895675914849)	(1.3229230210354377, -0.13993090296071919)	(0.90053723093605598, 7.1161347298293176)	1.0	slash	0.715155
25	M	A	M	B					M	4	2	shapes	M	4	True	152	(-4.2839860112471939, 6.2741890334828359)	(3.8596036939280207, 4.5726926221953192)	(-3.6991538073771491, -8.533389550423145)	(4.7450015146532039, -4.3001509757133398)	1.0	z	0.524714
26	M	A	A	N	B	N	M	B	M	8	7	shapes	B	4	False	152	(-1.3685157429645267, 5.2051485133351072)	(7.4625941386238566, -2.6175855676971542)	(-4.3409438214747516, -5.2819905519506518)	(7.0096947990588117, 4.1705318457069538)	1.0	slash	0.48905
27	N	B	M	B					N	4	2	shapes	M	4	False	152	(7.4331003535439031, 0.2787243823721095)	(-0.59580318325042114, 1.9301927863121904)	(7.144248262046256, -6.5483337169496867)	(-1.6668863577073827, -7.7098402004670543)	1.0	slash	0.34408
28	N	B	M	A	M	A	N	B	N	8	0	shapes	N	4	True	152	(-7.6492655036410797, -4.994180641387203)	(1.0818999218340473, -1.8438885833127951)	(8.0844280041399905, -8.3104219756228286)	(-4.3805131642254276, -8.3309186387398491)	1.0	slash	2.57175
29	N	A	M	M	A	N	B	B	A	8	7	shapes	B	4	False	152	(-0.45843133797358426, -6.1288336659580676)	(-3.7210126278470064, 4.5658469906404502)	(0.46736156947488361, 7.4385091796225957)	(-6.9937646547658101, -4.9999900804975592)	1.0	z	0.881977
30	N	A	B	N	M	B	A	M	N	8	6	shapes	A	4	False	152	(3.9366699250862922, 8.5213469355849156)	(-1.143224400968653, 4.1964084672152158)	(0.66910120627482428, -5.0200096983908189)	(-6.1481414395219938, -2.0900526116053921)	1.0	slash	0.802998
31	M	A	M	B					A	4	0	shapes	M	4	False	152	(-7.3677332618526377, 4.1043793362075114)	(1.1673976937536708, 0.56061327555232943)	(-4.2631582720682504, -3.0157472081989605)	(8.7140181571351931, -1.7395008526280158)	1.0	slash	0.747312
32	N	B	B	N	M	M	A	A	N	8	0	shapes	N	4	True	152	(-6.3412379903245304, -1.5837624215335131)	(0.1887851272498775, -0.16081466422699719)	(2.2767847043334193, 8.7120975180538167)	(7.5551474268073093, -0.31800323770218597)	1.0	z	0.766447
1	M	A	N	M	A	B	B	N	A	8	1	shapes	A	5	True	152	(-7.176599674661361, 6.927846547390498)	(2.4834305549729923, 4.4068807110675401)	(1.5641890976615578, -3.2755251746323015)	(-3.1234446817794943, -5.5034992268889678)	1.0	z	0.682399
2	N	A	A	B					A	4	2	shapes	A	5	True	152	(-2.0297988296315861, -8.0781719864552546)	(2.5423738561909204, -2.2793987514835452)	(-2.8221021947326834, 5.2821650157591069)	(1.445199335727624, 1.8506279356380499)	1.0	z	0.747656
3	M	A	B	M	B	N	N	A	M	8	3	shapes	M	5	True	152	(3.5027846431817284, -8.2186937340874291)	(4.742151376390467, 7.322778483581672)	(-5.9267005762661942, -3.0114507003033815)	(8.7047217002415245, -7.3477580254331016)	1.0	slash	1.45518
4	M	A	B	B	N	N	M	A	N	8	6	shapes	M	5	False	152	(-2.7433217155280385, 2.6472091350172509)	(-6.0827372778557933, -2.8634739503705644)	(-7.0919350896583735, 5.2628576850943052)	(8.4037168596761767, 4.5918972130917908)	1.0	slash	0.530008
5	N	B	A	A	B	N	M	M	N	8	5	shapes	N	5	True	152	(4.808397944898438, -7.2882579359522097)	(5.926916008109437, 8.2707864431767497)	(-3.7677256028766859, 3.266899461072045)	(4.2191824415062431, -0.0660327544842918)	1.0	z	0.883037
6	N	B	N	A					M	4	1	shapes	B	5	False	152	(4.0755942134047185, 7.2799410245611433)	(8.7350327234680769, -3.2885192429515353)	(-0.94679559335656993, 4.6653095629298935)	(-5.073377513201236, -5.7794841897282065)	1.0	slash	0.550221
7	M	B	B	A					B	4	2	shapes	B	5	True	152	(-7.4788198540437749, -8.2725109140632664)	(0.078753290822499267, -4.3795050880292008)	(-5.8405290679263917, 0.64359731361168571)	(7.6879394466651085, 6.45976589997011)	1.0	z	0.786362
8	N	A	N	B	M	M	A	B	A	8	5	shapes	M	5	False	152	(-3.331484095659742, -6.8532090703842279)	(8.3334323986355017, -0.47221454691600684)	(-2.4560810415203322, 1.175265613739457)	(3.7311843065430992, -1.038704359799036)	1.0	z	0.883469
9	M	B	N	A	N	A	B	M	M	8	3	shapes	A	5	False	152	(-2.8023882546565897, 3.5314551458772563)	(-0.33348633475403133, -2.0921013953713139)	(5.7677024548734348, 7.2271636043185232)	(-4.7615874263071838, 7.4227553198157814)	1.0	z	0.813111
10	N	A	N	M					M	4	1	shapes	A	5	False	152	(6.2539455271823741, -2.1322331345500132)	(-4.7679526349222456, 1.3334462042172124)	(2.2113272410881795, 8.005428436964813)	(-7.6661849815073442, -7.6975192938612018)	1.0	slash	0.652741
11	N	B	N	M					N	4	0	shapes	N	5	True	152	(-1.3417092539263953, -4.8646994156354086)	(7.1946015637991181, -8.6767590032648521)	(2.2519457598445847, 8.7428688348526009)	(-2.2191375932421433, 4.9530601562387595)	1.0	z	0.700661
12	M	B	A	A	B	M	N	N	A	8	6	shapes	N	5	False	152	(2.9708432813567835, 5.0188931544054167)	(-6.4570148307995527, -1.9516073465216683)	(1.5901611423453996, -6.1425775081694916)	(6.1218968361122883, 2.3901387318905698)	1.0	slash	0.526419
13	N	A	B	A	B	N	M	M	N	8	0	shapes	N	5	True	152	(-7.1137083757845012, -8.686843916550929)	(1.6578707583524235, 5.2332238351033666)	(-5.73634545046911, 6.7066043663405157)	(-3.998490200453845, -2.8870112805223052)	1.0	z	1.01972
14	N	A	A	N	M	B	M	B	B	8	5	shapes	B	5	True	152	(-5.7555986793736542, 5.9055468615717732)	(2.5775030096800631, 1.96922465277658)	(-3.7003422463509219, -5.3352305031613021)	(6.6881854403432452, -7.4003700763409634)	1.0	slash	1.30533
15	M	A	N	M					A	4	3	shapes	M	5	False	152	(0.21394454291293385, 2.2997749007093464)	(-6.0751610121829032, 1.4106344727906528)	(-2.2869222531763089, -4.6763823722078914)	(6.8401357797008444, -4.2319328880926257)	1.0	z	1.05201
16	M	A	M	A					A	4	0	shapes	M	5	False	152	(-3.6595299002429265, 5.4739173457556198)	(-1.0379881127161292, -8.2538255574696819)	(3.3410525642875903, 1.8013825397480741)	(1.449640311642062, -5.0054742387733011)	1.0	slash	0.632302
17	N	A	M	N	A	M	B	B	M	8	0	shapes	N	5	False	152	(2.9543619319028487, -2.3682354717470977)	(-8.1245646086324932, 8.0759354630467968)	(-3.2999074089561127, 6.2268198922998454)	(6.7079683140719979, 7.6390863581191617)	1.0	z	1.4693
18	N	B	B	A					N	4	1	shapes	B	5	False	152	(1.3339326934011577, -4.8481796647771862)	(0.96673764886867986, 0.35116025271794982)	(-2.2298476930353743, -8.2272481201981655)	(-3.0921082243003335, 6.716922516587811)	1.0	slash	0.695596
19	M	B	A	B	M	A	N	N	N	8	7	shapes	N	5	True	152	(-7.9702052139337392, -7.05398316298061)	(1.8945016996928317, -2.6301875124566543)	(4.3909075444868613, 7.9947495360139946)	(8.2130938441512633, -7.6093214538277092)	1.0	z	1.18196
20	M	A	N	B					B	4	3	shapes	B	5	True	152	(1.7117106060925558, 5.6524456413690487)	(-2.5688207871198436, -5.8286201220456499)	(-0.3549033245889337, 1.5851522163551195)	(5.7994927435644268, -7.8051590253701928)	1.0	z	1.14618
21	M	A	A	B	N	M	B	N	A	8	5	shapes	M	5	False	152	(6.1229506470124946, 5.6849993903044673)	(4.103347501363908, -6.7449779926606919)	(-7.0512951417616758, -8.3733497220773501)	(-3.0789444113546054, -0.055828920951290328)	1.0	slash	0.452723
22	N	B	N	B	A	A	M	M	A	8	3	shapes	B	5	False	152	(-5.7894751985471089, 3.7229111683133844)	(-3.8968545283886566, -7.0093126672981318)	(8.1603963292204504, 3.355565636377646)	(5.5416148815651454, 6.6430414176521975)	1.0	z	0.919084
23	M	A	N	M					M	4	3	shapes	M	5	True	152	(-6.2515019406842054, 0.78640662041330778)	(4.504491953046859, 7.68462213153623)	(-7.0050737685589493, -3.322619439706842)	(0.32087075987203484, -7.2364498527014653)	1.0	slash	0.982023
24	M	B	N	M					M	4	0	shapes	M	5	True	152	(-8.46048261600159, 8.1938441136932738)	(5.3349660924262636, 5.5242921204463222)	(-2.1070630831116794, -2.7296262149166832)	(7.8732239814741227, -4.8884804897403074)	1.0	z	0.849684
25	N	A	B	B					M	4	2	shapes	B	5	False	152	(-0.65008072283687035, -3.8893831135918573)	(2.7459452298502693, -6.7750754945515883)	(0.0030465621260997722, 7.0111131490859222)	(-7.9723900077644387, 4.2624648967234879)	1.0	slash	0.633266
26	N	A	M	M	N	A	B	B	M	8	2	shapes	M	5	True	152	(-8.2586137300690279, -8.4289643374961312)	(-1.4481150677201597, 1.3198339001885859)	(3.5162686396906846, 8.5286194475239832)	(1.2031103256416049, -6.9774575736634912)	1.0	z	0.790998
27	M	A	N	N	B	A	M	B	M	8	0	shapes	M	5	True	152	(-5.5213595507259887, 1.328236786630951)	(-1.2671964798766462, 7.1164300719276508)	(4.6076148134679649, 1.322117314860213)	(0.23434460782111088, 1.7709082188823082)	1.0	z	1.12657
28	M	B	M	B					M	4	2	shapes	M	5	True	152	(5.6740543329811022, 6.1150583190832553)	(-8.5727208546000444, -0.1213506641517732)	(6.5405788668807521, -2.1147769800793608)	(-1.253898924303388, 7.221441620445173)	1.0	slash	0.884696
29	M	B	M	A	N	B	N	A	A	8	6	shapes	N	5	False	152	(1.1242794512627512, 2.5824309446790377)	(6.0982906375388897, 7.8530121593143001)	(-1.5711619749505958, 7.960552246478322)	(1.2861873739662109, -7.3049857926078916)	1.0	slash	0.871068
30	N	B	B	N					A	4	0	shapes	N	5	False	152	(0.54275756150956589, 2.8831899273796786)	(8.6669740688334116, -3.1461244295970818)	(-5.1389275633106726, -7.8526733715046131)	(-6.1363396999313302, 5.0653641699223471)	1.0	slash	0.568247
31	M	A	A	N					N	4	1	shapes	A	5	False	152	(3.9878263735739221, -5.2421557538018719)	(-6.2489366707744427, -3.6438477776199187)	(2.1710427728034745, 7.7955802516314776)	(-2.1462933029514089, 5.7205441622252042)	1.0	slash	0.847285
32	M	A	M	B					M	4	2	shapes	M	5	True	152	(-4.429320295844839, -4.4907888817080108)	(-8.4964333848770561, 4.6122752172639299)	(6.5616771822072106, 1.2546739039492039)	(1.6722719997872169, -3.6261137750118984)	1.0	z	0.854794
1	N	A	N	A	B	M	B	M	M	8	7	shapes	M	6	True	152	(-6.3293472880776562, 1.2472961860768983)	(-4.6554824487745012, -6.1276970834496503)	(7.1812559149119028, -7.7784222546643376)	(2.0851682838038705, -1.1509598654630349)	1.0	z	0.657397
2	M	B	B	A	N	N	M	A	N	8	6	shapes	M	6	False	152	(-0.56645713958675437, 7.1226697883925141)	(8.4276778176928602, 3.8846153089890834)	(8.0811248245803995, 7.911963467711054)	(3.4798960361665205, -6.4531351751249701)	1.0	slash	1.04021
3	M	B	B	M					N	4	2	shapes	B	6	False	152	(2.1970018830333515, 3.5993838475136783)	(-2.7206845564191093, -3.3706557919334283)	(6.2985753310305448, -0.73640498753054118)	(-4.0852491566043296, 1.5908791914926788)	1.0	slash	0.72331
4	M	B	A	M	N	A	N	B	A	8	7	shapes	B	6	False	152	(-3.0832479096844443, 3.2199100551000583)	(2.1637336967017475, -2.9696628011663293)	(4.2278069508237675, -6.6262262979007893)	(4.2100847970441109, 3.533438866509373)	1.0	z	0.910606
5	M	A	M	N	N	A	B	B	N	8	7	shapes	B	6	False	152	(8.6683900719794629, 8.3832263077024933)	(-2.5106611649215846, -0.77512365474284017)	(4.478181759698515, -5.3795038625448113)	(7.6441746167753948, 3.8805947168068506)	1.0	slash	0.751047
6	N	A	B	M					N	4	2	shapes	B	6	False	152	(-6.8235837256752809, 3.0171082332561028)	(3.711829318093633, -2.1865210506902395)	(-7.329938429768962, -5.8309717270640169)	(2.2703123791060378, 8.3337141404769)	1.0	slash	0.58532
7	N	A	M	A					B	4	3	shapes	A	6	False	152	(1.5047086953820568, -2.9081511761516641)	(5.9172065131114024, 1.7774583029076272)	(-1.3736821941597155, -7.3028810399319628)	(-8.3005633942127179, 4.4618768489253)	1.0	z	1.25983
8	M	A	B	B					N	4	2	shapes	B	6	False	152	(2.5016390851474473, -5.3453581468302689)	(7.1876609647123466, 3.5487851967549524)	(-2.5023366386557191, 8.4513975133609129)	(-2.1360130993476698, -0.59987278904338126)	1.0	slash	0.408089
9	N	A	N	A	M	M	B	B	M	8	1	shapes	A	6	False	152	(-3.3482690029127413, -4.1860587627566304)	(5.7823195650946708, 5.9552452594974881)	(-2.5329841116529614, 1.623286102564272)	(-4.3413290938835498, 6.1907804307548133)	1.0	slash	0.770129
10	N	B	A	A	B	N	M	M	B	8	4	shapes	B	6	True	152	(-0.62396210921032313, -7.6656243385341991)	(-5.3390223161222305, -8.5942536026486973)	(0.96163954463679069, -2.3706674794215115)	(5.8033905325592254, 0.68454189157878709)	1.0	slash	1.1535
11	N	B	A	N	M	M	A	B	N	8	2	shapes	A	6	False	152	(3.9895525701031893, 7.4009104105553263)	(1.5358887479663661, -0.43497839728220811)	(4.5152088774707604, -7.1886659471405743)	(-5.7624234669628889, -0.9163779576755875)	1.0	z	1.29887
12	M	A	M	A	B	B	N	N	M	8	0	shapes	M	6	True	152	(2.7392700883808754, -3.7229214775088417)	(3.1739359191014316, 7.2626596225224525)	(-7.2690026382989856, -2.1100967072086547)	(8.7203076176132868, -7.8799162313519346)	1.0	z	0.760577
13	M	B	B	A					A	4	3	shapes	A	6	True	152	(4.6226841371931719, 8.2808298555608069)	(-4.9065053705109953, -6.2849860350604416)	(-3.0519212262353337, 2.4164042671302468)	(3.015710419765627, -4.1971991048955815)	1.0	z	0.688761
14	M	A	A	B					A	4	1	shapes	A	6	True	152	(7.7344296894596276, -6.0986113280032992)	(-6.822264528730388, -6.598499032040162)	(-4.7195150273401154, 5.9994589599388704)	(8.2193703797029762, 8.1513039193182841)	1.0	slash	0.621774
15	N	A	B	B					M	4	0	shapes	N	6	False	152	(-4.901988646138328, -2.6804143222090699)	(4.7320427855993596, -6.2803277646215285)	(2.2373587533282642, 1.2315546749702033)	(-4.2843258847011843, 4.140240720921355)	1.0	slash	0.587704
16	N	A	B	B					B	4	2	shapes	B	6	True	152	(3.3045120944998647, 0.74731078268059115)	(-1.5936693439182212, 3.3041225594033214)	(0.14792406465434382, -4.219933618521349)	(-8.3269211956390787, -1.6786723890052855)	1.0	z	0.607178
17	N	B	N	M	B	M	A	A	M	8	5	shapes	M	6	True	152	(-8.3406301096928157, 3.2265855525562728)	(3.3822429319105662, -5.6589546880213977)	(-0.15936097033273455, 7.0476212277855463)	(0.15474297558986549, -8.3396616805919166)	1.0	z	1.30344
18	N	A	A	N					M	4	0	shapes	N	6	False	152	(7.2413722970591632, -0.19121430919114601)	(-3.7601307394567689, -6.891598763154045)	(-0.18388490538757907, 8.6229652835392621)	(6.1490786924848031, 3.850352849334671)	1.0	z	1.00273
19	M	B	M	A	N	N	B	A	N	8	0	shapes	M	6	False	152	(-3.435803549502273, -3.7068995974925967)	(6.6068359092928368, -4.7050870229968051)	(-7.8511358051478677, 2.1904077372680391)	(-5.1786250354369088, 5.742268017005431)	1.0	z	1.27543
20	N	A	B	A					B	4	2	shapes	B	6	True	152	(-5.8922977863819881, -2.1635596314658772)	(-6.7105647884602515, 3.945040621822594)	(7.1596411897109729, 3.8399967059545332)	(2.0127874913046835, -0.8369194373836315)	1.0	z	0.637759
21	N	A	M	B	M	N	A	B	A	8	1	shapes	A	6	True	152	(6.1969174811429841, 4.5742407334442365)	(-5.097348395521319, -7.2731161218805624)	(-0.1972654330164012, 2.6199621281784271)	(-0.47092929183741283, -6.5353765176652292)	1.0	z	1.32734
22	N	B	M	N	B	M	A	A	M	8	2	shapes	M	6	True	152	(-0.0955050768582133, 4.1411942515907612)	(7.0974093500737858, -3.6749641100902055)	(-3.7933170306540136, -6.4379294792585675)	(-3.6588178801657509, -2.1779491698416065)	1.0	slash	0.949624
23	N	B	A	N					B	4	1	shapes	B	6	True	152	(7.2716497962633078, -0.016417730777284589)	(-5.0011969784384709, -4.2081408594205421)	(5.3880112752233895, 7.0016797625904985)	(-3.4615504296010222, 3.7840824268006639)	1.0	z	0.531571
24	N	A	M	A					N	4	0	shapes	N	6	True	152	(6.304418752658151, -5.5133091135060956)	(-7.8820839366344702, 3.4888430242653019)	(7.1284949430269453, 1.9206940849306111)	(-2.5340445099154305, -2.6009330907055146)	1.0	z	1.24843
25	M	A	N	A					N	4	2	shapes	N	6	True	152	(7.2140135330740431, -2.5823227373319826)	(4.8907835432742353, 3.8509095527268453)	(-3.3332951135008946, -1.7248393400824629)	(-1.6321848678340789, 5.8662226104098689)	1.0	z	1.46995
26	M	B	M	N	N	A	B	A	A	8	5	shapes	A	6	True	152	(7.6220091771734246, 2.3842141654084408)	(-4.7234385294958434, -3.3956164945323115)	(-2.9884938886281693, 3.8387470972146307)	(4.9577218800840619, 6.0715819236540547)	1.0	slash	2.50759
27	M	B	B	A	N	A	M	N	A	8	3	shapes	A	6	True	152	(4.7623865308297102, -3.5591827976675603)	(3.6035095576260243, 4.5474411475655039)	(-6.6065450659403577, 3.617688580027842)	(8.5643438095448765, 5.6889483300009953)	1.0	z	0.681531
28	N	A	B	B					A	4	1	shapes	A	6	True	152	(3.3804093412445759, 5.3299149666878396)	(-8.6200330422874085, 7.369475757445084)	(7.094581444396006, -3.8598187707881308)	(-8.3234158050639451, -6.6933176341856866)	1.0	z	1.30653
29	M	B	B	N					B	4	0	shapes	M	6	False	152	(2.2870925864577707, 0.11092488752555418)	(-1.3364932311870898, 4.0677746749030916)	(-4.3854297732018237, -7.4033776735538082)	(6.9103069284111953, -2.4928311857801226)	1.0	slash	1.43888
30	M	A	B	M	N	A	N	B	N	8	7	shapes	B	6	False	152	(1.0910153545281069, 2.6856498783898637)	(8.6576055605232192, -6.1352054886397127)	(-0.84116176844650514, -2.1209855246472378)	(5.8596364655835611, 0.011326813733434804)	1.0	slash	1.48221
31	M	A	B	M	B	N	A	N	A	8	2	shapes	B	6	False	152	(-0.99539799349220903, -1.8141936941786048)	(-6.8519421780916252, 6.4580173430072207)	(-2.5485662916553915, 3.418769063991169)	(-7.297442948015207, -4.1052440096329326)	1.0	slash	1.74613
32	M	A	N	B					M	4	1	shapes	A	6	False	152	(4.8483330941626281, 5.1855005691534934)	(-8.5748660525229798, -1.8477682556594317)	(-5.4163292518459549, 2.7915432850644013)	(4.1397048554995308, -6.9603051476412716)	1.0	slash	1.49579
1	M	A	N	M	N	B	A	B	N	8	6	shapes	A	7	False	152	(4.0415757372558048, 0.19935597092749191)	(7.0806837917935184, 4.4872233910234822)	(-7.8652682148179878, -3.5099772637381648)	(-1.7764480809600203, -6.0158856330468877)	1.0	slash	1.28486
2	N	A	N	B	M	M	B	A	N	8	3	shapes	B	7	False	152	(5.9092957607052412, -5.4907609253022409)	(-8.6775737931393149, 7.1592711215196321)	(-5.257817284885169, 4.9302646780314827)	(-4.5965496572688407, -7.9638917642282179)	1.0	z	1.52627
3	N	A	N	A					N	4	0	shapes	N	7	True	152	(2.4911808967005147, 2.002408839475283)	(-3.6911078052127024, 0.38029452643934825)	(-2.4344641069256019, -8.1315025957888434)	(5.790805781451569, -8.591395138835237)	1.0	z	1.26251
4	M	B	N	A	B	A	M	N	B	8	1	shapes	B	7	True	152	(4.5537527150192112, 8.4053908241692099)	(-6.97265472953789, 6.8934989390093584)	(2.4579919687439133, -8.7492634605667199)	(6.1908531608643926, -5.1983952925667118)	1.0	z	1.56553
5	M	A	B	N	A	B	N	M	M	8	5	shapes	B	7	False	152	(5.3977125080854496, 6.0707610369222298)	(-2.8743792436017959, -5.0800037363683881)	(-1.2574832934292175, 5.9782527337713542)	(4.6320388025547157, -2.6597800628691202)	1.0	slash	1.72963
6	M	B	B	M					A	4	3	shapes	M	7	False	152	(-4.8717274572071254, -1.5229259267376065)	(7.3713375835954764, -8.4562244758265557)	(5.3562353115514636, 2.7172190338880196)	(-1.7277177873458749, 5.9299172087390613)	1.0	slash	1.44756
7	N	A	B	N					M	4	3	shapes	N	7	False	152	(4.7235902885273511, -2.7462423463501597)	(8.1163838165019335, 3.2575425250315924)	(-6.6524897137970971, -4.0323027207964852)	(-2.9683961542904251, 2.6223045629051391)	1.0	slash	1.48853
8	N	B	M	M					B	4	1	shapes	B	7	True	152	(4.2385965441008047, 8.7326382115970809)	(5.350809284210758, -7.0289639664815411)	(-4.610160811853528, 0.97815005266789257)	(-7.9416832600817013, -5.9447278197944735)	1.0	z	1.324
9	M	A	B	M					M	4	2	shapes	B	7	False	152	(-8.0599815608539629, 8.6753265042205392)	(8.427241186397449, 1.0064602035616215)	(-5.7775994162160531, -1.7969478346901484)	(7.642529262713861, -4.7471772444988423)	1.0	slash	2.43191
10	N	B	A	N	M	M	B	A	A	8	2	shapes	A	7	True	152	(3.3780380203938272, 8.4569297177160294)	(-7.8745362368699654, -1.0524724357632982)	(1.3424593272337955, 3.7693202693211632)	(8.4492781748943102, -5.9274285421977444)	1.0	z	4.147
11	M	A	A	M					A	4	1	shapes	A	7	True	152	(3.6232154807931689, -8.5690672357094684)	(7.9416636654086297, 3.0069434602827521)	(-0.22006090703987091, -4.5605302740229572)	(-6.5146952945828449, 7.5547728358895974)	1.0	z	1.18442
12	M	B	B	N					B	4	3	shapes	N	7	False	152	(2.898774238082213, 1.4579261057008459)	(5.2439020644167567, -6.3268391165046065)	(-1.984692056526721, 3.158675248134303)	(-2.7504657645526525, -2.2432255278506315)	1.0	slash	1.26793
13	N	A	B	N					B	4	2	shapes	B	7	True	152	(3.8543750259236589, -6.9652043066021934)	(-0.57953156821435137, -5.7681461925499704)	(-2.9882214190810874, 6.5040782295738779)	(0.88229685939943181, 8.5918775195789863)	1.0	z	1.45216
14	N	B	N	M	M	A	B	A	A	8	2	shapes	N	7	False	152	(-2.7264689227538641, -1.7657313874985814)	(-5.6833675465569753, 4.1906988942779986)	(3.3336472890629576, 5.4650216209392983)	(3.9350213788226434, -4.3362688125801325)	1.0	slash	2.0932
15	N	B	N	B					A	4	0	shapes	N	7	False	152	(6.97574939377904, 6.0394934016694108)	(-2.2351183461026798, 7.1065837848158342)	(4.8289349463385296, -3.3811636169003441)	(-5.7302774141791231, -4.6608408048422927)	1.0	slash	1.44536
16	N	A	A	B	B	M	M	N	M	8	1	shapes	A	7	False	152	(-5.1449714952740653, 4.5388431370571478)	(-4.9867706165235433, -3.0792839178159106)	(5.8743097048018811, -4.2417479323144542)	(-6.7946854709018094, -8.2278392956509556)	1.0	slash	1.42511
17	N	A	B	B					A	4	1	shapes	A	7	True	152	(5.706498738967154, 7.4955885663539874)	(-1.2219032194003008, 3.3764916956620272)	(7.0204316490967091, -6.7234748655578311)	(-0.68472375566636501, -4.9448570209684819)	1.0	z	1.11808
18	N	A	B	A					A	4	3	shapes	A	7	True	152	(-6.9572511272386404, 3.1918765986832884)	(4.8309945587508256, 4.862135698581886)	(1.6546553371914499, -1.6921048635963647)	(-5.118831817838311, -2.2018763130547523)	1.0	z	1.22779
19	M	A	M	B	B	A	N	N	M	8	0	shapes	M	7	True	152	(4.2223761827304607, -4.3232163518434277)	(-6.4308194891535431, 0.46723645794052615)	(-3.7125106634466496, 7.3278748319917)	(-0.54375188668913133, -5.77777245241451)	1.0	z	1.64995
20	N	B	A	N	B	M	A	M	B	8	1	shapes	B	7	True	152	(-8.2366200090108581, -6.2842128485139099)	(4.177171954047413, -8.0199552443291822)	(6.8361798212446079, 6.3120693048336047)	(-4.5509173761872308, 8.0723089998070776)	1.0	slash	1.30433
21	N	B	M	M	N	B	A	A	A	8	3	shapes	M	7	False	152	(7.1519753948450493, -8.4918345681275742)	(2.8896011699458093, -1.7358635661734381)	(5.534967601790985, 8.1939763187052002)	(6.0207792459553389, 1.361180246381446)	1.0	slash	1.39643
22	N	A	M	B					B	4	3	shapes	B	7	True	152	(6.7745988882707469, -2.8915810777854869)	(-3.4209553465954592, -4.0136436898825494)	(-6.7525567924099246, 3.9886079821267781)	(6.0672343320622435, 1.9926613501127868)	1.0	z	1.22826
23	N	B	A	A	N	B	M	M	N	8	0	shapes	N	7	True	152	(5.2834724850311119, -2.1156198384079419)	(-0.12990883493199235, -1.2064730097034566)	(3.976758055898852, 5.3857287846424509)	(0.34811800360981238, 3.678455176352676)	1.0	z	1.38386
24	M	A	N	B					B	4	0	shapes	M	7	False	152	(-5.7786404492276322, 7.7834943840366861)	(2.9078993265402371, -7.459663975119974)	(-0.74393329458008317, -5.6048710254429395)	(4.3484931713545265, 1.8737640607550077)	1.0	z	3.28119
25	M	B	N	M	N	B	A	A	M	8	0	shapes	M	7	True	152	(-8.3879911706127679, 7.0583045489983789)	(4.3445545460254476, 2.6762593895187017)	(-3.1196734016812435, 8.2695792094089171)	(-7.6433361753779776, -3.7990536269801716)	1.0	slash	1.43333
26	N	B	A	B					N	4	0	shapes	N	7	True	152	(-5.6950260347672481, 2.902920941793516)	(1.9980943538161267, 2.165059394247022)	(-6.6951450150578635, -6.1112618226593654)	(6.0606648323818728, -3.8149487277022169)	1.0	slash	2.16099
27	N	B	A	A					M	4	3	shapes	A	7	False	152	(-5.9796709371989394, 7.7391198126093208)	(-5.1136474508680099, -2.8498287799446045)	(8.161860728984518, -5.178265649593305)	(2.983849453484396, 6.3528475253234191)	1.0	slash	1.21584
28	N	B	A	N	M	B	A	M	A	8	4	shapes	M	7	False	152	(-0.11943662890360862, -8.1188790889945111)	(-5.5652500964592742, -7.8663567337208331)	(8.0768133794643973, 6.407726368885287)	(0.62126166941502348, 8.13526614236903)	1.0	z	1.51143
29	M	A	B	A					N	4	3	shapes	A	7	False	152	(-7.450282631589106, -2.3561427302600002)	(7.2818083625865704, -7.6496242052209507)	(-4.8205868001758834, 6.0945025829069035)	(0.012445350227148211, 2.8800201490980974)	1.0	slash	1.25114
30	M	A	B	A	B	M	N	N	B	8	4	shapes	B	7	True	152	(-6.6139797347304725, -0.57217126384266059)	(-3.8497056378033774, 8.0399561129305432)	(5.839791642370681, 3.107470828900901)	(1.6107776431147371, -1.2724716133910761)	1.0	slash	1.70087
31	N	A	B	B	A	M	N	M	B	8	5	shapes	M	7	False	152	(5.7853477496690164, 2.2399143904357945)	(-1.5446520780216995, -5.2266027947913889)	(4.800686672301639, -6.7661768192951621)	(-2.9620978094545638, -1.1045434655921218)	1.0	z	1.56426
32	N	A	B	A	M	B	N	M	A	8	1	shapes	A	7	True	152	(6.1024957989924449, 4.4233948612621052)	(-1.6962399981919232, -5.5930468709567593)	(-6.9196038350105642, 7.2402014415210996)	(8.0600730648713714, -7.7399734193975451)	1.0	z	1.61194
1	N	B	M	M	A	N	B	A	A	8	3	shapes	M	8	False	152	(-6.5302387242305775, 4.7366780356971923)	(-6.1266155120574375, -0.89494864052418599)	(7.8391651357211565, 5.9799475321054594)	(2.6041603377013232, -2.5295274265013719)	1.0	slash	1.62437
2	N	B	A	N					B	4	1	shapes	B	8	True	152	(4.6178416221417411, 6.4672780177209628)	(3.6047076532604017, -5.3841938103757654)	(-3.3585079159152746, -0.73948680522893184)	(-7.7750853321653466, 6.8402951299303645)	1.0	z	1.12318
3	N	B	M	M	B	A	N	A	M	8	0	shapes	N	8	False	152	(7.1041899859857391, -5.6742871931373156)	(-3.5342186691511577, -1.3340117887923011)	(-2.9998471164324236, 3.6227891004242014)	(1.5127923315252971, 0.56697744538232264)	1.0	z	1.14289
4	N	A	A	N	B	M	M	B	A	8	7	shapes	B	8	False	152	(3.4458173567308172, -1.2784765228015447)	(-2.3906547870653485, 1.1600802805144674)	(8.3371341691846439, 0.46630325018599272)	(2.9066073590604748, 3.2334077299291604)	1.0	z	0.828431
5	M	A	M	A					B	4	2	shapes	M	8	False	152	(-4.6155709329677013, 5.9810384829392227)	(-0.77303432210606271, -3.6858946579344201)	(1.2440540318997897, 2.5820847245328586)	(4.9027539287108297, -5.1244934361655874)	1.0	slash	1.31791
6	N	B	B	A	N	M	M	A	M	8	4	shapes	N	8	False	152	(8.5672966056333131, 0.66877475962780686)	(-0.27429245320981543, 8.608868007348331)	(0.034939807565455894, -4.2908340079276934)	(-0.59415303269193664, 3.8369158570769883)	1.0	z	1.30637
7	N	B	M	M	B	N	A	A	A	8	7	shapes	A	8	True	152	(0.016760322349739454, 5.7236420475096335)	(3.4670830628457434, -2.9256795670989577)	(-5.073838534732972, -4.0149080692367765)	(4.8903010039796282, -8.3674651025496143)	1.0	z	1.37736
8	M	B	B	A					B	4	1	shapes	B	8	True	152	(6.7267616631881868, -1.2366916543286566)	(-6.671066740910998, -4.1415249318142271)	(-0.97688701765555841, 4.4645595134109612)	(4.7684585514515785, 7.3887463729669243)	1.0	slash	1.3271
9	M	B	A	B					A	4	1	shapes	B	8	False	152	(1.0292531183449274, -3.0131820599467618)	(-4.3187950294459645, 7.6915721261517582)	(-5.9429236483416554, -6.6061543230063045)	(3.4467876209319517, 1.2713005825815955)	1.0	slash	1.84517
10	N	A	B	M	A	B	M	N	M	8	6	shapes	M	8	True	152	(-0.56895268016622502, 6.0250720505958437)	(5.8731789196146487, 0.70084361544585505)	(-8.658830846198228, 0.60115427023230161)	(4.624769018781107, 4.7969706082038144)	1.0	z	1.61166
11	M	B	B	N					B	4	3	shapes	N	8	False	152	(0.62662440014723231, 7.0893759954439766)	(1.0658940139752549, -8.2528175283878813)	(-2.0124309028928131, -5.2369740548506964)	(-7.0174855087506476, 0.20849526277100772)	1.0	slash	1.28352
12	M	A	M	B	A	N	N	B	B	8	1	shapes	A	8	False	152	(2.7399737443612242, 0.86033169444686486)	(7.4898791463611616, -7.5277301548048783)	(-7.4248585171000112, -4.2229351218324629)	(-6.9777785340716125, 5.5675448864116657)	1.0	z	1.53826
13	N	B	A	B	A	N	M	M	M	8	7	shapes	M	8	True	152	(-1.6674294567515888, -6.1840799796955324)	(5.1884026176191664, -8.5652616441047549)	(6.8473725573469402, 5.9744605058971896)	(-7.3548865882216194, -2.4041775147277695)	1.0	z	2.7516
14	M	A	M	B					A	4	1	shapes	A	8	True	152	(-1.5158447490970177, -3.7169116415944821)	(-6.0490245859595611, 2.2484998598011199)	(8.5230921096152557, 2.2729654084371376)	(0.010165197225315836, -7.4882827803089169)	1.0	z	1.15302
15	M	A	N	M					M	4	0	shapes	M	8	True	152	(-4.2008007231141633, 6.299947134642002)	(6.8410603601616771, 7.6817806100600201)	(-5.2218039085396946, -1.5932437067459704)	(7.4678266023619209, -2.2553290205024981)	1.0	z	1.08384
16	M	A	N	B	A	B	M	N	A	8	5	shapes	B	8	False	152	(-2.7754904557846922, -0.10856639619751007)	(4.4770051121342949, 7.7658138172728783)	(7.9751951422028178, -6.9342654619746655)	(7.1852017200807214, 4.7097352821042193)	1.0	z	1.92022
17	N	B	B	A	A	M	M	N	N	8	0	shapes	N	8	True	152	(-0.5709564342877762, 4.2561364388313798)	(-0.70544008548508153, -5.097187629692538)	(-7.2586213023402948, -7.4199868291406146)	(5.0101942034897355, 3.7466161636125577)	1.0	z	1.11566
18	N	A	A	B					B	4	3	shapes	B	8	True	152	(-2.139720971583893, -8.4702733160212045)	(0.80116995562598525, 1.1836781289385261)	(-2.6598189449743783, 5.210127380285579)	(7.3574604501241616, -6.8663074587090644)	1.0	slash	1.95449
19	N	A	N	M					N	4	1	shapes	A	8	False	152	(-2.7527940132067519, 8.215231218574349)	(1.0764350084668894, 5.3234166324851966)	(-6.2449034083949924, -0.6520969616322958)	(2.1713025975608353, -2.0394732874299999)	1.0	slash	1.21276
20	N	A	M	B					N	4	2	shapes	M	8	False	152	(7.0024101671743324, -4.7321660098708422)	(2.2848544360117469, 6.4286902843806892)	(-1.3145121517084641, 2.0209350890134825)	(-7.0833547937669366, -5.2847918989646567)	1.0	slash	1.26094
21	N	B	N	A					B	4	3	shapes	A	8	False	152	(-7.6592867993201308, 4.9741199710017607)	(1.2672370154247314, 5.585513319708916)	(-8.3239161697251607, -4.6714050797074895)	(3.8780679548879391, -7.9554029525974892)	1.0	z	1.35942
22	M	B	A	M	A	B	N	N	A	8	4	shapes	A	8	True	152	(4.791508401381801, 5.3106911599339792)	(-3.3588223736152827, -6.684961108921474)	(-5.5700445806751624, 4.3173461860448619)	(-7.1052006660420641, -1.2137281133095801)	1.0	z	1.13128
23	M	A	N	A	N	M	B	B	M	8	0	shapes	M	8	True	152	(6.056273588410475, -3.1519672608738389)	(-3.1345371670518727, 7.2659508583948558)	(0.67415448321582438, -2.2385382591847831)	(-6.8902950933766203, -5.8224119409049262)	1.0	z	1.05194
24	M	B	B	A					B	4	0	shapes	M	8	False	152	(-7.0726305323109564, -3.9702990265830564)	(0.48163545515179429, -6.5108204892817145)	(2.2473536283820383, 0.48044070018468688)	(-2.2432112110865754, 7.8538988380090196)	1.0	slash	1.50054
25	N	A	B	M					M	4	3	shapes	M	8	True	152	(2.0775821584114045, -2.2871216483543879)	(-5.8819596620844194, 5.2371734755073422)	(0.15441861697021508, 4.4057975875685482)	(-5.7618268820632705, -0.59732801226684629)	1.0	z	1.40518
26	N	B	N	M	A	A	B	M	A	8	7	shapes	M	8	False	152	(-7.711742984652675, 0.2002807816597354)	(0.26540521458661281, -4.9924174814782329)	(-5.632163174155151, 6.5810942753320738)	(2.0877064335373454, 3.5324245068106475)	1.0	slash	1.66563
27	M	A	A	B	N	B	M	N	A	8	2	shapes	A	8	True	152	(-7.0185068588638027, 0.85450613735671688)	(-1.8963742305689308, 7.8582248296749135)	(1.3093536216207031, -4.5763507059704267)	(8.6005752382760967, -5.1884136038414734)	1.0	z	1.23131
28	M	A	B	M	A	N	B	N	B	8	6	shapes	B	8	True	152	(-2.6490108337589664, -7.4628215890184313)	(2.8194564492526926, 1.4205429542319532)	(7.581617048655783, 2.0747029081015622)	(-1.2211133108458769, -3.3459492917287044)	1.0	slash	1.61883
29	N	B	A	B					M	4	0	shapes	N	8	False	152	(8.6103446148595317, -3.6360905172799045)	(-1.6138538639072957, 3.0675376354406243)	(-4.9083780401680634, -2.0438121555050497)	(4.7771478564966898, 3.7338633094103777)	1.0	z	1.34437
30	M	A	B	A					B	4	2	shapes	B	8	True	152	(-0.85747429965363153, -7.0096216574606665)	(3.2066768999545019, 3.5267384376106214)	(2.3463932672163139, -2.8632881402654871)	(-1.9280201287739924, 4.1322974144304769)	1.0	z	1.24608
31	M	B	M	N	A	A	N	B	A	8	6	shapes	N	8	False	152	(-5.9786531118655732, 5.8370744788203464)	(3.3536936061524614, -2.4971767154024658)	(-3.4558769623494712, -5.2851407861521214)	(3.464517077704274, 6.5430106105401453)	1.0	slash	1.05571
32	M	B	M	B					B	4	1	shapes	B	8	True	152	(-5.8885867573217769, 6.4058341746215621)	(3.2680017461442112, -0.47848578311139001)	(-8.746234760040311, -4.5542151217493654)	(0.22801326117915188, 7.2139422094420738)	1.0	z	1.23711
