TrialNumber	stim0	stim1	stim2	stim3	stim4	stim5	stim6	stim7	stim.probe	ttl.stims	corr.num	trial.type	stim.corr	block	match	Subject	stim.pos0	stim.pos1	stim.pos2	stim.pos3	ran	resp	RT
1	M	A	M	A	N	B	N	B	A	8	2	shapes	M	Practice	False	153	(-5.1588149317903262, 2.2643747200063267)	(-0.36993412146905236, -0.15848667400390148)	(-8.6698695102110186, -6.5510849372827575)	(6.6301344773181761, 2.2109559858479564)	1.0	z	4.17585
2	N	B	M	B	A	M	A	N	A	8	6	shapes	A	Practice	True	153	(-1.8783856726185295, -5.6809862412158223)	(4.6866316288893248, 7.8223165283799574)	(4.4442547935680192, -6.8848123212574546)	(-4.410183468022896, 3.3979937547080699)	1.0	slash	2.44872
3	N	A	A	N					M	4	3	shapes	N	Practice	False	153	(0.53153388676951607, -3.5035419680961173)	(-1.6439889415827711, 4.5506556522252914)	(-2.9728605305359306, -6.7395252129675303)	(1.5317510441284998, 7.7769548997935125)	1.0	z	1.27268
4	N	B	B	M					B	4	2	shapes	B	Practice	True	153	(2.7532694859933127, -7.701300822609797)	(-8.0179604511304117, -0.070621385621974397)	(1.1614511535658316, 1.8841659110766322)	(-3.4327717001049525, 8.2579703593358644)	1.0	z	1.54757
5	M	B	M	N	A	B	A	N	M	8	6	shapes	A	Practice	False	153	(5.110635494818311, -5.8891749983351529)	(-5.9982083001936157, 8.1082930316262605)	(5.0998873957314377, 6.7052980970151452)	(-0.075132968624860297, 0.15289388068669396)	1.0	slash	3.36144
6	N	A	N	M					N	4	2	shapes	N	Practice	True	153	(7.5512568553147794, 3.9601215555890903)	(-5.4934237622913216, 3.3632142821758197)	(-4.2920811510238428, -4.7218622738625111)	(5.9191464975272119, -1.3295614694662774)	1.0	z	1.20795
7	M	B	A	M					N	4	1	shapes	B	Practice	False	153	(1.1452799103215394, 3.3327005937048089)	(4.9202636495861451, -5.2538171946781906)	(-1.8672785115778412, -0.21945548546213445)	(-8.11741950995218, 7.2802607660474834)	1.0	slash	1.48034
8	N	B	A	N	M	A	M	B	B	8	7	shapes	B	Practice	True	153	(-2.3985989787463682, 4.610521301408486)	(-5.5228147983593887, -5.1417228706128935)	(6.3576295677142518, 1.910756900265163)	(6.4872532609325937, 6.3275140524144113)	1.0	z	1.70013
1	M	A	A	N					A	4	1	shapes	A	0	True	153	(2.7164428859559084, -2.9588718837252639)	(-4.2371802533464891, 6.1020908420517568)	(0.014345564298128721, 2.3455242380965124)	(-3.8806866843175323, -1.8005462303253976)	1.0	z	1.90072
2	M	A	M	B	A	N	N	B	A	8	4	shapes	A	0	True	153	(5.2135780662693811, -5.3284200010353899)	(1.761131044633327, 5.4762988911138066)	(5.4819394080843544, 0.19955978109509331)	(-8.2446177728931431, 0.27099504766338711)	1.0	z	0.94944
3	M	A	N	A	B	N	M	B	B	8	4	shapes	B	0	True	153	(-4.2514334214648324, -3.4781876895468846)	(1.3072267622573808, 3.7918838796698751)	(7.8049717766600466, 0.3310255310372785)	(1.9039847271417134, -5.362569850159363)	1.0	slash	1.32095
4	M	A	M	N					M	4	1	shapes	A	0	False	153	(-7.001853358357625, 5.7448290408892078)	(5.4367150398003599, -2.7805962780797246)	(7.4338046777256679, 3.3219735404345645)	(-4.5375463143472148, -7.2785423305611419)	1.0	slash	1.48012
5	N	A	N	M	M	B	A	B	B	8	4	shapes	M	0	False	153	(-0.0071956758895215245, -6.3177521704452282)	(2.3853969473486138, 5.2243173206866356)	(-8.3297469036331631, -3.5203725275146054)	(-2.9881420737329316, 0.40052834910638246)	1.0	slash	1.32966
6	N	B	B	N	A	A	M	M	B	8	1	shapes	B	0	True	153	(-5.1284009973033662, -1.200370294354336)	(2.9369362903262548, -0.37221151347838699)	(-8.7249635252725373, 1.3111699614575976)	(-6.951487576697982, -6.9426853171859833)	1.0	z	1.40118
7	M	B	M	N					M	4	2	shapes	M	0	True	153	(3.1080986961623189, 6.7488720140968415)	(2.8982727228040464, -2.0412918957049007)	(-7.1375586886665623, -0.84146705890007567)	(-1.6482607514839493, 5.2857315830154956)	1.0	z	1.17098
8	N	A	N	B					B	4	1	shapes	A	0	False	153	(-0.0086456589074987988, -6.0167382357365709)	(1.5701724414740941, -1.1867932632122571)	(-3.011280046537804, 8.4429330211484235)	(2.1442498370403467, 4.0480011897156079)	1.0	slash	1.4337
9	M	A	B	M	N	N	B	A	A	8	7	shapes	A	0	True	153	(-2.5623130726723815, 0.063812417409181421)	(8.5248780283933101, 7.4995058975344193)	(-1.0686884126061029, -4.7295832037045704)	(7.0751431277489658, 0.70983770936612878)	1.0	z	1.22854
10	N	A	M	A					M	4	0	shapes	N	0	False	153	(8.7161877555472493, 3.03745827235708)	(-7.3934804294122074, -3.7358563895797232)	(-3.1118928312059211, 3.5999625123762371)	(5.2230473777044786, -5.6933998025079395)	1.0	z	1.50426
11	N	A	N	M					B	4	0	shapes	N	0	False	153	(-5.2598953588549975, 0.069437095585767494)	(-4.753496831888814, -7.1272389625863166)	(6.6480886503237322, -8.6622615256249844)	(1.2174961684273082, 5.9249433164750069)	1.0	slash	1.28399
12	M	B	M	B	N	N	A	A	M	8	4	shapes	N	0	False	153	(-7.1953354303091981, -2.1374186959823938)	(-1.6661655106243574, -1.6845222020724204)	(0.46834240841251429, 8.4261767148380038)	(4.6494209593784479, 1.35187864247753)	1.0	z	1.31692
13	M	A	A	N					A	4	1	shapes	A	0	True	153	(1.234498319719517, -7.1789512596310239)	(-8.2957528816725006, 8.0171973627688082)	(-3.9615804115692121, -5.2318486854035546)	(7.404954679260463, 6.1275538373033651)	1.0	z	1.26059
14	N	B	M	A					A	4	0	shapes	N	0	False	153	(-2.46260481024109, 5.0842723227218496)	(0.10723507236201613, 8.6572238951136455)	(-3.417684180633433, -1.9125315433230119)	(0.24281473074147897, -4.6521627008158228)	1.0	slash	1.32277
15	N	A	M	N	M	B	A	B	M	8	0	shapes	N	0	False	153	(-5.3657086345986471, -3.2120514596512546)	(3.4376501252245415, -0.89700683763912092)	(1.3583801442263947, -7.006794696101605)	(-3.9527921198165208, 1.1600489902632667)	1.0	z	1.38844
16	N	B	B	N	M	A	A	M	B	8	1	shapes	B	0	True	153	(0.33667014849562271, -7.496421113027818)	(4.2110244699885371, 1.2206644104299595)	(-6.7713237738473753, 3.819478598107569)	(-8.6632397754162103, -0.85897757277170061)	1.0	slash	1.41753
17	M	A	A	M	B	B	N	N	B	8	5	shapes	B	0	True	153	(2.5182362135852507, 3.1064357972512315)	(5.4454810755200409, -5.3089623311021352)	(-7.5236913951359101, 8.0664231584530555)	(-5.3784282120898768, -5.659662636549303)	1.0	z	1.44705
18	N	A	N	M					N	4	0	shapes	N	0	True	153	(8.4989593170053972, 5.0881810278509612)	(3.5023760816519101, -6.5382231532559132)	(-5.6677537865289214, 2.8189589894461395)	(-2.4695083710035455, -4.7612933835584865)	1.0	z	1.47861
19	M	A	N	N					A	4	2	shapes	N	0	False	153	(1.0153483962868712, -3.2131652078985837)	(8.2372644029360416, 8.0146786894520261)	(-5.1593976252541989, -4.8722136748223468)	(-4.3057800795485299, 7.0843031458315835)	1.0	slash	1.16844
20	M	A	N	N					N	4	3	shapes	N	0	True	153	(4.4199170739959541, 5.3336786158193572)	(-2.4841236500690886, 3.409543329672621)	(-4.7722504893213396, -8.304452258197486)	(6.673776797923221, -2.8807236314163047)	1.0	slash	1.43998
21	N	A	M	M	A	N	B	B	M	8	0	shapes	N	0	False	153	(-6.0265654939671451, 5.8084538310393441)	(-0.017076869314438525, 8.2532765528409371)	(5.3119635485344716, -3.1240735487361837)	(0.3431348853868581, -1.4118607323478338)	1.0	z	1.25137
22	N	B	N	M	B	M	A	A	A	8	0	shapes	N	0	False	153	(-2.3397915737692907, 2.1553980050077133)	(-5.2833939658333566, 7.0585794361683298)	(3.6961978257720531, -2.9474663399130572)	(-5.0362509815432066, -6.6686132642440334)	1.0	slash	1.29152
23	N	B	M	N					B	4	1	shapes	B	0	True	153	(4.4847827583526225, -8.0416312997077615)	(-4.6812520535480306, 3.6550178319159823)	(-2.3138734018450942, -7.8608659262504235)	(1.6214487277208196, 7.2962756029453288)	1.0	z	0.99255
24	M	A	M	N					M	4	0	shapes	M	0	True	153	(4.2548002578428967, -8.0583988527494377)	(-0.7682947412053176, 6.6200812803026938)	(3.1961444181411736, 5.0941618746683517)	(-4.222852896000898, -4.8646305834630335)	1.0	z	1.35689
25	M	A	N	B					A	4	3	shapes	B	0	False	153	(-0.70879074500082773, 1.714578921995626)	(-1.7924571492972907, -6.2446050787922971)	(7.0692548526677452, 0.77016855839383425)	(6.8015438020104249, -5.3695619299287358)	1.0	z	1.3883
26	N	A	M	M	B	A	N	B	M	8	2	shapes	M	0	True	153	(6.0270651228199394, 3.150307600695033)	(0.82985588414889122, -5.7523457186538236)	(-7.8081981216347636, 1.5346848456674032)	(-1.7202309038608217, 4.1165031228112081)	1.0	z	1.1876
27	N	B	A	N	M	M	B	A	M	8	1	shapes	B	0	False	153	(-5.3252857344284461, -4.2904830630816804)	(0.3481939162364931, 2.7006777124197363)	(-7.3115429575659991, 6.5569526126372537)	(5.7800984573711212, 4.5832370516451046)	1.0	slash	1.3118
28	N	B	N	A					M	4	3	shapes	A	0	False	153	(-8.220355461075501, -7.4397487306413952)	(-7.7889349317889005, 4.2875141699504464)	(6.5161887562567617, -1.131721378588308)	(4.7036762197350122, 6.900641991566804)	1.0	slash	1.49074
29	N	A	A	N	B	B	M	M	N	8	0	shapes	N	0	True	153	(4.4782758868403238, 7.136643103444344)	(3.1554153863828365, -4.7300799784299699)	(-6.8330725388855509, -3.584970081008005)	(-5.2235856176187383, 3.8980731514758045)	1.0	z	1.06712
30	N	B	B	A	M	A	N	M	N	8	7	shapes	M	0	False	153	(0.28146955914099259, 3.644770632528191)	(-6.7991717394412525, -1.52248537740891)	(7.4504351096079766, 1.7070770409670786)	(0.6653239802742803, -5.4380863390353724)	1.0	slash	1.77601
31	N	B	M	A					A	4	3	shapes	A	0	True	153	(-1.9921870559399188, -8.2266882088089002)	(-1.1508001464471871, 2.1206353830547737)	(3.5137730559374667, 7.7898384501279807)	(7.692891163567225, -3.4033254510900237)	1.0	z	1.31774
32	N	A	N	M	B	B	M	A	B	8	2	shapes	N	0	False	153	(-6.6794091028248506, -7.1697339346169366)	(6.5733875315435473, -5.8520514521464086)	(-0.52211408766057055, 0.11796990259654372)	(3.1539188471267021, -1.7551046129527679)	1.0	slash	1.17094
1	N	A	N	B					B	4	0	shapes	N	1	False	153	(1.499625877568457, 2.6313862616359316)	(2.9122488281929986, -7.4585500615394906)	(-8.1201217421900118, 3.87506767893667)	(-5.6051936653128811, -2.4404747244274345)	1.0	slash	1.36288
2	M	A	M	N	A	B	N	B	N	8	2	shapes	M	1	False	153	(8.5792343883362072, 1.9432640477813603)	(-1.8999219216229468, 8.2477389534865324)	(4.2815162550173014, -0.83723424148481662)	(-2.1534491110390048, -1.4626234591819829)	1.0	slash	1.41841
3	M	A	N	M	N	A	B	B	N	8	2	shapes	N	1	True	153	(-6.5241421822021275, 8.6429353670438651)	(0.60027044575259758, 7.931509499223651)	(6.5163827961754581, 8.7235847249416203)	(-6.4875106445810022, 1.362801623201781)	1.0	z	0.978597
4	N	B	A	B	N	M	A	M	A	8	2	shapes	A	1	True	153	(-0.80228190987486769, -0.5072698607739472)	(-0.086259630097194062, -6.0715597303394766)	(-0.95861296139742258, 5.0912818831416402)	(7.7173586770651781, -1.4114075485214119)	1.0	z	1.15976
5	M	B	N	A					N	4	2	shapes	N	1	True	153	(4.0859330660292734, 3.7851679607350963)	(0.39604743184587576, -1.9752114940132071)	(-4.4550669069349071, -3.2140826309888446)	(-2.2411871616657493, 7.7719111779209697)	1.0	z	1.06626
6	N	B	N	B					M	4	2	shapes	N	1	False	153	(6.5170866052535974, 1.1320199066191101)	(-7.576997954804745, 6.0226019445518695)	(-0.50669202601620356, -8.4474140644829756)	(5.6161607845904875, -8.1384149711778662)	1.0	slash	1.42685
7	N	A	B	B	M	N	A	M	M	8	3	shapes	B	1	False	153	(-7.0089546646115091, -7.7226371539768586)	(0.89052499942402719, 5.965317512582395)	(7.5545132182543355, 1.4596758633130467)	(-3.5125344774968399, 3.0230703496907445)	1.0	slash	1.34267
8	N	B	M	M					N	4	0	shapes	N	1	True	153	(-0.89700597999629217, 5.9362146128327584)	(-1.3897487588866415, -1.3061723006708856)	(6.6965373182543111, 4.869290313025548)	(2.6800771319360646, -4.8905902384137168)	1.0	slash	1.24796
9	M	B	M	N					B	4	0	shapes	M	1	False	153	(-2.4644797429005649, -7.3455665823823999)	(-0.04021894922729885, 0.96368513731718153)	(0.033666781229459986, 8.4337588638793051)	(6.9821091746998132, -3.1294514298382179)	1.0	slash	1.37747
10	M	B	N	M					A	4	2	shapes	N	1	False	153	(1.480132925806064, -7.1835189472462337)	(6.0521892441242269, 8.1207961764784962)	(-6.957335541001874, -2.5763285875924984)	(-1.2558584253578262, 3.3811459492182028)	1.0	z	1.26133
11	M	B	A	B					M	4	0	shapes	M	1	True	153	(-8.2844394330382798, 0.22625891196670267)	(-1.8382792986042444, -1.8943548675343811)	(7.2414792189604658, -2.2270219838602179)	(1.116906990024189, 4.1905420741211472)	1.0	z	1.08151
12	M	B	M	N	A	B	A	N	N	8	4	shapes	A	1	False	153	(8.0289374841653114, -4.3069356290306349)	(-2.2087888793868755, -4.7392546611202109)	(-0.9164974961146779, 3.4533305892183321)	(1.6697929781255265, -7.1615035788218675)	1.0	slash	1.51069
13	N	A	B	M	A	N	M	B	N	8	7	shapes	B	1	False	153	(5.5463089480374084, -1.0048840015166647)	(-7.1469323384148975, 6.7316563885462894)	(-4.4891572703859479, -0.85822099993369516)	(-7.0093705355060507, -5.5804325982054976)	1.0	slash	1.2429
14	N	A	B	M					B	4	0	shapes	N	1	False	153	(7.1983260944922236, -5.4173487868791295)	(-8.7484088363676094, 6.8705554534529636)	(1.9583574741788521, 2.5586262480772692)	(-1.8993349530548622, -5.9254451380070723)	1.0	slash	1.21795
15	M	A	A	M	B	N	N	B	N	8	0	shapes	M	1	False	153	(1.5993183649157103, -7.4294255968127771)	(-8.6450053076077165, 5.2191614226727694)	(-8.2850218664364146, -3.5512639206256003)	(6.7492855462824455, 8.1829602964172992)	1.0	slash	1.41601
16	M	A	A	N	B	B	M	N	N	8	3	shapes	N	1	True	153	(6.3393755310552997, -3.9007057077005305)	(0.89694808856190456, -6.5688377559378575)	(-3.2466028935843614, 2.5208386635077815)	(-7.0329773880635607, -3.6105367153629109)	1.0	z	0.983626
17	N	B	N	M	M	A	B	A	A	8	5	shapes	A	1	True	153	(-3.5486346366550574, -0.34415156442351247)	(8.6801364303616566, 4.2406878709254077)	(3.8027947639931892, -4.1849323000240934)	(0.47491061446369365, -0.94175800366056173)	1.0	z	1.2538
18	N	A	A	B	M	M	B	N	M	8	5	shapes	M	1	True	153	(3.6952741569795169, 5.8157003259079687)	(-4.2474797181639063, 4.1269165804705779)	(-3.9621742501176227, -4.0491523889979675)	(5.7767456273640949, 1.598997475262987)	1.0	z	1.2684
19	N	B	M	B	N	M	A	A	N	8	4	shapes	N	1	True	153	(-5.6786851036859032, 5.3169957377375017)	(4.7379473638896989, -0.59771831499718076)	(2.1386505359908323, 7.1553204160668074)	(-7.2842624044199873, -2.3944944422067023)	1.0	slash	1.55439
20	M	B	M	B					M	4	0	shapes	M	1	True	153	(-3.9464073596339624, -0.73490326744231638)	(-1.9577978952730053, 4.7872871347679755)	(5.6985258385420074, 1.884820601369368)	(3.1173285012658596, -5.2052429786241277)	1.0	z	1.01165
21	N	A	N	A					N	4	2	shapes	N	1	True	153	(-0.11841724041639701, 1.8520690270215177)	(5.8034797097858561, 7.563401363830959)	(-6.569192000224108, -3.7104097977653572)	(5.1464969736951094, -4.7275808203137899)	1.0	z	1.34579
22	M	B	M	A					M	4	0	shapes	M	1	True	153	(-2.10116201083608, 7.3211666726950142)	(-0.60016981777564737, -7.6519378877283657)	(2.7867592060287869, 5.178005507195742)	(3.6983380775750305, -3.6130076319817022)	1.0	z	1.17267
23	M	A	M	N	B	N	B	A	A	8	4	shapes	B	1	False	153	(1.8043275826546257, -8.1772848204766913)	(-4.8545632692222913, -6.6969207583186918)	(-8.561965669281479, 8.3916070689171924)	(6.1378177460014367, -6.8503767830690894)	1.0	z	1.33231
24	M	A	A	M					M	4	0	shapes	M	1	True	153	(-2.3693362720001918, 6.4282317066200498)	(2.1377671607038753, 0.80368124798666329)	(7.6467358299347552, -1.5780525744921947)	(-3.7377140696763762, -4.6570562997516207)	1.0	z	0.969939
25	M	B	A	M	B	N	N	A	A	8	0	shapes	M	1	False	153	(-0.37062984839881707, 1.3751354296741987)	(8.6624483972064681, -4.8225255751223095)	(-6.9636425974798151, 4.2085597240812564)	(-1.4362559553363798, -4.1828879966773869)	1.0	slash	1.24376
26	N	A	A	M	B	B	M	N	B	8	5	shapes	B	1	True	153	(7.5466570225152338, 3.1539736045084101)	(0.24410269776201865, 1.3459759189896072)	(0.87380696222115972, -6.5310191076574604)	(-1.8628914293753569, -2.2007859716832492)	1.0	z	1.31526
27	N	A	N	A					N	4	3	shapes	A	1	False	153	(2.4597799432240421, -4.7081301729237222)	(1.8449957400675707, 6.3431686434450256)	(-6.4175925653596346, -4.739848244171851)	(-6.796586415492488, 5.2738066625385791)	1.0	slash	1.12742
28	M	A	A	B					A	4	2	shapes	A	1	True	153	(-0.51951512434757063, -3.2008390167646805)	(3.5243925712595452, -5.0070017923581513)	(-3.4690891061351925, 4.4317374716777298)	(0.31900888189681176, 2.3027586617836153)	1.0	z	1.09214
29	M	A	B	B	M	A	N	N	B	8	4	shapes	M	1	False	153	(2.356977575761519, 5.6804020069812893)	(3.5615333031053069, -2.8694341908908587)	(-4.3547260472240286, -0.053722665340771414)	(1.368335469306615, -8.3026232963602808)	1.0	slash	1.30868
30	M	B	N	M	A	A	B	N	N	8	2	shapes	N	1	True	153	(3.9086159186919733, 2.398465394633515)	(-0.25812184674119898, -8.1362677557977872)	(-5.6767227399352054, -4.3706233070455296)	(6.5092309681482838, -8.1076739009768719)	1.0	z	1.54373
31	M	B	M	B					N	4	2	shapes	M	1	False	153	(-3.7790820702468313, 4.9307920189934009)	(-2.2336952434623223, -5.2603004873937405)	(6.1478260199668231, 0.50599029776248372)	(2.035864401402117, -0.35709907128040008)	1.0	slash	1.5395
32	N	A	M	A					M	4	0	shapes	N	1	False	153	(4.8873628425198881, 5.8589734295752116)	(8.0785668352051623, -1.0652948577433854)	(-6.1075857274913199, -4.2965774091412401)	(-7.176529747819834, 4.1481089452906552)	1.0	slash	1.33498
1	M	B	M	A	B	A	N	N	N	8	6	shapes	N	2	True	153	(-2.0721046234378342, -7.8648904147490502)	(1.3942684879524716, -4.4899211224469022)	(7.0109464205197511, -5.7953000321891439)	(7.5922955019519947, 8.678198406661302)	1.0	slash	1.36658
2	N	B	M	N					N	4	0	shapes	N	2	True	153	(-5.4118056710745019, -1.5585706719165211)	(2.4515884995924235, -2.1527016916682422)	(2.7924470061113151, 3.7138356959845247)	(-4.2356637478413424, 7.1184835428082138)	1.0	z	1.34191
3	N	B	B	A					N	4	0	shapes	N	2	True	153	(-1.4533907627516696, -1.5683589470881492)	(5.1876007140607054, 8.144587088643835)	(2.9399888072337248, -3.5711083844364877)	(-6.4845428547369215, 2.6384920915962802)	1.0	z	1.17768
4	M	B	M	N					N	4	1	shapes	B	2	False	153	(2.867548257208151, 1.718099468527571)	(5.2842868189942127, -1.6643205072903742)	(-3.2594577961419366, 5.3756639947978364)	(-7.0946378164644539, -8.7478693907976393)	1.0	slash	1.31142
5	N	A	N	B					A	4	1	shapes	A	2	True	153	(-0.19422884148569608, 7.5590840531683128)	(-3.7618639208885503, -8.5543439387796738)	(6.2765489144745885, 7.7049349826749243)	(6.5368322323143886, -4.9287796768097012)	1.0	z	1.16304
6	M	B	N	B					N	4	0	shapes	M	2	False	153	(1.6033600724084263, -3.2054279459487942)	(-8.734701063063067, -6.5908721133471895)	(5.2292574742642142, 4.2275196562131043)	(-2.2334944936609098, 1.4641290594039624)	1.0	slash	1.47717
7	N	A	M	B					M	4	1	shapes	A	2	False	153	(1.1482401781048086, 2.5277192466396805)	(-5.2470238087714653, 0.65924461280061664)	(6.3241186908048252, -4.5891604487482054)	(-6.916872758597794, -6.4722033172498676)	1.0	slash	1.20891
8	M	B	N	N					N	4	1	shapes	B	2	False	153	(-1.8494852031544884, -5.8809301700791163)	(8.3368274169985987, -6.435753197308884)	(-7.7945540861128491, 3.0121276627639535)	(0.53612115057569554, 4.0648368284761585)	1.0	slash	1.22395
9	M	A	M	A					N	4	3	shapes	A	2	False	153	(1.2346090811969681, -8.3744530529328234)	(-4.2251842892603069, -1.3170724656787147)	(6.9754776405289185, 0.82877602025541464)	(-2.0350541743606341, 8.0908793070105105)	1.0	slash	1.2015
10	N	B	M	B	M	N	A	A	N	8	0	shapes	N	2	True	153	(-3.0976911813670931, 5.5636223339516153)	(-4.0493863801928658, 0.74972661603507973)	(-1.2512512460185627, -4.7996700638148688)	(1.018859527361359, 3.2933007979008515)	1.0	z	1.11514
11	N	B	M	B	M	N	A	A	A	8	6	shapes	A	2	True	153	(-1.6080400090538491, -7.0394555875529861)	(0.16180087020589795, 8.4960936575810955)	(-5.06306260313103, -2.4195132530732453)	(3.0956390214053418, -2.240988586034427)	1.0	z	1.38269
12	N	A	N	M					N	4	0	shapes	N	2	True	153	(4.833765549369117, 7.2571908228714719)	(-0.97252185750224207, -5.0147389455309828)	(-6.391605901165315, 3.5403489588333201)	(3.8390042072464681, -3.5927245316275087)	1.0	z	0.972406
13	N	A	A	N	B	B	M	M	M	8	3	shapes	N	2	False	153	(7.0265223984522986, -6.8291410056402535)	(-8.6568087341552413, -1.910210556224464)	(-0.93032739083970206, -8.6843423016070247)	(6.6711882941769787, 4.0548196119949491)	1.0	slash	1.31645
14	N	B	A	N					A	4	2	shapes	A	2	True	153	(-0.07542569607561056, 1.277503750718985)	(2.1198133809013573, -5.1323908550169985)	(5.7778211634191941, 3.5807415472016757)	(-4.4445925723539697, -8.0062159094048386)	1.0	z	1.15827
15	M	A	A	B	M	B	N	N	N	8	0	shapes	M	2	False	153	(1.5260944307165794, -0.29503551121310423)	(-8.5399569754122773, 5.1047989489606387)	(-1.8766042024348888, -2.5327562983402707)	(-2.451104408068316, 2.8260147529482129)	1.0	slash	1.24971
16	M	A	M	N	N	A	B	B	B	8	1	shapes	A	2	False	153	(-2.7702098733809226, 2.6191304629154573)	(-7.2757401532383694, 5.5969237262543103)	(5.3505264834657584, -5.8395314095858346)	(-7.3515097914173406, -0.066798291148286282)	1.0	z	1.26761
17	N	A	A	B					N	4	0	shapes	N	2	True	153	(8.1130303802154131, 6.7799447838327431)	(8.0759520050244546, -7.5686254221757299)	(-8.6508336658497242, 2.5991544400152851)	(-1.7755117421991153, -3.2345789354594867)	1.0	z	1.01456
18	N	A	B	B					M	4	2	shapes	B	2	False	153	(2.476794176332513, 1.5691940516350193)	(0.44917731992927301, -2.2103539810581978)	(-6.2778815209679424, -8.1321764573492725)	(-1.3084599518821864, 7.1568551828726452)	1.0	slash	1.33999
19	N	A	N	A					B	4	1	shapes	A	2	False	153	(-1.3610288769656105, -7.2819932081305456)	(2.4190023013533821, 3.5321371882860113)	(7.0503067508404484, -4.4145485242948981)	(-2.4643698399009342, 2.9554772578011654)	1.0	z	1.18579
20	M	A	A	N	M	B	N	B	M	8	4	shapes	M	2	True	153	(3.6816558155651791, -6.989645359473557)	(7.8462097800726873, 6.5380935969182286)	(-2.2774647858483315, -5.4761919522866034)	(-7.405588324722161, -7.2138381510165486)	1.0	z	1.45548
21	N	A	M	B	N	A	B	M	A	8	4	shapes	N	2	False	153	(-0.75369403804187929, -6.0722293930139086)	(-5.3948857199844253, 4.9882031704830272)	(-5.0725564705464734, -1.1798277708006228)	(1.2101240410702232, 0.84483357003141712)	1.0	z	1.32537
22	N	A	M	A	M	B	N	B	N	8	0	shapes	N	2	True	153	(7.0004747378345318, -3.6918220352569726)	(7.470960539789349, 7.95311475104468)	(-1.6439548761785989, -3.3660124068752371)	(-5.8038861719575099, -5.7364513141903206)	1.0	slash	1.50024
23	M	B	A	M	A	B	N	N	A	8	4	shapes	A	2	True	153	(3.8086344507126491, 2.9937679488485287)	(-0.85662833449252851, 1.9778714303386415)	(7.7586310463719101, -0.48539752804611425)	(-1.625622504412676, -5.5286793961525529)	1.0	z	1.1364
24	N	A	M	N	A	B	M	B	M	8	2	shapes	M	2	True	153	(8.6386775614331519, 2.3733147499271396)	(-1.6703557068458217, -0.29319979354980141)	(7.0475532138488841, -4.0190493262682985)	(-8.1547999377654143, 7.7235878271242377)	1.0	z	2.33439
25	M	A	B	A	N	M	B	N	M	8	5	shapes	M	2	True	153	(5.9004017245455849, 4.7289905458927262)	(-2.0855233518384813, 8.4648239378536942)	(1.8158410457424115, 1.7192836085669345)	(-0.24428913685571452, -3.3436343687723369)	1.0	slash	1.366
26	N	A	M	M					A	4	0	shapes	N	2	False	153	(-0.84740174503858334, -5.8340895967895534)	(8.5794744422577907, 5.5089724257757897)	(-8.7478756503162529, 3.8383817464438224)	(3.3019798928172222, -2.666345587771124)	1.0	slash	1.55681
27	N	A	M	A					A	4	1	shapes	A	2	True	153	(-8.1608022512564649, -4.3389246814951852)	(4.9568329200717525, 3.5247843895169861)	(-0.80790079847082996, 4.9118723152470682)	(7.8501453324122075, -2.7660946728281557)	1.0	z	1.20456
28	M	B	M	A					A	4	3	shapes	A	2	True	153	(-1.8220654703227286, 6.0815775325696784)	(-3.3584479340157714, -7.0317281231979223)	(3.9411319273091401, 7.4158058913406606)	(3.0855914855953213, -7.4951246089166252)	1.0	z	1.26907
29	N	B	A	N	A	B	M	M	B	8	4	shapes	A	2	False	153	(-7.9216532875597894, -7.2552015932400451)	(4.4905999967135859, 0.60184434881981019)	(-4.2121234156312628, 8.283960181321028)	(4.9275694186508172, 7.3826249204303664)	1.0	z	1.2558
30	N	B	N	A	M	B	A	M	N	8	3	shapes	A	2	False	153	(7.3616546442044921, 4.8668010595860718)	(3.9439127340888387, -4.835036816923143)	(0.54178369618099964, 5.4920303203766814)	(8.3916684470131138, -0.76127428685734433)	1.0	slash	1.34133
31	N	B	M	B	M	A	N	A	B	8	5	shapes	A	2	False	153	(4.5574307335873758, 0.87231367783373948)	(7.2899800987839782, 4.5552443461333691)	(-1.4536827411136963, 1.522738682691239)	(3.483700422978659, -3.7661460726168086)	1.0	z	1.19558
32	M	A	A	B	N	N	M	B	M	8	7	shapes	B	2	False	153	(6.8121302854966501, 3.9348984222512833)	(6.2617485848242573, -2.8420551669471301)	(1.4227601373096377, -8.5479892979047012)	(-5.5437032883890449, 2.7316482985711197)	1.0	slash	2.4253
1	N	A	N	A					N	4	0	shapes	N	3	True	153	(4.6224296054888363, 5.4063549425197497)	(-5.5072125418307154, -3.119377559608977)	(-2.4678037021374744, 8.675792298324847)	(2.1751835715669312, -5.6809483098190556)	1.0	z	1.1801
2	N	A	N	B	A	B	M	M	A	8	2	shapes	N	3	False	153	(-6.908994653048909, 6.8420045454546834)	(8.0691335046303116, -4.6199288839533477)	(1.3857053919116904, -6.2669438963192494)	(-5.8387449283890298, 1.2887797632506821)	1.0	slash	1.6497
3	N	B	B	M	N	A	M	A	A	8	6	shapes	M	3	False	153	(-5.1009320149979356, -3.5218256013210834)	(3.8201031957325124, -1.7243696758706655)	(0.88716708545128675, 6.1534713288644749)	(-3.1291252922988546, -8.5310693913740536)	1.0	slash	1.61993
4	N	B	M	A	A	M	B	N	B	8	3	shapes	A	3	False	153	(-7.9798497982205934, 8.7024235505027363)	(-0.18053995001688428, -3.0447841160617743)	(-5.5794875839151041, 3.3919682595931935)	(3.5335448517287649, -0.56393331712262018)	1.0	z	1.73892
5	M	B	B	N					N	4	3	shapes	N	3	True	153	(7.9880340551541096, 6.9821134944109655)	(4.5169210571706628, -6.9061816927499491)	(-0.60190693433590425, 1.7376520296380118)	(-2.5354865762252494, -4.8921936394808601)	1.0	z	1.24657
6	N	B	B	A	M	A	N	M	B	8	2	shapes	B	3	True	153	(1.0942213849760378, -7.00865490711156)	(-8.151413215288736, 3.4821524416993199)	(-0.24418039567176919, 6.6885687234333773)	(-3.7988075081085819, -1.2906023405403273)	1.0	slash	2.07008
7	M	B	M	N	N	A	A	B	B	8	1	shapes	B	3	True	153	(3.5902604871656045, -4.8665203781612822)	(1.6489369781037642, -0.85897512886511684)	(-2.3510325933204106, 6.4213614087378783)	(-7.2747606897709733, 4.7031099201561375)	1.0	z	1.88163
8	N	B	M	A					B	4	2	shapes	M	3	False	153	(8.1360907654226793, -3.0330527655865405)	(1.3199748423136182, 6.0936523311664281)	(-8.3904991136743536, -3.2578194228709423)	(-6.7031434768006211, 5.565822389459866)	1.0	slash	1.25992
9	M	B	B	N	A	N	M	A	B	8	1	shapes	B	3	True	153	(-0.97128771707793149, 2.5525621089739072)	(-3.0503824267066344, -5.220542469331269)	(7.5816881839651558, 7.8136158712761912)	(-5.993289833325008, 6.4138161623441512)	1.0	z	1.4247
10	M	A	M	B					A	4	1	shapes	A	3	True	153	(3.497924802377419, 4.5605394597670976)	(4.3312566392383154, -7.1246264651904827)	(-5.0656616625661313, -1.3269198997088214)	(-7.2790246991189935, 3.3809953974821472)	1.0	z	1.30036
11	N	B	B	A	A	N	M	M	A	8	3	shapes	A	3	True	153	(0.28740930640789664, -7.8621706850221544)	(4.6268940715607254, -4.0070432014564927)	(3.489604764313178, 0.8269658377291691)	(5.5143042863069809, 8.6033969225481108)	1.0	z	1.21812
12	M	B	N	M	B	A	A	N	M	8	2	shapes	N	3	False	153	(-4.3225314519443234, 4.8663718074270506)	(5.7464563799174062, -8.697085369141865)	(-3.781994900375647, -3.9286381160823129)	(4.6896561627601159, 3.1597664557229574)	1.0	z	1.23197
13	N	B	N	M	B	M	A	A	B	8	5	shapes	M	3	False	153	(-3.3151978821892589, 2.1659653580845095)	(4.950238113742337, -0.55858013470330015)	(-8.4093349864537643, -5.2001998007984227)	(0.86575960897155468, -3.1702494233034137)	1.0	slash	1.4192
14	N	B	B	A					B	4	1	shapes	B	3	True	153	(-1.924577779969427, 1.8641615974041343)	(7.840586580950557, -2.0210834799530009)	(2.5733495796482142, 2.3887205296407128)	(-5.585224138197848, -0.2826692542822915)	1.0	slash	1.92102
15	M	A	B	N	M	N	A	B	B	8	7	shapes	B	3	True	153	(5.2581930422459866, -6.0913439771779281)	(1.7687991133023608, 8.2367272817796788)	(1.7825736087138786, 2.5920787815875261)	(-2.778333275693619, -3.4077611460017874)	1.0	z	1.40328
16	M	B	B	M	N	N	A	A	A	8	0	shapes	M	3	False	153	(-6.4984710117541953, 1.9929698171005619)	(-7.3789186733880978, -7.7759333707334006)	(0.78443576324259112, 0.46299229300405642)	(6.2006878341332072, 5.63313203139945)	1.0	slash	1.47001
17	M	B	M	B					M	4	0	shapes	M	3	True	153	(6.6910356601388621, 7.2877437977512649)	(-4.6933527884714152, -4.652885661785211)	(-0.44619180111229184, 2.7847153254521064)	(3.6158442488597675, -2.500398148976533)	1.0	z	1.21827
18	M	A	N	B					B	4	1	shapes	A	3	False	153	(0.3265981843013801, -6.0323236102906961)	(4.9821589796487018, 7.5503240651486223)	(-8.0967333038675982, 8.611381058112098)	(-6.9009502775467997, -0.73194704745116468)	1.0	slash	2.42134
19	N	A	A	B					N	4	1	shapes	A	3	False	153	(-5.2418032012773974, 6.2549282251131437)	(2.7866525414246581, -7.8449935646610145)	(4.6774868268920322, 7.3647215735250917)	(-1.3838820368509097, -3.656168694045518)	1.0	slash	1.57882
20	M	A	M	A	B	B	N	N	A	8	1	shapes	A	3	True	153	(-4.6095583066663597, 0.052446605413047465)	(3.8222535576104004, -3.2350398082965803)	(-0.32983052260376589, 4.5123361447525134)	(8.156850550461531, -6.3115101415796273)	1.0	z	1.55254
21	N	A	N	A					N	4	3	shapes	A	3	False	153	(-0.70703891972550181, 6.441806438197208)	(-1.1364730479122223, -7.0529456609788213)	(7.511327987911006, -7.7196442818252997)	(4.4973950608311739, 0.20949225599599508)	1.0	slash	1.38656
22	N	A	N	B					B	4	0	shapes	N	3	False	153	(1.3800111907816408, 1.2807978002378171)	(1.2918537518079152, -8.1341137740486111)	(-6.1316454473219366, 1.54270372102072)	(-8.4186462205676893, -3.5071701604652237)	1.0	slash	1.37178
23	M	A	A	N					A	4	0	shapes	M	3	False	153	(-6.5813903253249659, -8.3561403554461027)	(0.1258945200925119, -6.8788839556783108)	(1.1117605762795897, 2.1421224800391521)	(-6.9586033529232356, 8.4789976928567903)	1.0	slash	1.21916
24	M	A	M	B	A	B	N	N	A	8	1	shapes	A	3	True	153	(-1.3732732807172399, 2.6547686369484929)	(6.6237887090999177, -6.2480675389427338)	(0.23727772896319976, -5.7979124010015664)	(3.9377296693218629, 6.6538240237030415)	1.0	z	1.40525
25	N	A	A	M					A	4	2	shapes	A	3	True	153	(6.1966714745630025, 4.9715840358946988)	(-4.5876506771949073, -1.3422422944713093)	(-2.0589858106649004, 6.7964647293046525)	(7.7264515839319223, -7.9417232574085386)	1.0	z	1.20498
26	M	A	A	B	B	M	N	N	A	8	2	shapes	A	3	True	153	(-3.1921674090820478, 2.1561722580561113)	(5.7739308197480508, 0.52474590875586991)	(-7.0638541669442576, 0.64678026016133394)	(0.5047172345175408, -6.3085731335658188)	1.0	z	1.2485
27	M	B	B	N	M	N	A	A	N	8	7	shapes	A	3	False	153	(-3.2542140147593939, -5.693255684102458)	(-4.1365811235494121, 5.4254963844427984)	(8.1303201258953841, -4.5840348791838705)	(-1.919365124709703, 1.711197253092628)	1.0	slash	1.30278
28	M	A	N	A					A	4	2	shapes	N	3	False	153	(6.4388705263405868, 0.32078368404365776)	(-8.682114605532071, 3.4116627203851557)	(1.5006149900183772, -2.7665012161034825)	(-8.65499474644127, -3.7031495372462944)	1.0	slash	1.32341
29	M	B	B	N					N	4	2	shapes	B	3	False	153	(-3.4311788758399517, -3.7381392324519531)	(1.1044341540127025, 5.2982360592909803)	(3.7459503631178439, -2.1534336500856055)	(-5.6723175083709485, 4.3910951681940844)	1.0	slash	1.40146
30	N	A	A	B	M	M	N	B	M	8	3	shapes	B	3	False	153	(-6.9784912569666417, -0.52574113379629495)	(-0.16218161001665266, 2.6793928818831283)	(-2.6007710382204667, -3.5037264005760926)	(7.1110169704043713, 6.2632607087991534)	1.0	slash	1.31723
31	M	B	N	B					B	4	3	shapes	B	3	True	153	(7.9646689605193011, 4.6912682094936624)	(1.6581440778710679, -2.7812629443869206)	(-0.80150423507595736, 1.2036041522335594)	(-8.3985698206766308, -8.6316509853967407)	1.0	z	1.47628
32	N	A	B	A					A	4	3	shapes	A	3	True	153	(-0.92338222293957184, 2.6819585969407278)	(4.3606042005314212, -8.3962349644172107)	(-0.38797404902878263, -1.8453105636880522)	(0.46837372124030452, 6.5982965343550966)	1.0	z	1.41372
1	M	A	A	B	B	N	N	M	M	8	0	shapes	M	4	True	153	(6.8220090654348322, 5.5503648675677209)	(2.492190480804874, 3.4362000256647978)	(-2.0393883909792763, -0.94505537252771266)	(-4.1989386686858863, 5.0487141531909359)	1.0	z	1.37333
2	N	A	B	N					M	4	3	shapes	N	4	False	153	(4.6730975981396039, -7.8468066313815612)	(8.0618447042155843, 1.4480052293328161)	(-2.1689670681785573, -1.0573362725055881)	(-7.059045369151427, 4.463142954466349)	1.0	z	1.20281
3	M	B	A	A					M	4	1	shapes	B	4	False	153	(-2.9334800405870052, 5.7163068302665465)	(5.6599241143082004, 7.8625023914392749)	(6.4934519968658666, -7.5207096958137978)	(-6.3468219575916303, -7.8597863062139526)	1.0	slash	1.21305
4	M	A	A	M	B	N	B	N	B	8	4	shapes	B	4	True	153	(-4.5224997228966028, 4.9721461805785871)	(-4.7389749066378011, -7.3057151651740035)	(4.7726913178338606, -6.3058371431044717)	(8.5953574125080294, 0.65638236748117507)	1.0	slash	1.69841
5	M	B	M	N	A	N	A	B	B	8	0	shapes	M	4	False	153	(6.8846131488113986, -6.1053941905728406)	(2.469061284283212, 1.5231572108853584)	(2.5672437748059416, -7.1460265724851793)	(-8.3186209174138508, 5.9830522079464021)	1.0	slash	1.25692
6	N	A	B	A					A	4	1	shapes	A	4	True	153	(1.1138210893904841, -6.9896233220400417)	(8.6255081675661991, 4.6196402948543245)	(-6.5745284848226913, 4.5763503669958236)	(-6.5995196187372649, -2.7164190449450878)	1.0	z	1.19594
7	M	A	N	B					B	4	2	shapes	N	4	False	153	(3.9049777322030614, -8.1743110368301437)	(-2.2339633614931449, -3.3228775495914462)	(-2.4098596060726472, 5.5538312913043271)	(2.1669937630546681, 8.2647428010881114)	1.0	slash	1.21307
8	M	A	B	M					A	4	0	shapes	M	4	False	153	(-5.521477953163723, 6.2504951688295147)	(5.7181265128846555, 2.7351846195084448)	(-1.8539582244770427, -5.0510445636576993)	(8.2616995370815722, -3.8956742110741089)	1.0	slash	1.1489
9	N	B	N	M	M	B	A	A	A	8	3	shapes	M	4	False	153	(8.0090331658257554, -7.053337446439091)	(4.2090702495625045, 3.070389048762987)	(1.2555823632680116, 0.044900056375452024)	(-5.5988218455019574, -8.104494915652948)	1.0	z	1.77209
10	N	B	N	B					B	4	3	shapes	B	4	True	153	(-8.0118640931150864, 7.3712928410398852)	(4.7569634329456125, 0.83626766116101336)	(-5.9408558983568795, -7.4350229845426981)	(6.6652001546417594, -7.3621689289148673)	1.0	slash	1.26595
11	N	A	M	N					M	4	2	shapes	M	4	True	153	(-8.6326201880436262, -6.4903615743654619)	(4.6969698383150806, -3.4093989923513863)	(-8.3879284611414775, 6.2280779955622556)	(6.2387984481467527, 2.1150448133913695)	1.0	z	1.15782
12	N	A	M	B	M	A	N	B	B	8	3	shapes	B	4	True	153	(-6.6185886538482315, 3.3141721115174221)	(4.2482213790784318, -7.9537920233176571)	(7.384957327610838, -2.170918209989579)	(-3.7202849818665138, -6.5541678371973333)	1.0	z	1.40757
13	N	B	A	M					N	4	3	shapes	M	4	False	153	(-6.4734934437304332, -6.5806419496826116)	(7.5963973928870985, 4.7111246670977813)	(2.737214838772104, -3.5052081315663655)	(-3.15034079333204, 5.1916704229454336)	1.0	slash	1.28039
14	M	B	N	N					M	4	0	shapes	M	4	True	153	(7.1209873258409093, 0.8101929604837288)	(-7.783738166739198, 2.0985379762173828)	(-2.7397905965950846, -6.175569991127758)	(4.2048174459535392, -8.3234904123247233)	1.0	z	1.19832
15	M	A	N	B	N	M	B	A	M	8	3	shapes	B	4	False	153	(-0.86794410929168819, 0.20988690231928331)	(8.4368945478281034, 7.0304666701584075)	(1.0530182658347336, 7.1579254380424935)	(-4.6038616610130774, -1.4504109925235591)	1.0	slash	1.32246
16	N	A	N	B					N	4	2	shapes	N	4	True	153	(5.4253536539398119, -7.8499581964015661)	(0.78129506286835415, 7.4257298162806826)	(-3.058290268636318, 4.8641928377895098)	(-2.6615257513831061, -0.64603015962053867)	1.0	z	1.26804
17	N	A	B	N	A	M	B	M	A	8	7	shapes	M	4	False	153	(8.3039586105576113, 6.0243681435078074)	(-6.6262230200696788, 1.3721575985487089)	(-5.3587009623248196, -8.6808921729729072)	(-2.7370011589406689, -2.7680278867611827)	1.0	slash	1.32917
18	N	A	N	B					M	4	0	shapes	N	4	False	153	(6.556854773007915, -0.04411359748820054)	(-3.8998683007139769, 5.833138233557488)	(-2.4755620794537618, -6.3799571503779688)	(6.5552061322756057, 5.9027955570026585)	1.0	slash	1.42481
19	N	A	A	N					A	4	2	shapes	A	4	True	153	(1.3782345263556177, -5.3891260904235967)	(2.3569531270252924, 5.9471712836232342)	(-0.33770907959204344, 2.242832081542657)	(-3.3048755333488717, -7.48105896228207)	1.0	z	1.02646
20	M	B	B	A	N	M	N	A	A	8	3	shapes	A	4	True	153	(5.0935136284252245, -7.5213321321598086)	(2.2929525918234859, 5.5266512486291131)	(0.71129463759750777, -5.5756369795881771)	(-3.6829420065233105, -6.5771222590235574)	1.0	z	1.20591
21	M	A	A	N					N	4	3	shapes	N	4	True	153	(3.7306458241347666, 4.9081915614193239)	(6.0725989108400267, -4.9447928608662064)	(-4.9066729983553072, -0.087521470161750159)	(-7.3754273085216955, 6.8912161638727021)	1.0	slash	1.96577
22	N	A	B	N					M	4	2	shapes	B	4	False	153	(-4.8490344542271631, 4.2216569943081588)	(-2.051230617552922, -3.1400665943755897)	(2.3810266782745213, 7.768937781749333)	(6.1173358692956032, -2.3678830679361527)	1.0	slash	1.26926
23	N	B	M	A	N	B	A	M	B	8	5	shapes	B	4	True	153	(-3.8638636653372576, -0.40632670483789113)	(-4.9394137305165131, 8.499066277594153)	(7.3835925590232847, 7.9406186056998571)	(-0.50956879377021735, 3.9243510095968901)	1.0	z	1.54667
24	N	B	M	A	M	B	N	A	A	8	7	shapes	A	4	True	153	(0.8519606483040576, 8.5507038892366509)	(-0.37800909592836796, 2.5086118952034315)	(5.7097745898100634, 5.9952530347398056)	(-4.6360828229406446, 6.222778019926519)	1.0	z	2.01331
25	N	A	M	B	B	M	N	A	B	8	7	shapes	A	4	False	153	(-4.4716299906734109, 7.5926247359270604)	(0.67338400354923067, -2.9715171376995073)	(-3.3198621846158609, -5.2034569021705011)	(-8.3724174108882909, 2.3301906468037306)	1.0	slash	1.92849
26	M	A	B	B	A	N	N	M	B	8	3	shapes	B	4	True	153	(0.85910571631329802, 1.6144065690538554)	(3.3601795367025691, 6.8394593325134529)	(-2.6432358572325487, 6.7388156508318211)	(4.8019556009369762, -4.9427671011362104)	1.0	slash	2.08764
27	N	B	N	A	B	A	M	M	N	8	6	shapes	M	4	False	153	(7.443773377325229, 4.5215191413964853)	(-0.51908087551889537, 5.6803526155450115)	(-2.409788112177079, -7.2992084984827219)	(-5.2796436447440112, 5.1452676417478269)	1.0	slash	1.38318
28	N	B	B	A	N	M	M	A	A	8	7	shapes	A	4	True	153	(4.2517503007755604, -7.2974719800466543)	(-6.8881883058815632, -3.3221508961761694)	(-5.9325367401066238, -8.3723671637521342)	(0.93104920595121499, 1.2259739867828099)	1.0	z	1.38079
29	N	A	B	N	M	A	M	B	B	8	5	shapes	A	4	False	153	(3.801578034911719, -1.0831370483828611)	(-4.8271856741281063, -0.7676535499418824)	(3.5126484057729215, 4.3249299658563327)	(8.5547330150921645, -7.0313417645917884)	1.0	slash	1.55642
30	M	A	M	A					N	4	2	shapes	M	4	False	153	(-7.8895664914965566, 4.9272264569366548)	(2.2741816805193196, 0.71197799946508233)	(6.3450561396965739, -4.6397064834862354)	(-1.0810001244494094, -6.4759754827955813)	1.0	slash	1.44668
31	M	A	M	B					A	4	1	shapes	A	4	True	153	(1.5059877131871406, 8.6913592215097069)	(-3.9451264850313645, -1.5979376784304486)	(-5.3405623083433884, 4.5683680132244948)	(1.4656567578725532, -3.7770681026396575)	1.0	z	1.45449
32	N	A	M	B	B	M	N	A	N	8	4	shapes	B	4	False	153	(3.5276793132960051, -5.5117575234941905)	(7.6287472803379117, -5.0220054035531909)	(0.47529555878422336, 0.26458914130522437)	(-0.92705240250032972, 6.7425341472039282)	1.0	slash	1.26096
1	M	B	M	B					B	4	2	shapes	M	5	False	153	(8.0977077306195753, -7.1026288313689232)	(-5.885361451192578, -8.3410192390205626)	(-5.5353959339320404, 4.5974685223798755)	(7.318374256826111, 0.78428602322068386)	1.0	slash	1.1513
2	M	A	B	N	B	M	A	N	N	8	7	shapes	N	5	True	153	(-4.4394706266502801, 5.3837341890654695)	(0.082880621655508691, -8.4826894738051291)	(-4.9211236446780999, -1.3471291360746038)	(8.3549897070288601, 2.0695554347981258)	1.0	z	1.85044
3	N	A	M	A	N	B	M	B	B	8	7	shapes	B	5	True	153	(-1.5700414129922766, 4.1685303524102508)	(3.1399257449646125, 7.9215178238107882)	(8.6991026067412278, -7.5637069471115694)	(6.5892164775642481, 4.5887608356606879)	1.0	z	1.63396
4	M	A	M	N	N	B	B	A	A	8	7	shapes	A	5	True	153	(1.7741597922489802, 5.3626605266969136)	(-0.83992240554427511, -8.0785444244353215)	(-7.8847927759332306, 4.088146611746069)	(5.2477064596707059, -2.6804528488186827)	1.0	z	1.39717
5	N	A	M	A	N	M	B	B	A	8	5	shapes	M	5	False	153	(2.2329429064440749, 6.3017140548499313)	(-5.3821237774067718, -6.3900912512508601)	(4.9081068213686763, -3.6053792225754773)	(1.9350255431476882, -6.4608251455502295)	1.0	slash	1.24149
6	N	B	B	N					N	4	2	shapes	B	5	False	153	(8.2113708751302674, 0.21608289401287273)	(-2.8704346926059436, -3.8509756095824734)	(-7.319863893440365, 1.7885860349143812)	(0.72612334581694249, -1.5987029718337649)	1.0	slash	1.25073
7	N	B	N	A					A	4	1	shapes	B	5	False	153	(-4.334225836073176, 3.7521246641834747)	(4.6263431274613254, 4.1922126157057882)	(-0.94340695739250346, -3.057026397702451)	(3.3424550817058591, -2.1657520841890436)	1.0	z	1.41006
8	M	A	M	A	B	N	B	N	A	8	3	shapes	A	5	True	153	(0.89269086335020909, -3.9734407833679928)	(-6.7025007466567637, -2.9569105408415091)	(-8.263629449944693, 8.0467434450309021)	(0.6782346185437742, 6.7202359673801979)	1.0	slash	1.41898
9	N	A	A	N					B	4	2	shapes	A	5	False	153	(-0.17530088615894712, -0.43451202239380926)	(4.4074269337704237, -5.6553209505447892)	(-4.2213179892264279, 5.7705541390555766)	(5.9037218417498813, 4.1835834105109608)	1.0	slash	1.31169
10	N	A	A	N	B	B	M	M	M	8	4	shapes	B	5	False	153	(-5.7240884591503045, -3.1342734625527244)	(2.9542086605591145, -0.87013381988606842)	(4.6680507643440396, -6.9702973802532924)	(-6.5778044728089622, 5.1009956839311439)	1.0	slash	2.08511
11	M	A	M	B					M	4	2	shapes	M	5	True	153	(-7.4621278683322902, -1.6872393853879464)	(3.3730575763547481, 0.66353613054215721)	(0.96668106440804458, -5.3308161939465917)	(-3.8002092467110558, 2.550404850098392)	1.0	z	1.2748
12	M	B	A	A					N	4	1	shapes	B	5	False	153	(5.4420691945109407, 8.2405032912499614)	(-0.53987768821704307, 7.3737196132095804)	(-7.138579095345813, -3.5783316455639742)	(0.24011935901239667, -0.77580618862247785)	1.0	slash	1.13841
13	N	B	B	A	A	N	M	M	B	8	2	shapes	B	5	True	153	(4.7782981442074313, -6.4993921238974419)	(8.5568660802973575, -4.4658336563431673)	(6.0577220756048664, 5.4748158143524339)	(-4.7516743191076944, 7.035302321167574)	1.0	z	1.75268
14	N	B	A	B	N	M	A	M	N	8	0	shapes	N	5	True	153	(4.6963912740802645, 4.5460014982291632)	(0.35719217475977239, 0.41563475617532042)	(3.6147782909343338, -6.6893440655277967)	(-4.0283778551740523, -8.4063009284714649)	1.0	slash	1.212
15	N	B	A	B	A	N	M	M	A	8	2	shapes	A	5	True	153	(2.8301900397236004, -2.6963463287797884)	(-7.5319580391115171, 0.11054455198457802)	(-8.3478509404937107, -5.3880188068241583)	(-3.5760462038934193, -3.7323125178923586)	1.0	slash	1.84566
16	M	A	B	N					M	4	0	shapes	M	5	True	153	(-5.3508488561502485, -0.25285425455229493)	(6.0973840624244051, 4.5560979877644829)	(8.5771801342257987, -0.29940285057714711)	(-2.8980808630660277, 5.5283832420753232)	1.0	z	1.53861
17	N	A	B	N	A	M	M	B	B	8	4	shapes	A	5	False	153	(-5.5262492787305675, -1.2255691606694699)	(1.6991770637228498, 4.2465064621759652)	(8.6857333274482542, -0.59412356009058875)	(-1.1929037282723547, -3.5372168785942124)	1.0	z	3.4104
18	M	B	N	A					N	4	2	shapes	N	5	True	153	(-1.0267459375470338, -6.4364832950596531)	(-0.54787038106589314, 2.2537561679468201)	(3.8119662337812947, 1.8933638429427102)	(5.2768401642947449, -4.0254616412282056)	1.0	z	1.37596
19	M	B	M	A					A	4	1	shapes	B	5	False	153	(3.9705996557125438, 4.2443807459447171)	(-2.1102613924462661, 3.3584603153741739)	(-2.4388263899197105, -1.2496608092235002)	(1.3531987087885522, -3.80244318793223)	1.0	z	1.73547
20	M	A	M	A	N	N	B	B	M	8	4	shapes	N	5	False	153	(-4.794168716552667, -8.1057577697296832)	(8.1795589726506073, 2.8349707711103793)	(0.84865555372378765, 2.1431452500972483)	(-5.8293979290753564, -2.382259473053324)	1.0	slash	1.30083
21	N	B	B	M	A	A	M	N	B	8	4	shapes	A	5	False	153	(4.3252006982899101, -7.5954493002800305)	(7.0149534311762451, 5.9242015398896584)	(-1.9594684927120438, -8.1811567957559213)	(3.8852195309108115, 2.497467231507807)	1.0	slash	1.60479
22	M	B	B	A					A	4	3	shapes	A	5	True	153	(2.0556216719515294, -4.9036464125566228)	(-4.9484049200666878, 2.0578114851830023)	(-1.5044542268777317, -8.2207364719970375)	(7.946814750757607, 2.433771813466425)	1.0	slash	1.83817
23	M	B	B	M					M	4	3	shapes	M	5	True	153	(6.7433035014958786, -4.1676587627595314)	(-6.9423226242615703, 6.4636640005238188)	(5.9854967329586, 7.3151808377949372)	(-1.5899186500975295, -2.1671014514346556)	1.0	z	1.25364
24	N	B	M	A	B	M	N	A	M	8	3	shapes	A	5	False	153	(1.3168719120855403, -6.9942451929092924)	(5.605720472973303, -6.0397774049833846)	(-5.8022693804919845, 0.45676654301146691)	(-8.1163460518741086, 4.5474042986044925)	1.0	slash	1.15125
25	N	B	M	A					A	4	3	shapes	A	5	True	153	(1.9821853942361791, -1.0251022893811808)	(-5.8652540901847043, 6.3375417057571557)	(-7.7743383309580576, -7.4703598668335172)	(3.5605827836840707, 3.3842365740715099)	1.0	z	1.17917
26	N	A	A	M					B	4	3	shapes	M	5	False	153	(-2.1081629438728493, 5.6781884007249719)	(-5.4950481278138508, -2.5617325864686267)	(4.5917348899686559, 4.7453609992996846)	(0.59747212897754665, -2.8367092774376665)	1.0	slash	1.29704
27	N	A	M	M	A	N	B	B	B	8	6	shapes	B	5	True	153	(-4.1800981604477885, 5.5517335795406169)	(1.4995984919379222, 6.2483493576694062)	(6.5585029261384129, 5.5551627028786665)	(7.7915362363747214, -6.1605694546148886)	1.0	z	1.55032
28	M	B	A	A					M	4	3	shapes	A	5	False	153	(5.0356905917602823, -3.3404050595015011)	(2.3068556131476328, 2.7123272379830912)	(-2.5615782019264124, -6.6205826498087763)	(-8.0940878427167124, 8.7439614358488491)	1.0	slash	1.23437
29	N	A	M	N	A	M	B	B	A	8	2	shapes	M	5	False	153	(-6.0472963541402054, 0.61878341878707843)	(6.6512156247487155, 4.6812429936171362)	(4.0312936872896525, -1.2305191225650258)	(-0.47725904141717557, -5.2050992123812909)	1.0	slash	1.36347
30	N	B	N	A	B	M	M	A	M	8	0	shapes	N	5	False	153	(7.8252517466981857, 0.16871282878935645)	(3.1938562932484178, 6.4357137049361057)	(-1.1580473082090572, -5.1134703347791497)	(-1.9736121655798122, 5.2700932419796995)	1.0	z	1.25954
31	M	A	B	B					B	4	3	shapes	B	5	True	153	(-0.70175572421972809, -4.1449997930488909)	(-1.0027347106227067, 8.5302891795168563)	(0.62593522811265601, 0.068946358163509913)	(4.6186662785933557, -5.3825770896203133)	1.0	slash	1.69452
32	M	B	A	A					A	4	3	shapes	A	5	True	153	(0.65708524671102886, -0.38815417881490255)	(-7.371975904622829, 7.4328922805813349)	(-8.0220634709273089, -8.4795409027882798)	(5.9914552520661868, 8.4746573108333827)	1.0	z	1.37302
1	N	B	N	M	A	M	A	B	M	8	3	shapes	M	6	True	153	(-2.5584333335746576, 2.1096005115944347)	(6.3963537697493411, -1.8399344467175593)	(7.4724383456293744, 4.2439111950337853)	(-6.2925416368346436, -6.0031054679742795)	1.0	z	1.2801
2	M	B	A	N	N	A	B	M	N	8	5	shapes	A	6	False	153	(5.5993804711496118, 1.2522370192967021)	(-1.9689734421543079, -5.1338410981436553)	(6.2312224789244421, -3.1264441849658571)	(-6.2607984802944392, 7.6563579230072065)	1.0	slash	1.19427
3	M	A	N	B	A	B	N	M	M	8	7	shapes	M	6	True	153	(-0.90819693646689093, 1.1950585554399193)	(6.8556277369605496, -0.90455357559482419)	(4.1380857214696611, 7.7977780792541509)	(-2.7834110591215033, -7.2188715860376966)	1.0	z	1.25898
4	M	A	N	N	A	M	B	B	B	8	6	shapes	B	6	True	153	(4.0175687831665972, 4.6323639295731329)	(1.7299054911743479, -6.4622489587288943)	(-0.31371021421508871, 8.5314647657277156)	(8.2750724648355281, 3.110881988544973)	1.0	slash	1.61777
5	N	A	M	N					B	4	3	shapes	N	6	False	153	(-3.8136027713499283, 0.80453229643551794)	(4.6978955712306014, -3.4698042592047145)	(-1.808684857113132, -8.6141901719758369)	(6.8283758414831421, 7.9362119073922557)	1.0	slash	1.1847
6	N	B	A	M					N	4	0	shapes	N	6	True	153	(8.4976521978510853, 1.2069099403504122)	(-1.8725298195326605, -2.692731781225886)	(-5.8152227027088141, 0.71101228081158574)	(0.91551468187479301, -8.7357093091096782)	1.0	z	1.03654
7	M	B	N	A	M	A	B	N	M	8	1	shapes	B	6	False	153	(-4.5585181679868132, 2.869546804876757)	(3.5261068500213888, 5.3083922720226813)	(-2.635213841686217, -4.2768677036623144)	(3.5754913113412545, -4.5993113020690926)	1.0	slash	1.22611
8	N	B	M	B					A	4	3	shapes	B	6	False	153	(-4.4844493414029936, -3.8796143313563007)	(1.419905320671635, 3.1578884980563142)	(-5.3525319903172512, 3.2860356023876633)	(0.061799860451015931, -2.9314328566655874)	1.0	z	1.42513
9	N	A	N	A	B	B	M	M	A	8	6	shapes	M	6	False	153	(-4.9269337692330177, 0.80289766812051511)	(4.9087966267982566, 0.0097883167623109557)	(7.9392864398190177, -4.6985439097379365)	(-2.5258028249458135, -6.9612241608702323)	1.0	slash	1.24677
10	N	A	A	B					A	4	2	shapes	A	6	True	153	(-2.6100501490173738, 2.9287041621900034)	(2.9782601137925742, -4.9340053670571384)	(-7.9384209201860028, -8.2979100528793062)	(5.6045414301415875, 3.5610131831384084)	1.0	z	1.27102
11	M	B	A	A					M	4	0	shapes	M	6	True	153	(8.0519025454018234, 7.033918782932389)	(-1.433245554687951, -4.0495353569240491)	(-7.1094072553416101, 3.4701451762705187)	(5.412286479285326, -4.7697422095523034)	1.0	z	1.07984
12	N	B	N	B	A	M	M	A	N	8	6	shapes	M	6	False	153	(2.9021103097832004, 5.0725005113569264)	(-8.421553508159052, 1.6889905134713512)	(-4.692305156613279, 5.4626705579883179)	(4.0775440545828712, -2.3749125803721611)	1.0	slash	1.33756
13	N	A	A	N					A	4	2	shapes	A	6	True	153	(-5.0788011587055237, -0.5370307213939487)	(2.1320809802159069, 7.2477742836937917)	(-7.6464008238651147, 6.9192921619794436)	(1.5615831024723423, -1.8898358080405648)	1.0	z	1.11998
14	M	B	N	N					A	4	2	shapes	N	6	False	153	(8.3649039682223645, -5.7309998582373645)	(5.5814097159142477, 5.0693544923483227)	(-3.0158951393400573, -5.5349085199105605)	(-7.5629594069454402, 5.0236993856074914)	1.0	slash	1.16803
15	M	B	N	A					A	4	0	shapes	M	6	False	153	(0.3627352344552186, 5.9019391952531475)	(6.3718995630523576, -7.8728905937009008)	(-5.2886224611623032, -2.0982120751583784)	(-3.7186839483967598, 1.6442071267888636)	1.0	slash	1.14765
16	M	B	N	B	N	A	A	M	A	8	5	shapes	A	6	True	153	(-5.6326777061167155, -4.4872568130073303)	(-1.5871251516508984, 2.1949959126368093)	(5.6372115428898013, -6.7106941558304882)	(6.4997109781632609, 1.6525808736048369)	1.0	z	1.28412
17	M	B	B	A	M	A	N	N	M	8	4	shapes	M	6	True	153	(-6.3498072904086591, -3.7012660383064402)	(5.1369901601562873, 8.7050028706918781)	(2.9453890643147105, -1.9767382018885193)	(-7.9867474394815661, 6.4107132566924712)	1.0	z	1.18834
18	N	A	A	B					A	4	1	shapes	A	6	True	153	(2.7013362436779076, -4.0134892482578595)	(-2.1066335283211641, -6.3540089996953029)	(-8.6234532226820253, 5.3817072628933129)	(8.2346739240650493, 7.2433004286816729)	1.0	z	1.27141
19	M	A	N	B	B	A	N	M	B	8	4	shapes	B	6	True	153	(0.71690602945725601, 2.2424922344773606)	(-3.4786275901694967, 3.6750572467912885)	(-3.0397992604308852, -6.0968537675866914)	(7.6350972875912682, 7.1546019495719531)	1.0	slash	1.83566
20	M	B	B	A	N	A	M	N	M	8	5	shapes	A	6	False	153	(0.992756927448319, 1.8650184243416206)	(8.2393279231433745, 2.2941824530333665)	(7.0475075817815291, -7.8837449735555465)	(-4.4380601626113831, -0.68397611191018726)	1.0	slash	1.36515
21	M	A	M	B					B	4	2	shapes	M	6	False	153	(6.2295075226259105, 1.2631242705777872)	(-7.3602628174696498, 3.2051817966423748)	(3.3163163492301333, -8.1726020041929424)	(-8.5769269733513376, -2.9880309410526236)	1.0	slash	1.30811
22	N	A	A	M	M	B	N	B	A	8	3	shapes	M	6	False	153	(-4.0963055347333261, 4.9000400777385718)	(8.5558056340387552, -1.325828546327414)	(2.3907442301658932, -0.70653141065704617)	(-8.6662911507502454, -3.2021897806153863)	1.0	slash	1.24969
23	M	B	M	N					N	4	3	shapes	N	6	True	153	(7.5830384554926411, 8.5676391657895401)	(-6.5988249162104591, 2.3097975797099863)	(3.0142895467759896, -5.0629564495575483)	(-4.8766716081934565, -5.399086744987164)	1.0	z	1.03969
24	N	B	N	M					N	4	3	shapes	M	6	False	153	(2.6044844507772247, 5.4239423552676893)	(8.5822401620838917, -2.3315450914044948)	(-5.5600956869580145, -3.4289174249692058)	(-5.5726066777535035, 1.4669109443852069)	1.0	slash	1.18502
25	M	A	A	B	M	N	B	N	N	8	5	shapes	N	6	True	153	(-8.0131069435703637, 8.2681587155609293)	(-7.0417458014440424, -6.906977001979886)	(-2.0464030630192616, -0.29208185469490466)	(2.8641721661097446, 1.7059653007604147)	1.0	z	1.17262
26	N	A	N	A					B	4	1	shapes	A	6	False	153	(2.6102465356107523, -5.975663928946128)	(2.6754208808877031, 7.9338257137073604)	(-4.6436816147805509, 2.4094673693422664)	(-4.455093649244195, -4.7524940686574428)	1.0	slash	1.16431
27	N	B	A	A	M	N	B	M	A	8	2	shapes	A	6	True	153	(8.0625156449635469, 0.92647230993431506)	(-3.1980212461764888, 5.2899359125012015)	(1.5564742441027093, -2.8077415360060529)	(1.5326363325809655, 3.9887908422320617)	1.0	z	1.19037
28	N	A	A	N	M	B	M	B	A	8	3	shapes	N	6	False	153	(4.4730819911891064, 0.43054689740711716)	(-1.0031072224695041, -2.1828253723641113)	(-6.8814406210327892, -0.23905365775646636)	(3.209479807080923, -5.7552771706266341)	1.0	slash	1.32015
29	M	A	A	B					B	4	3	shapes	B	6	True	153	(-5.4212755831243902, -1.9059925578211407)	(8.4483746380484881, 4.0228765609165364)	(6.1412061837124341, -5.8057066438139708)	(-6.8190222047473448, 2.6724358917808111)	1.0	z	1.20121
30	M	B	N	B					N	4	2	shapes	N	6	True	153	(3.2186232039773142, 7.3895256641333553)	(6.8653199718965912, -3.5353378835205502)	(-3.3664989066508859, -8.2329856304197229)	(-8.7261062252949451, 5.4280555882028505)	1.0	z	0.986832
31	N	A	N	A	M	B	M	B	N	8	5	shapes	B	6	False	153	(5.5948735476042017, -0.087330454220918341)	(6.0030427556662893, -4.4431345478107227)	(-7.8098802399821512, 2.6655475821227306)	(-1.7925696077479687, -4.7972342782143418)	1.0	slash	1.17441
32	N	B	A	M					M	4	2	shapes	A	6	False	153	(-5.8584846441093816, -7.3078251523050728)	(-2.524841670493954, 2.6379350490908688)	(3.9717193268568209, -5.458455541776754)	(4.3590138123173219, 8.3006423372548035)	1.0	slash	1.41186
1	N	B	B	A	A	M	M	N	A	8	0	shapes	N	7	False	153	(-5.3423072678291001, 0.73245599748633161)	(4.0772386090056276, -6.6889659741968845)	(8.394458570965142, 8.5311694438718426)	(-8.6820966349676052, -6.215160550524379)	1.0	slash	1.3753
2	N	A	M	M					N	4	2	shapes	M	7	False	153	(6.5845118574747659, 7.4299129849180225)	(-5.6682299668886227, 5.5056251480077059)	(5.670564104987541, -3.2015415731979608)	(-2.7163168284054855, -2.4652039219497492)	1.0	slash	1.22725
3	M	A	B	B					B	4	3	shapes	B	7	True	153	(-3.2512228050954182, -5.7649156354670597)	(2.7086451053349734, 6.083637426534116)	(-1.8333978150644432, 0.33458691959932807)	(4.0087182458357837, -8.2376495124972582)	1.0	slash	1.45292
4	N	B	N	B					B	4	3	shapes	B	7	True	153	(4.8374750570455145, -7.6305859006747481)	(-1.0610835058071411, 6.2810648811000824)	(-1.5651125495868277, -7.0030937845074313)	(8.0847005979840958, 1.4980605829314655)	1.0	z	1.22832
5	M	B	B	N	M	A	N	A	A	8	5	shapes	A	7	True	153	(4.3309622652364013, 0.95688436104357066)	(-0.15340217337072559, 4.3149787803504651)	(3.1686056686458119, -4.3871983782606012)	(6.6821431803477314, -8.4467540261008143)	1.0	z	1.28074
6	N	B	A	N	A	M	B	M	A	8	2	shapes	A	7	True	153	(-8.2005228119131957, 4.9857425336760599)	(5.7265145769992856, 0.065932515931713453)	(2.1594870862971103, -5.8659211937852671)	(-0.64392934702576099, -2.0345704721218221)	1.0	z	1.24169
7	N	A	N	B	B	M	A	M	B	8	7	shapes	M	7	False	153	(0.374782351953451, 0.065766101253187159)	(-3.7109320477149668, 0.44801169653067952)	(5.7783342222502316, -3.0988930886564274)	(-4.2266740840253449, 7.0790628198089518)	1.0	slash	1.35532
8	M	A	M	A					A	4	3	shapes	A	7	True	153	(0.12563940375646609, -5.6699559173173766)	(-6.538221389076547, -5.5910276600952002)	(3.8729254239501323, 1.5772463078270089)	(-1.7175016296981873, 8.1990736362084888)	1.0	z	1.14906
9	N	A	M	B	N	B	M	A	N	8	0	shapes	N	7	True	153	(-7.8624478116130581, -2.4983183234888715)	(1.2133996008922594, -0.4187102320433862)	(7.7591667445476205, -8.3014631472721643)	(-5.3590150525047795, -6.5998949664866018)	1.0	z	1.15238
10	M	A	B	N					B	4	2	shapes	B	7	True	153	(-0.82706433909722055, -6.4187562306637771)	(3.2622771670341368, 5.7704382203598605)	(-3.3530190450424078, 6.1942850896118156)	(5.7007805488703447, -3.2566011346222563)	1.0	z	1.41013
11	M	A	B	M	A	N	B	N	N	8	5	shapes	N	7	True	153	(0.49067385703674304, 0.75075687537410829)	(-6.2298259864135002, 0.98453014523073001)	(2.2175893959736062, -7.0573454931394846)	(-4.492272898013506, -5.7895930099159454)	1.0	z	1.14633
12	N	B	A	M	M	A	N	B	N	8	6	shapes	N	7	True	153	(-2.069623003500312, 1.774370441107342)	(7.3683791131816001, -7.9357205253939229)	(4.2880347807210271, 7.7101663047436091)	(7.811092688051712, -3.2058482592916056)	1.0	slash	1.53386
13	M	A	N	N					N	4	2	shapes	N	7	True	153	(0.43781561143556935, 2.6199121081625929)	(5.1721910172416745, -4.8494527297618077)	(-6.814154611618906, 7.1521799404856434)	(-3.1406758349723232, -7.6448026230593218)	1.0	z	1.04348
14	M	B	M	N					N	4	2	shapes	M	7	False	153	(8.2075105967224822, 0.31595703962292987)	(7.8081676673672078, -5.9531130934451273)	(-2.2959710872442116, -4.2043725069147371)	(-0.61874481961483951, 6.7160408900704809)	1.0	slash	1.19475
15	N	A	N	B					B	4	2	shapes	N	7	False	153	(1.579895563493702, -8.2651913313438055)	(2.7356625059846031, 3.7019790467810552)	(-3.766010268251093, 6.1000247042351958)	(-7.0623784474975322, -0.77246917823716998)	1.0	slash	1.2048
16	M	A	N	N					N	4	2	shapes	N	7	True	153	(-4.0361815740294684, -1.4749887899735672)	(6.9256064848082985, -8.305589017227625)	(5.2593697778327435, 2.31092329949945)	(-1.1896111411830299, 2.4149676564553459)	1.0	z	1.13191
17	M	B	M	B					N	4	3	shapes	B	7	False	153	(7.856475510206959, -8.4784578276993567)	(-6.8431748544037463, -2.5335996861292145)	(1.7239448024050645, 8.2158360552479195)	(-2.0634103179656007, 4.5699005423310588)	1.0	slash	1.16959
18	M	B	M	A	A	N	B	N	M	8	0	shapes	M	7	True	153	(-1.4026117287826594, 2.529198824804535)	(-6.7744384680072747, -5.4345200350209364)	(5.4171036521193585, -4.8336132969830903)	(8.7219444481725894, 5.9430919808774565)	1.0	z	1.08328
19	N	B	N	A	M	A	M	B	N	8	6	shapes	M	7	False	153	(0.39601206718939608, 8.3480834154302528)	(4.4446734779024002, -4.4314888031847905)	(-8.3243447174192529, -8.7037607311928742)	(6.4816880119268703, 3.4928436613710723)	1.0	slash	1.10903
20	N	B	B	N	A	A	M	M	N	8	5	shapes	A	7	False	153	(8.4214995616321353, 8.6048543351595974)	(-1.7373449368388769, 4.8280152891286523)	(-6.8323026232608317, -3.7785711651368095)	(-8.0411267682688603, 0.90356674353638589)	1.0	slash	1.20029
21	N	B	A	B					A	4	0	shapes	N	7	False	153	(-7.3363351038855154, -6.7508987490074244)	(0.38907354647048997, 1.5392058717694699)	(-1.2103245160065317, 7.1812857031842192)	(6.9156671503970468, -8.3522704112872113)	1.0	slash	1.17792
22	N	A	B	B	A	N	M	M	B	8	6	shapes	M	7	False	153	(-8.513319344052535, -2.6529729233319426)	(-0.16541226491775873, -3.2990862213232788)	(-2.0761486106075022, 2.8334009220847332)	(2.0413472397763925, 5.5137705059607409)	1.0	slash	1.23968
23	M	B	M	A					A	4	1	shapes	B	7	False	153	(2.1266128822401651, -2.2752086006423111)	(-7.1741680156643888, 5.1820138493183787)	(-3.408032269667447, -5.7012283839418529)	(2.5026740704620067, 5.5048815308530674)	1.0	z	1.40601
24	N	A	B	N	A	B	M	M	M	8	7	shapes	M	7	True	153	(3.4834102197272738, -7.1479785643574578)	(5.2576829468786048, 6.7301814687307235)	(-2.7499768388471981, -3.3465647106729852)	(1.4842078980419782, -3.2016069384330947)	1.0	slash	1.33482
25	N	B	B	A	N	M	A	M	N	8	0	shapes	N	7	True	153	(0.015142687367891483, 1.3946269388244801)	(-3.2058053874058468, 7.7111890000805268)	(6.3384506313041875, -6.464486977394011)	(-8.1677414209739929, 1.7624082234551803)	1.0	z	1.07062
26	M	B	M	A	A	N	N	B	B	8	2	shapes	M	7	False	153	(-7.6463560031648328, 1.3478605045035152)	(7.5847528994032665, -2.3273287593366128)	(-8.5715863129443495, -8.1479394484189545)	(7.8644773772200764, -6.7461004165760023)	1.0	slash	1.16213
27	N	B	N	A	A	B	M	M	A	8	2	shapes	N	7	False	153	(-5.1358373035213249, -6.3932848959860387)	(-3.4983907879033547, 7.6120633955908446)	(3.7049945178851402, 4.9664781067457238)	(-2.0542984266380868, 3.6269023355014003)	1.0	slash	1.38563
28	M	A	A	M					M	4	0	shapes	M	7	True	153	(4.4837594802534149, -0.47162961140586646)	(2.7515566343762501, 8.1952178469324046)	(-3.1248108530610361, -4.7142909243884965)	(-0.36640942698904233, 4.8957080895073037)	1.0	z	1.42744
29	M	A	M	B	B	N	N	A	B	8	5	shapes	N	7	False	153	(-8.6003898549174593, 6.4033400635988222)	(-5.6071707068919441, -1.0947013702180977)	(-1.2609057820103402, 2.7305979193096732)	(0.37597595893162072, -4.5103789139346908)	1.0	slash	1.33506
30	M	B	M	A					B	4	0	shapes	M	7	False	153	(0.82737359596735871, 3.7344611244839534)	(4.8000361272271661, -8.4579189968526709)	(-5.4736414788172922, -5.3633593049314765)	(-7.2615382793993177, 2.3705649878558877)	1.0	slash	1.32514
31	M	A	B	N					N	4	2	shapes	B	7	False	153	(-6.6867735719655101, -0.47272952647003663)	(4.0070410789330797, -1.3357475447817535)	(-0.10076765582537206, 8.0193750041775544)	(8.5373805130505502, 0.24023237198372271)	1.0	slash	1.26629
32	N	B	N	A					N	4	2	shapes	N	7	True	153	(5.7818452458743756, 6.6676236039489911)	(-5.4724756314784297, 1.5985776031905967)	(3.0042720833802736, -6.8973632541203669)	(-4.3210842682222346, -2.6061778938470326)	1.0	z	1.3818
1	M	A	B	A					N	4	2	shapes	B	8	False	153	(6.7427673634228, 0.22332397364271728)	(-2.1019138375516189, 4.2854803783932276)	(-3.9455747835935648, -0.1734888425577239)	(5.5257394602258163, -7.9170030354963359)	1.0	slash	1.25975
2	M	B	N	M	N	B	A	A	N	8	4	shapes	N	8	True	153	(-8.3255155612171325, 5.4355815286695943)	(-3.0512964530213216, -6.5856011730449673)	(-7.334205040422205, -1.0023371978133389)	(6.3961306198457795, 3.7886646673480975)	1.0	z	1.25091
3	M	B	M	A	B	A	N	N	B	8	3	shapes	A	8	False	153	(-6.1934786121545802, 6.1386670470144971)	(5.95806064517223, 0.81953231716036612)	(-4.4454815666530134, -5.2270739694966872)	(-0.73754283072247517, -2.6975482424383523)	1.0	slash	1.34459
4	M	B	M	N					M	4	1	shapes	B	8	False	153	(-5.2961598592875969, 1.2839308916512771)	(4.2243019317183972, 5.5115791209640026)	(7.8030252133370013, -2.8883268976612406)	(-0.6393315134717561, -6.6089372417736696)	1.0	slash	1.16413
5	N	B	A	M	N	A	M	B	N	8	0	shapes	N	8	True	153	(6.8216008238989634, -5.3028210394903414)	(-1.2136882166650791, 4.2040156603641066)	(-1.5781785205471444, -0.41098091718666474)	(-8.0125106360252865, 5.0523667785648883)	1.0	z	1.16371
6	N	A	M	B					N	4	0	shapes	N	8	True	153	(4.3654703486814732, -4.6786440715653139)	(-1.5282266022020163, -0.015032711895845097)	(-3.7917033866250538, 6.2963939431583693)	(3.0847260563699805, 7.1833004465514172)	1.0	z	1.18631
7	N	B	M	M					M	4	3	shapes	M	8	True	153	(-4.1502185649945034, 4.2670141885561588)	(7.047172055316576, -4.4822476417879757)	(0.22631531972960772, 1.2885920852578376)	(-8.2690533321052175, -0.75200180839480968)	1.0	z	1.36758
8	N	A	M	B	N	B	M	A	N	8	6	shapes	M	8	False	153	(5.0663774019790342, 3.1242195735675562)	(-2.4614166155301387, 3.2246594097379031)	(4.2120562888270641, 8.2656546623035467)	(8.0087815314868571, -2.3050882075616705)	1.0	slash	1.2686
9	M	B	N	M					N	4	0	shapes	M	8	False	153	(4.5185414476236385, -2.2800000390186099)	(-5.5269894255634355, 5.2162820816962636)	(-1.6356780598428555, -8.2586210464078604)	(3.4298705468314914, 4.0238147915930806)	1.0	slash	1.32693
10	M	A	M	B	B	N	N	A	N	8	7	shapes	A	8	False	153	(6.2614991836692084, -0.31169692497352308)	(-2.8127312185003612, -6.3978439845048527)	(8.344053136712251, 8.4046547600819252)	(-1.6269054938642729, -0.5701823988256649)	1.0	slash	1.38579
11	N	B	N	M	B	A	A	M	A	8	5	shapes	A	8	True	153	(4.4916293550570519, -4.6287532968482017)	(-5.6867751074887174, -0.17370480965112556)	(-2.554179606742518, 5.3239821900723623)	(5.8342471293024101, 5.4934617874136915)	1.0	z	1.12053
12	M	A	A	N					A	4	1	shapes	A	8	True	153	(6.2346329115528718, 4.6514931932332146)	(-8.5070511480504685, -7.0082359721294392)	(-7.4462690847496065, 3.968428906415852)	(7.3044767590939301, -5.5316337533642308)	1.0	z	1.2971
13	N	A	M	B	N	A	B	M	N	8	0	shapes	N	8	True	153	(-8.2507400277830438, -7.4951762707630216)	(-5.2801255702985461, 8.0992488509855853)	(1.4261640592114784, -2.1159961026845373)	(6.2657564645388391, -5.9506049163974479)	1.0	z	1.04885
14	M	A	A	M					B	4	3	shapes	M	8	False	153	(7.5677114445601781, 5.8471742323035372)	(2.3943072127204026, -3.5167748376479704)	(-6.6625565490139875, 6.0263749177616432)	(-3.3038460719217539, -2.3008807565252276)	1.0	slash	1.28846
15	N	B	M	N					A	4	0	shapes	N	8	False	153	(-1.5846898598380301, -6.5741512441262415)	(2.4366173472030201, -1.9086057920115644)	(5.8531136662595156, 0.68595197614688708)	(-1.6061374220707991, 3.6987099095837035)	1.0	slash	1.20621
16	M	A	B	N	N	A	M	B	B	8	2	shapes	B	8	True	153	(-2.7742362984452233, -0.33854942093576135)	(1.345939704603266, 1.0261546797553365)	(8.2333421945961938, 8.200815311431878)	(-1.6515129525081109, -6.257581455658574)	1.0	z	1.3118
17	M	B	M	B	N	N	A	A	N	8	6	shapes	A	8	False	153	(-5.0044373438778669, -1.3384071110324438)	(-7.0386774358713673, 7.5003065136223981)	(1.6993745401187024, 8.2389979166806597)	(5.9958440945051148, -4.1376368279652072)	1.0	slash	1.30119
18	M	A	A	B					B	4	3	shapes	B	8	True	153	(-0.21290138448204132, 8.1773927025529431)	(6.4801961559234709, -8.7092237977427178)	(-4.3093921087743627, -4.7571438512405706)	(6.5326289635808674, 8.292079521634129)	1.0	z	1.1448
19	M	B	B	A					M	4	0	shapes	M	8	True	153	(-1.7739145595703008, 8.2002111340909458)	(7.0097462082639002, -5.2435548027218211)	(-5.1324539378988172, -4.3945977029295538)	(4.4246619131909313, 2.8534752635237837)	1.0	z	1.27427
20	M	A	M	A	B	N	N	B	B	8	3	shapes	A	8	False	153	(-7.4055737619655515, -0.30136233200174622)	(1.1051289892848857, 2.0803434870938808)	(0.77549936135211084, -4.7904111238277078)	(-7.5478683779042006, -4.9483562796614819)	1.0	slash	1.74871
21	M	A	M	B	B	A	N	N	A	8	6	shapes	N	8	False	153	(-8.5583222050250463, 4.2722907859208732)	(1.9104213037162765, 7.5450781409751073)	(3.421653174618509, 3.3268348523135192)	(-4.0142793894925681, 6.4183315204088931)	1.0	slash	1.28969
22	N	A	N	M	A	B	B	M	B	8	5	shapes	B	8	True	153	(0.49287686082657522, 3.1408547021201425)	(-3.8182056572265983, -8.0763045918587331)	(-1.0798071374435825, 7.829518580531829)	(-7.8202693391578402, 6.3439374073830788)	1.0	z	1.22532
23	M	A	N	M					B	4	2	shapes	N	8	False	153	(-6.2145135111469862, -1.0671802390925116)	(8.6980886206081394, 5.3553188934575093)	(5.5721985496712243, -3.5430289574167162)	(-1.0990714084969966, 4.5447345774624601)	1.0	slash	1.22095
24	M	B	N	A	A	M	N	B	M	8	5	shapes	M	8	True	153	(5.6533868497761208, -8.0635683579907642)	(3.0603934873384606, -3.6865832537447067)	(1.8922154462628171, 6.2690389236598048)	(8.0020855115832603, 7.7603639294414926)	1.0	slash	1.51657
25	N	B	N	M	B	M	A	A	N	8	6	shapes	A	8	False	153	(-7.5174511014292493, -3.4912956643521751)	(1.6193804871376383, 6.3588970757178149)	(3.6459980068087283, -1.4219568362358386)	(-2.8568357568752312, -1.1183029430189162)	1.0	slash	1.19091
26	M	B	A	M					M	4	0	shapes	M	8	True	153	(-4.1021095015948967, -0.19838850411605335)	(2.4429322451554292, -3.6310083102241464)	(7.3297903385946874, 4.8811242221386753)	(-8.6389439358343907, 5.4820444147227168)	1.0	z	1.25563
27	N	B	B	A					B	4	1	shapes	B	8	True	153	(-2.2322585656583946, -7.918378365364922)	(6.3545785120427531, -4.4946433888193944)	(-6.1385686557987365, 8.0911482187595141)	(5.5515061550079086, 7.1583122920334024)	1.0	slash	1.29996
28	N	A	M	A	N	B	B	M	N	8	7	shapes	M	8	False	153	(5.828551101963269, 4.7898021498652312)	(1.866729705348698, -1.5586423961619582)	(-1.1864922105988471, -4.3475221151816053)	(5.8082984323352598, -4.0642197637595228)	1.0	z	1.17107
29	N	A	N	A					N	4	3	shapes	A	8	False	153	(-6.2092736275040386, -8.2779117557343991)	(5.497360312411482, 5.8034127919286327)	(-1.6310652323609531, 8.3663735559147874)	(6.3842249265895532, -5.984033754858344)	1.0	slash	1.16114
30	N	A	A	N					M	4	3	shapes	N	8	False	153	(-0.055922655161836587, -4.1174712491267549)	(8.5595963596087046, -5.8011565437943862)	(5.2690336471921775, 5.1957118313751618)	(-6.7666846706809594, 8.4369138372514527)	1.0	slash	1.25897
31	N	A	M	M	A	B	B	N	A	8	1	shapes	A	8	True	153	(-2.3007269939296382, 0.5153868899924241)	(3.0606428338031844, -2.6553077748399074)	(-4.4079488006549692, 7.4221485149892885)	(1.5636441403599459, 7.4961693181113809)	1.0	z	2.05597
32	N	A	N	M					M	4	3	shapes	M	8	True	153	(-2.4355530237336565, -3.7583566010926388)	(-6.9700989498480697, 8.6306019416558328)	(7.7341101998099333, -5.4652541132282719)	(6.540190261636619, 5.6336022079985657)	1.0	z	1.1721
