TrialNumber	stim0	stim1	stim2	stim3	stim4	stim5	stim6	stim7	stim.probe	ttl.stims	corr.num	trial.type	stim.corr	block	match	Subject	stim.pos0	stim.pos1	stim.pos2	stim.pos3	ran	resp	RT
1	N	B	B	N	M	A	M	A	N	8	2	shapes	B	Practice	False	21	(-6.2638235208324264, -6.480887999948294)	(-0.19258640191829635, -6.9560505467544651)	(3.8819467670887189, 6.4788362284142913)	(-0.42900975911479122, 1.9840016163142131)	1.0	z	4.88563
2	N	A	N	B					B	4	3	shapes	B	Practice	True	21	(4.6619446060058749, 8.2260733737612561)	(2.550861437036291, -7.6580964997943584)	(-2.8186331564038483, -2.7534698347286648)	(-7.2775685145967248, 1.0939964402009608)	1.0	z	2.89491
3	N	B	M	A	A	N	M	B	N	8	0	shapes	N	Practice	True	21	(-3.2019387710552776, 1.5189633056656859)	(-8.147117730502174, -6.41873500697361)	(-1.4911387486042953, -6.9549962349916532)	(7.3654039054245466, -3.7084758225381211)	1.0	z	1.04831
4	M	A	B	M					A	4	3	shapes	M	Practice	False	21	(3.2456976098059798, 2.6965282711651604)	(-3.5670730348990167, -6.9359955459301865)	(-6.2864465716137659, 1.8237093197131689)	(7.1645655868706637, -4.8670043079121763)	1.0	slash	1.32801
5	M	A	M	B					N	4	0	shapes	M	Practice	False	21	(2.6499895393007655, -1.4213164516305721)	(-7.1159037850203513, -6.4072654849479784)	(-2.6477521676271101, 6.5828065722053033)	(6.4587802408858312, 6.0386107681958539)	1.0	slash	1.16764
6	N	B	B	M	N	A	A	M	A	8	3	shapes	M	Practice	False	21	(0.018131410463988473, -3.2163640317649689)	(5.6647328849982337, 0.45315476281357903)	(-1.2299550601262412, -8.4739783315607085)	(1.1841896781433938, 8.5359083127453914)	1.0	slash	1.59529
7	M	A	A	M	N	N	B	B	A	8	1	shapes	A	Practice	True	21	(-5.5942235433463967, 2.7542806763861112)	(5.7559354303435892, 0.43158681249571984)	(-0.6129996685888166, 1.3727536205241453)	(-0.60639498018081817, -7.4004003199193296)	1.0	z	1.21657
8	M	B	N	N					B	4	1	shapes	B	Practice	True	21	(8.013261625309088, 4.2336435771811143)	(3.4070144217405876, -0.71950806724518479)	(-3.1027328682119535, 0.50256950662193489)	(-7.3806374719652279, -4.6180094030844128)	1.0	z	1.09442
1	M	B	A	N	A	B	M	N	A	8	6	shapes	M	0	False	21	(1.8793593216024007, -7.6296049279772156)	(-1.9082169148472055, -0.96128894841890755)	(-8.3593239341196863, 5.2939854205736658)	(6.5744812663663499, -7.7736801053568199)	1.0	z	10.3788
2	M	A	A	M	B	N	B	N	A	8	7	shapes	N	0	False	21	(3.2805730785709546, -5.0936462411584085)	(-0.25062523999291209, -0.18946192026125885)	(3.3429824917121742, 7.4729758279167235)	(-4.954216202616009, -6.8458409466533308)	1.0	slash	1.27384
3	N	A	N	B					M	4	0	shapes	N	0	False	21	(-2.2723566868804079, -4.8434092450866393)	(8.0996312847727872, 4.1292817113029763)	(4.5503784902638724, -5.6205381830568495)	(-7.669939273495725, 4.0082136293786608)	1.0	z	1.28536
4	M	B	A	N					A	4	2	shapes	A	0	True	21	(6.4995045946507091, 0.038384020945377628)	(-5.5119831773684371, 8.1482912061006623)	(3.1737457231081443, -7.3809604608463673)	(-2.6491737578477208, -6.293865932175617)	1.0	z	2.07107
5	N	A	A	N	M	B	M	B	A	8	5	shapes	B	0	False	21	(1.3532403729866438, 2.0433811886225168)	(6.0571992876147274, 2.5496913574834252)	(-4.932655682583909, 7.0576699413670028)	(4.194534919693254, -7.8697402318817877)	1.0	z	1.54869
6	N	B	B	A	N	M	A	M	B	8	2	shapes	B	0	True	21	(5.0970786304109286, 2.2871735697671483)	(5.9700928882926636, -1.9095623767601202)	(-5.6085405528722889, 4.9894634076615105)	(-1.9837378837482449, 2.1141771747060361)	1.0	z	0.76427
7	N	B	M	B	M	A	N	A	B	8	7	shapes	A	0	False	21	(2.6644588319455131, -1.3162937254432441)	(-5.4341216351351527, -5.6403746160179073)	(-2.0896861385094168, 1.063553222917708)	(8.6656903573170752, -8.7318252250005912)	1.0	z	0.471935
8	M	B	N	B					B	4	3	shapes	B	0	True	21	(1.833538018804111, 6.340405434341422)	(8.1869409838712919, -3.1101785397121429)	(-4.1690969301775223, -4.1553944916939463)	(-0.23773618086225312, 1.0253477425724693)	1.0	z	0.691618
9	M	A	A	M	N	N	B	B	B	8	3	shapes	M	0	False	21	(-6.1552667704159347, 6.2041501547580022)	(6.0389695132735515, 0.99673921575570823)	(-4.4497294663256461, 0.26664904124784172)	(7.5374119153838564, 7.8701809146566362)	1.0	slash	1.18879
10	M	B	B	A	N	M	N	A	B	8	2	shapes	B	0	True	21	(-1.789104759990841, -1.9784798932281618)	(7.8169842585670679, 2.3035431021298614)	(-7.4875352621848794, 2.2776277058254806)	(-6.7942414169043017, -7.7500286324359084)	1.0	z	0.884787
11	N	A	B	M	M	N	A	B	M	8	2	shapes	B	0	False	21	(4.6086112169776374, 0.77106586421748524)	(-6.320523299607169, -5.671954135216053)	(-2.5992066580625988, -0.92871197308691311)	(7.207128437450665, 6.3802949356993537)	1.0	slash	1.14045
12	N	B	N	B					B	4	1	shapes	B	0	True	21	(6.9527241921694838, 3.8000532633352648)	(5.1818630935384, -5.5238377986742337)	(-1.7379505782785181, 8.4893174967190248)	(-3.4057498122551424, -3.7674401131533308)	1.0	z	0.802023
13	N	B	A	A	N	M	B	M	N	8	4	shapes	N	0	True	21	(-5.47586583703918, -3.2240918213820287)	(7.7916144894395423, -1.0648693545237755)	(-1.0409536619698718, -5.060910928003401)	(2.6119582972669679, -1.7419795065856105)	1.0	slash	2.30163
14	M	A	N	M					A	4	3	shapes	M	0	False	21	(7.9292178064196719, -0.9536350327441987)	(-1.3072477505332509, 3.9988947831815622)	(-4.4155104358129167, -4.4508965661061515)	(5.7477645458710089, 4.873191881946374)	1.0	slash	0.867147
15	N	B	B	A	A	N	M	M	A	8	0	shapes	N	0	False	21	(1.1365947209628882, 3.2261115839100825)	(7.5298755419568018, -7.726435415344584)	(7.3632265451493133, 3.2231209627691424)	(-7.8322450811502993, -6.71334852590505)	1.0	slash	2.30695
16	N	B	M	M					M	4	3	shapes	M	0	True	21	(-4.4036971155577804, 3.4976940268618204)	(-8.2509165471099664, -2.1732147259166705)	(6.820048451497156, 8.1944681183187065)	(4.4617095407758889, -1.9732961248902834)	1.0	z	0.752586
17	N	B	N	A					A	4	2	shapes	N	0	False	21	(1.5241023452139117, -4.4035569292241172)	(-0.59550398592915599, 3.9618833862134597)	(-7.9880923076320745, -5.0568617761372874)	(4.6996934927324574, 7.7745061489963412)	1.0	slash	1.07597
18	N	B	A	A					M	4	0	shapes	N	0	False	21	(-4.4929767183897571, 2.4062310111561214)	(-4.2139561755447392, -7.0451620176464687)	(3.4707110828581733, 4.6061204255604675)	(1.3224125465641325, -7.4808082911764995)	1.0	slash	2.07976
19	N	A	B	A					N	4	1	shapes	A	0	False	21	(-1.7868004824496682, -0.56580949627234922)	(3.5769379337107257, 3.9815605555977029)	(5.3742182685613074, -7.3817614328980259)	(-2.5483762969744648, 7.7259114018391521)	1.0	slash	0.849411
20	N	A	M	B	N	A	B	M	B	8	6	shapes	B	0	True	21	(-5.0417622893275924, 5.2613769481735684)	(-0.40330154188352907, -3.029236200407496)	(-5.6073835400787928, -6.1551493375362849)	(8.6757312838807152, -6.8947890834096954)	1.0	z	1.14107
21	N	A	A	B	B	M	N	M	A	8	2	shapes	A	0	True	21	(-7.6995660845801055, -0.88515974188563362)	(-8.2887659338088362, -7.51770926958865)	(-7.8039557358864222, 5.6393978762571191)	(-3.7852837205297005, 8.7333263137218395)	1.0	z	2.22071
22	M	A	A	B	B	N	N	M	B	8	3	shapes	B	0	True	21	(-2.6904129007022304, -1.4081178365274187)	(8.4024281538465111, 1.297591792742729)	(8.1680785351932386, -8.6799086449289788)	(3.0156948932358443, 4.5646071332256248)	1.0	z	1.35607
23	M	B	M	N					M	4	2	shapes	M	0	True	21	(-4.4008761494096795, 4.9678952889672221)	(7.4911820287816973, -5.0228939180072363)	(2.8069021908640153, 8.4105070040175107)	(-5.0983492889340738, -8.1402274454865555)	1.0	z	1.15182
24	M	A	N	N					A	4	1	shapes	A	0	True	21	(-2.5174380855733522, 5.1664285605381242)	(3.0548553113852872, -1.1719858359309674)	(-4.5799211913379185, -4.0474359866263798)	(5.6128206681183741, 8.4603958649937958)	1.0	z	0.994993
25	M	B	N	B					B	4	1	shapes	B	0	True	21	(-8.3792511539313175, -5.1404052134648364)	(1.9845283810163252, 1.2979833904091365)	(1.6640985647438242, -8.6469758953614946)	(-7.8828392969984833, 0.51233224192805338)	1.0	z	1.67885
26	N	B	B	A	N	A	M	M	A	8	4	shapes	N	0	False	21	(1.0798404833161381, 2.3545831967476261)	(4.01735457303419, -6.1897593098027865)	(-0.64463331329844031, 7.2592649429109208)	(-7.3273543367337455, -7.2018570685781782)	1.0	slash	1.03647
27	N	A	N	B					A	4	0	shapes	N	0	False	21	(-7.9507472145444025, -1.8171008319978865)	(7.3090736599628841, -2.3138345115498229)	(-7.4161734504021437, 7.5390145563954718)	(2.948676421999199, 4.0967903741724303)	1.0	slash	0.936132
28	N	A	N	A	M	M	B	B	B	8	6	shapes	B	0	True	21	(-3.3657939776325136, 4.6279796955441075)	(4.4547519297150533, 3.681583222523571)	(0.24631628801736127, 7.8157856218593054)	(-1.4659066784986692, -0.29820218244816843)	1.0	z	1.39396
29	M	B	N	A					B	4	1	shapes	B	0	True	21	(-6.4093365367193016, -4.634704284607511)	(6.0017434194719517, 0.11929737708152111)	(-5.8922500028508438, 1.579101198838595)	(3.5247164592928417, -3.3740099452542163)	1.0	slash	1.06938
30	N	A	A	M					B	4	2	shapes	A	0	False	21	(6.7123944263892827, 5.8180213581280285)	(-2.4177367309691951, 7.9263967786510463)	(0.33074560574209499, -1.1035223374923477)	(-7.9255065119856196, -5.2665063797113536)	1.0	z	0.929127
31	M	B	N	A	M	N	B	A	B	8	1	shapes	B	0	True	21	(4.5866964643544872, -5.8853606501727747)	(-6.9829550790427781, -6.5766191999522707)	(4.9172176157925982, 1.9396667938515595)	(-4.0786716652003134, 2.0240117829416793)	1.0	z	0.908704
32	M	B	M	A					N	4	3	shapes	A	0	False	21	(-4.0170069317019106, 4.5273333027249461)	(0.62572731753715871, 8.5127652407435477)	(7.5257592279317045, -5.6893488446105014)	(-3.5034975421195576, -0.31722080093134686)	1.0	slash	0.976403
1	M	B	M	B	A	N	N	A	N	8	4	shapes	A	1	False	21	(-0.81555814448072095, 5.9659385884456224)	(1.3785380766870254, -6.7950441132888262)	(-7.1975475790545058, -3.7216141602655606)	(8.1156214044072108, -0.31813631074610704)	1.0	slash	1.58396
2	M	A	A	B					M	4	0	shapes	M	1	True	21	(0.7451352945206331, -4.9138287021204272)	(5.6491009158957386, 8.1189070480352221)	(-1.2524352463691386, 6.7583223376082167)	(-2.8204065368249696, -7.9588778706975285)	1.0	z	0.853745
3	M	B	M	B	A	A	N	N	B	8	4	shapes	A	1	False	21	(6.1519108744563056, 8.3401953809286553)	(-6.9202603414871167, 4.1156922674598757)	(2.5058087239433355, 3.313244143485111)	(-0.49708561266093909, 0.090607209333404271)	1.0	z	1.271
4	N	A	A	N					A	4	1	shapes	A	1	True	21	(6.4401746534392927, 5.8101125082655241)	(-4.7241021047501865, 5.3758772578404912)	(7.1448963352470116, -8.6689311664215953)	(-0.88818293043077734, -1.5441789230319589)	1.0	z	0.699011
5	M	A	A	B					M	4	1	shapes	A	1	False	21	(2.059385974853944, 3.8331457215367859)	(2.8641951347685204, -7.8472965327669923)	(-4.6941041585418786, 7.0962731545221676)	(-3.8812113854043151, -5.8294519302813166)	1.0	z	0.968615
6	M	A	B	A					N	4	2	shapes	B	1	False	21	(5.4802712764230446, -1.8987655633583307)	(-8.606042639225354, 3.8207688400619855)	(0.2607303823554723, 1.5988880601243114)	(-7.2115132798148487, -0.4611786601695993)	1.0	slash	1.21619
7	M	A	M	A					M	4	0	shapes	M	1	True	21	(7.9613001559391172, -7.1830247810494523)	(4.1505349865898165, 6.4968392916064328)	(-6.2383469715915991, -6.8161851280815871)	(-7.9268320750120909, 8.0997421354886363)	1.0	z	1.03185
8	N	B	B	M					M	4	0	shapes	N	1	False	21	(-5.5726718325966225, 6.7720060678482454)	(-0.11616778120059124, -2.9267581309650543)	(8.0210447839443084, -5.5680774966968603)	(7.3371720781340564, 3.3282572956213592)	1.0	slash	1.0595
9	M	A	N	N					A	4	1	shapes	A	1	True	21	(5.6085717669753503, 2.762916878888845)	(6.3487152973121148, -4.5920996202829114)	(-6.1773010880876749, -6.344700137398549)	(-6.6741501356813169, 3.5553930091116186)	1.0	slash	1.72099
10	M	B	B	M	N	N	A	A	B	8	1	shapes	B	1	True	21	(-2.4383162864382655, -4.5440890732187658)	(7.3035091135084897, -1.403040969948635)	(6.1451949482520227, 4.9953495568513482)	(-3.1913519210079864, 7.5789651359372989)	1.0	slash	2.11656
11	M	B	B	N					N	4	0	shapes	M	1	False	21	(-0.12375787035466956, 8.7460385495287838)	(3.5101219993469357, 4.2403411135696878)	(-5.8721621384474423, -6.8540380309846807)	(7.3634452306680132, -0.58628596514992637)	1.0	z	1.0643
12	N	A	M	N					N	4	1	shapes	A	1	False	21	(4.0125993507951492, 0.41981927180890466)	(-0.83956758450522528, -1.7067819985248667)	(-5.876664771874891, 7.4344427572381484)	(0.41329121486427134, -5.5542893046480915)	1.0	z	0.789949
13	N	A	N	A					A	4	1	shapes	A	1	True	21	(7.8658297698947273, 7.2711639393073781)	(-8.4239955899165526, -0.04551217139034236)	(0.017864893366581924, -5.0596577504666582)	(-0.54290205718235285, 4.8186115395914779)	1.0	z	0.825572
14	N	A	A	N	M	M	B	B	N	8	4	shapes	M	1	False	21	(4.4848084170753211, -1.4087605917587886)	(1.5355416571525069, -7.7194479242622851)	(-6.0849911522557241, -1.9618358735934134)	(6.403733387149833, 4.1123140848807935)	1.0	slash	0.913141
15	N	A	B	M	B	A	N	M	N	8	6	shapes	N	1	True	21	(-8.7200551928569396, 3.1004736576811869)	(1.1127186631734709, -7.7690490275474531)	(0.67417885469813577, 3.0238368529810096)	(-7.8795213039298755, -7.5654100421746051)	1.0	slash	1.3589
16	N	B	N	B	M	A	M	A	A	8	5	shapes	A	1	True	21	(-2.707867485463435, -0.91373572471956255)	(2.0027276256707633, 0.59089030135689491)	(6.4316698261772718, -1.1771469192836692)	(-7.1084737003537306, 6.3836006661348375)	1.0	z	2.56449
17	M	B	N	N					B	4	0	shapes	M	1	False	21	(-8.3220153140742958, 6.1439641547067794)	(0.0013161379837356435, 4.0028632596800087)	(-6.2587012691759121, -8.4991991929063939)	(4.9735819970069119, -8.19584632334292)	1.0	slash	1.1101
18	M	B	A	A	M	B	N	N	A	8	0	shapes	M	1	False	21	(7.9726883780246602, 4.8044147959434103)	(-1.3519878047141063, 4.983438406622275)	(-6.7916275250478328, -0.019411222894225588)	(-0.62933973645575136, -0.2458893010194334)	1.0	z	1.30133
19	M	B	B	M	N	A	A	N	A	8	6	shapes	A	1	True	21	(-7.1162131376605995, 3.0313783810463324)	(1.9803058089692609, 4.5579041131416762)	(-0.47153808980425183, -3.7070277412083943)	(-6.5690514432739784, 8.2190747669893334)	1.0	slash	1.09327
20	N	A	B	M	M	B	N	A	B	8	0	shapes	N	1	False	21	(-2.3432118469516077, 5.874270364676498)	(5.7058310981401199, 4.618199939248198)	(4.743837390491219, -4.1073736720996088)	(4.3679716200296994, -8.4969385937773332)	1.0	slash	1.2064
21	N	B	M	M					M	4	0	shapes	N	1	False	21	(2.0043901563298405, 3.9804682550466364)	(-3.7374823674217659, 2.8150658293808206)	(1.0695265974122155, -3.6837150629764874)	(-3.7512747821170542, -6.9048784976432955)	1.0	slash	1.19236
22	M	A	A	M	B	B	N	N	B	8	2	shapes	A	1	False	21	(1.7225808690441227, 0.30310276772517675)	(5.5218142885276489, -2.9254333975381881)	(0.9285409862018561, 7.5006866189674462)	(3.4848524103578864, -7.0700050350490251)	1.0	z	1.46211
23	M	A	M	N	N	A	B	B	N	8	3	shapes	N	1	True	21	(2.465341953986913, -7.9622899485289125)	(-8.3251125647404969, -4.7546124465131854)	(5.8642813119789157, -1.5537746600529552)	(7.1711796820316422, 6.1160148671853172)	1.0	z	1.70966
24	N	B	M	M	N	A	A	B	A	8	5	shapes	A	1	True	21	(-8.6343008135844386, -6.6676223962424164)	(-5.7222569443614963, 2.9224190376207169)	(4.9715385882831811, -7.0388767550485651)	(2.0093614911535767, -2.7885805039597775)	1.0	z	0.821255
25	N	A	M	M	B	B	N	A	M	8	3	shapes	M	1	True	21	(5.8855001698871412, -1.6049944576221469)	(6.0613025509580112, 6.1521135227509482)	(-2.0628557023348835, -8.0247234538644356)	(2.8220273958636621, 2.5999461347089241)	1.0	slash	2.06886
26	M	B	B	M					B	4	2	shapes	B	1	True	21	(8.2561105102448309, -2.2065600692208882)	(-3.5143440828575905, 7.8835757359562137)	(4.1981027120459675, 2.8543536596620775)	(-0.77854337468594448, -0.18185844339083523)	1.0	z	0.720478
27	N	A	M	M	B	A	N	B	B	8	7	shapes	B	1	True	21	(4.2327581369527838, -2.7045085748959439)	(-1.3371909602002647, -1.7441344828120497)	(-6.8053017997711232, 6.1703300262896832)	(-3.5285867492041376, 3.1724044240000691)	1.0	slash	1.732
28	N	A	A	B					B	4	3	shapes	B	1	True	21	(-3.8418815746969086, 1.9638233030956531)	(0.90501604341987729, -2.6829178926744026)	(3.1899488034508057, 4.1885732424133675)	(-7.7246832001130485, -5.4238440253757281)	1.0	z	0.739785
29	M	A	N	A					N	4	1	shapes	A	1	False	21	(-3.8075713991103877, 8.2627237792852348)	(6.6192727504856013, -5.6003814012883666)	(-2.5464803448131494, -1.2802744484816309)	(7.6055765201703451, 4.3344355802627863)	1.0	slash	0.969501
30	M	A	A	B					A	4	2	shapes	A	1	True	21	(3.2531479141594346, -6.5508202982726722)	(-0.27793945402289744, -2.5680275386350528)	(-0.18329160683100199, 2.1702374004284177)	(6.085729532921297, 0.32282504637954546)	1.0	z	0.465108
31	N	B	M	B	M	A	N	A	N	8	7	shapes	A	1	False	21	(-0.84652464998274457, 0.94131671079717982)	(-2.9523772977092202, 5.8888889688338146)	(6.4905478930656368, -3.7166689408797176)	(-6.126060723874005, -1.5530208871103124)	1.0	z	1.13495
32	N	A	A	N	M	B	B	M	B	8	0	shapes	N	1	False	21	(3.4847189947927166, 4.58146847398835)	(3.3873908053213508, -7.0270112931636577)	(-2.0303019071071109, -2.5718869936337141)	(7.040396149318024, 2.5150011609734264)	1.0	z	1.69431
1	N	A	A	B					B	4	2	shapes	A	2	False	21	(6.5882292341404547, 1.6742818872328158)	(-4.211374481932963, -2.4907951674081072)	(-6.6309916739747816, 5.4234510666672264)	(6.7477713308131975, -8.6158193498338562)	1.0	slash	1.35387
2	N	A	B	B	N	M	A	M	N	8	5	shapes	M	2	False	21	(2.1154283404018361, 7.5772101590809875)	(0.63701215681021495, -1.8690353435542528)	(-3.508244645537296, -0.88312369631136978)	(-2.47535779197863, -5.9538645257786156)	1.0	slash	1.24757
3	N	B	A	M	A	M	B	N	A	8	2	shapes	A	2	True	21	(5.2043786014495232, 3.1110542473994425)	(8.6060577004229195, -4.5302216313085468)	(-7.5870021222183404, 6.9654999007417651)	(4.9260244078407478, -1.5349577562959045)	1.0	z	1.76313
4	N	A	N	A					A	4	3	shapes	A	2	True	21	(5.0339251631870248, -8.0503501935675921)	(-7.8185061713828068, -1.2463087867153533)	(-0.97434306047518593, 3.7899744603056646)	(2.3041093439722893, 8.5048965031968322)	1.0	z	1.40466
5	M	A	N	N					A	4	2	shapes	N	2	False	21	(-8.4094123474605684, -6.7988459818734803)	(-1.9474076995732563, 5.8626650257096884)	(5.0735660943274556, 8.3256418393798022)	(8.6300593854848628, -6.451164921319112)	1.0	slash	0.974279
6	M	A	N	M	A	N	B	B	N	8	2	shapes	N	2	True	21	(-5.7756086743499981, 4.8751559812697352)	(6.5568420823063693, -5.6884873777520273)	(-3.3989773213216763, -6.0943239670066749)	(6.3901894442919112, 1.5954262996867747)	1.0	slash	1.23199
7	M	A	B	N	A	N	B	M	A	8	1	shapes	A	2	True	21	(-3.8933530709017568, -6.834969016527026)	(1.7580059233977732, 3.7693150564982467)	(-7.5962248718643792, -3.5793997286823318)	(3.7284313139838208, 8.4812103034451809)	1.0	slash	1.53356
8	N	B	A	A					A	4	2	shapes	A	2	True	21	(-2.9556017872637845, 0.28915985243660813)	(5.3350407143524468, 8.1298075395932763)	(0.73315011392691076, -3.140693099403328)	(-1.8012355759875902, -6.2703543606847196)	1.0	z	0.677158
9	M	A	B	M	A	B	N	N	M	8	0	shapes	M	2	True	21	(5.5881635315362974, 2.4206619315560491)	(3.5135123400775754, -8.1652649274794449)	(-1.807596591228692, 2.1901406372356114)	(7.1354392124731607, -2.6956826911242304)	1.0	slash	2.1948
10	M	A	N	N					N	4	2	shapes	N	2	True	21	(-1.2904517492076035, 3.6545018131383102)	(-6.9738494413946412, -2.1554643608300079)	(5.3100427093844846, -4.3537991369168205)	(5.8753073821114707, 3.5697243283351643)	1.0	z	0.718281
11	M	B	M	A					M	4	3	shapes	A	2	False	21	(3.7792319716442382, 6.5898114704384998)	(-6.8309778386202114, -5.5301478079504651)	(1.483005245470558, -5.8751614208322227)	(-7.510804200620484, 4.4017387487446751)	1.0	slash	0.948158
12	M	A	B	B					M	4	0	shapes	M	2	True	21	(4.4091383537893076, 8.17725147942825)	(-4.989053068697423, -2.8478739285851358)	(-4.4482171600071121, 3.1305027881060976)	(7.8775804137245657, -4.8457057935911614)	1.0	z	0.743805
13	N	B	A	A					N	4	1	shapes	B	2	False	21	(2.1959356988751306, 1.3634380128133685)	(-2.2978264024110553, 0.93737419864598337)	(-0.14201005761341889, -8.2827442359013332)	(7.5341668034573459, -4.1242979804824911)	1.0	slash	0.949296
14	M	A	B	B	M	A	N	N	M	8	2	shapes	B	2	False	21	(8.2193794069056594, 5.5701343572336484)	(3.3707516513307993, 8.5278132320771789)	(-3.0716736782017637, 2.3937807941636144)	(5.6562361989294327, -3.7481729342379042)	1.0	slash	0.893138
15	M	B	N	M	B	A	N	A	A	8	4	shapes	B	2	False	21	(-0.0106962033349145, -4.5396166393562796)	(0.17526734177029724, 0.65369743541030267)	(4.8638035546335203, -3.0567575235973745)	(8.3839740588200193, 5.3989052521148313)	1.0	slash	3.71063
16	M	A	B	B	N	N	M	A	A	8	4	shapes	N	2	False	21	(-5.0603905729684886, 0.14121479045746099)	(-8.550420470138576, 4.0048684436667976)	(6.2477349911222273, 2.5990221543621104)	(7.9149961737192882, 7.6796733700585875)	1.0	z	1.69998
17	N	B	M	B					N	4	0	shapes	N	2	True	21	(5.539435624805817, 7.8465069287719977)	(1.7795196894238625, -1.8817911376662169)	(-6.3108986100763946, 3.3432129597840579)	(-2.9397232181653061, -6.7327673732532745)	1.0	z	1.01772
18	M	A	N	M	B	A	N	B	B	8	1	shapes	A	2	False	21	(2.3865979080254061, 1.7616641540099334)	(-1.8520442763899521, 0.73158275233639714)	(-3.6909324715001803, -3.5500207921592164)	(-5.749340769504995, -8.7147683668615645)	1.0	slash	0.771386
19	N	B	B	A	M	N	M	A	A	8	3	shapes	A	2	True	21	(-1.0409154094348496, -2.4976570895190688)	(-6.1634026196188518, 3.4345590303805196)	(4.1080309860430013, 0.65758001045272607)	(7.3199131708575074, 4.8732803744752591)	1.0	z	0.892983
20	M	B	N	A					M	4	2	shapes	N	2	False	21	(-0.97705955197618177, 7.8766978402878358)	(-1.5472191295771687, -1.9144558141380639)	(5.1605277852025839, 1.711144386118546)	(6.8081000463470165, -8.4953884489442171)	1.0	slash	0.724575
21	N	A	N	B					M	4	3	shapes	B	2	False	21	(2.6627916473313036, 5.6846752831461185)	(4.2448785837444625, -2.2117426274133205)	(-2.3532861755666108, -0.73813877521407001)	(-5.9086744366337882, 5.2578674974172497)	1.0	z	2.95822
22	N	B	M	N					N	4	0	shapes	N	2	True	21	(-8.2307588800022717, 1.3507148215783396)	(2.168882633342319, -0.94126412537355719)	(-3.3408226270059149, -1.0482762414558264)	(4.8048054937135003, 4.5595454626980434)	1.0	z	0.871795
23	M	B	A	M	B	N	N	A	N	8	5	shapes	N	2	True	21	(-1.4156653910172423, 7.3210065193222285)	(-8.2278932300801593, 2.6786254715255176)	(-4.919832876959175, -2.9089276536732207)	(-4.1657166634290625, -7.337332217456396)	1.0	z	0.675054
24	N	A	N	B	A	M	M	B	B	8	1	shapes	A	2	False	21	(3.9690079734314185, -6.3679657595934307)	(-7.5181800477664851, 6.591644816675414)	(3.1806375141659462, 0.92934724494018894)	(7.969665658157485, -8.3199850717504589)	1.0	slash	1.58466
25	M	A	N	B					N	4	2	shapes	N	2	True	21	(-3.4422429993588946, -1.8879113746429441)	(2.3775946262300334, -3.4477155806658795)	(0.49768403981984299, 5.7706780719052819)	(-6.6151478352364004, 1.3558053123787985)	1.0	z	0.798519
26	M	B	N	B					N	4	2	shapes	N	2	True	21	(0.79343596736397437, 2.2438195031743717)	(7.9194623040265455, -6.488437188696027)	(-2.2040590885762406, -7.5678977966976904)	(-1.7822151297917328, 6.3600912248470998)	1.0	z	0.963632
27	N	A	M	M	B	A	B	N	N	8	7	shapes	N	2	True	21	(-4.7385355306715917, -4.6702245514458571)	(-7.1904329296227587, 4.5051313973959584)	(3.2062193225698028, 7.8607798178767787)	(4.6166069987784759, -3.4535405407256468)	1.0	slash	3.01182
28	N	B	N	A	A	B	M	M	M	8	5	shapes	B	2	False	21	(-0.35259624680904267, 2.5555012281626794)	(7.5487174921124662, 2.4204816575099422)	(-7.9987758470607959, 4.363430696625084)	(5.1786614460541749, -6.6594385214808343)	1.0	z	1.31734
29	M	B	M	A	N	A	N	B	B	8	1	shapes	B	2	True	21	(-0.73028098029909394, -4.1191748527547221)	(-5.9753818896723869, -1.2921959863188528)	(7.4460761548610108, 0.8501317931637189)	(4.2189077628413987, 6.8823955053895958)	1.0	z	1.20303
30	M	A	A	N					B	4	0	shapes	M	2	False	21	(-3.3765448105272062, 1.6177891057366391)	(-6.8301758790477756, -2.1299268579222508)	(5.2225288354579735, -3.9678693908057809)	(7.6817199629051878, 6.4312340472635743)	1.0	z	1.52463
31	M	B	N	M					A	4	3	shapes	M	2	False	21	(-1.3467944353874035, -4.2423009889746632)	(2.1667438511150579, 8.6914048185608159)	(-1.9179625159985054, 1.670728520925584)	(0.97357126238162728, -8.3837914640388256)	1.0	slash	1.19019
32	N	B	B	N	A	M	A	M	M	8	3	shapes	N	2	False	21	(2.2474261698309075, 0.19684276237697595)	(-5.9039611728149746, 1.9979451020824701)	(5.6546647134320942, 2.4859119566451628)	(-1.2842747705561646, 3.6785520524109554)	1.0	slash	0.861944
1	M	A	M	B	B	N	N	A	A	8	3	shapes	B	3	False	21	(2.4850327040331273, -5.70417621282136)	(1.7879182174316082, 6.0806946621584625)	(-6.3991870515773757, -8.038663871797354)	(-7.0373230539246245, -3.7031526448365435)	1.0	slash	1.6317
2	M	B	B	A	N	M	N	A	A	8	7	shapes	A	3	True	21	(-8.124746222544994, 2.0269476110178406)	(2.009300124639628, 0.68687811682580779)	(-3.0717207665650603, -1.2061472786504766)	(2.2337991247697957, -3.7289020302295564)	1.0	z	2.94101
3	M	A	B	B	A	M	N	N	N	8	7	shapes	N	3	True	21	(-2.5965050700609478, 4.7510549518352327)	(-7.9374171340688884, -0.79875288651812681)	(4.667873792289571, 0.31439239117445617)	(5.5394287877689656, 4.2273507634087366)	1.0	z	0.676785
4	M	B	B	A					B	4	1	shapes	B	3	True	21	(0.40069638346393077, -1.6739517074322361)	(-8.1778605396316681, 1.6475966786306806)	(-4.4090418152704753, -4.8983989765713405)	(7.8741677088295319, 6.8542986330803046)	1.0	z	0.720283
5	N	B	N	B					A	4	1	shapes	B	3	False	21	(-6.7434141987868887, 2.8433685351003639)	(-7.6053256270997549, -1.8767228999167838)	(5.6709162677352207, -5.9163941866285672)	(5.4307294664678167, 4.5271649380805723)	1.0	z	3.37749
6	N	B	M	B	N	M	A	A	N	8	0	shapes	N	3	True	21	(-3.138537772780075, -1.6601143366972924)	(7.4192997357932668, 8.4730766297330149)	(2.944358065399781, 6.0840137267767123)	(6.3107138658491007, -5.9811828682096753)	1.0	slash	2.50536
7	N	B	B	N					M	4	2	shapes	B	3	False	21	(4.8753232242270759, 6.5431396416640997)	(-4.20154405004258, -7.9494454934737737)	(-1.5533785922465198, 2.5584278269089875)	(6.0119174281885872, -5.2450936143979705)	1.0	slash	1.49454
8	N	B	B	A	M	M	N	A	B	8	6	shapes	N	3	False	21	(5.3081653951427477, 6.1552308768103714)	(0.73750694841331388, 3.4675668007919107)	(7.1800398815802957, -0.5484197431048301)	(-8.3605295039578902, -3.1007461678014954)	1.0	slash	1.10448
9	N	B	N	M	A	B	M	A	M	8	4	shapes	A	3	False	21	(-1.9022413930393576, -1.8591923312564846)	(4.4376097465971647, 4.3903028590221727)	(-3.8472426648176548, 5.3107222284016142)	(-7.6367615722656135, -3.2174943918176755)	1.0	slash	1.43216
10	M	B	A	M					A	4	2	shapes	A	3	True	21	(-6.1088979361339497, -6.4628007052542378)	(1.7777904486689149, 4.3002083032553262)	(-7.9928868976131948, 0.85401535064289114)	(2.7869234036093626, -7.436499565531788)	1.0	z	0.82774
11	N	B	B	N					A	4	0	shapes	N	3	False	21	(2.7359360312090857, -1.755109798077136)	(0.60275808146320742, 3.6700406654813396)	(-1.7476719425119169, -2.903299751888901)	(-6.7571492024690034, 7.404255777621902)	1.0	slash	1.53751
12	M	A	A	M	B	N	N	B	A	8	6	shapes	N	3	False	21	(-1.1233618176749562, -8.3948234305869747)	(6.8664236444233904, -4.8436255441609823)	(3.2884518850186737, 5.3336445211568151)	(-6.2022425870446343, 7.3806071335336796)	1.0	slash	1.25082
13	N	B	A	M	A	M	N	B	M	8	5	shapes	M	3	True	21	(-2.0292682201691559, -7.1682511311902388)	(-2.76246582885575, 2.0266983643201968)	(3.9208799579759397, 0.48628820579871146)	(-6.5943512610675779, -2.3961460955927594)	1.0	z	1.02054
14	N	A	N	M					B	4	2	shapes	N	3	False	21	(2.9750561100420594, 1.6606938205801534)	(-5.0176425129942723, -6.4990049877219427)	(-8.0479747586388637, 0.49173378299567538)	(3.0403053450315909, -8.1521636214454585)	1.0	slash	0.810374
15	M	A	N	A	B	B	M	N	N	8	4	shapes	B	3	False	21	(4.5601068363281101, 0.031845318513012089)	(0.54230597925833557, -3.8372751070216351)	(4.8478063201385879, 7.1899189059452482)	(-5.6935288112960016, 1.0667283750495073)	1.0	slash	1.21389
16	N	B	N	M					A	4	3	shapes	M	3	False	21	(4.4150487129539293, -1.4650843753074909)	(6.6114743199244508, 7.3909196325517357)	(-1.1151133747200994, -6.4878097155293304)	(-4.6558867193952711, 3.667524620361263)	1.0	slash	1.46163
17	M	A	B	A	N	N	M	B	A	8	7	shapes	B	3	False	21	(-3.0740920080758505, 2.543945871360334)	(5.1943568529816844, -8.1369497064936489)	(-4.5846740870818241, -3.4995112295433453)	(1.5131556476532531, -0.39849786079567728)	1.0	slash	1.22925
18	N	A	M	M	B	N	A	B	B	8	6	shapes	A	3	False	21	(-3.7965323245760949, -1.8920782852889122)	(-3.9405143125114579, 6.4435341344244623)	(0.93868135374122019, 3.7407298918270762)	(-3.2709866226447355, -6.9262773316262845)	1.0	slash	1.07624
19	M	B	B	N					B	4	3	shapes	N	3	False	21	(-6.9141483675957405, -2.3689851093234724)	(7.0298200299447799, 0.56547890345159857)	(-2.7328052930999558, 3.5340896878247428)	(1.4653338381441579, -7.1627400538501433)	1.0	slash	1.05635
20	N	A	B	N	M	B	M	A	B	8	5	shapes	B	3	True	21	(8.4568608861808237, 7.3465124453802098)	(-7.4868262170731548, -8.1255659538925897)	(-5.2214691118429242, -0.67597484768284488)	(-1.2267437737310241, 1.4753254387456618)	1.0	z	2.6658
21	N	B	A	A					A	4	2	shapes	A	3	True	21	(-0.094435042226368893, 3.4551560474876784)	(7.0984327985417384, -7.2381719223730716)	(-2.7326175956019956, -5.8071996222321527)	(7.259376283556854, 3.3915717618321768)	1.0	z	0.983471
22	N	B	N	A	M	M	A	B	A	8	3	shapes	A	3	True	21	(-4.9593232955584572, 1.2768450975953485)	(8.5423898171511077, -8.5118694942879145)	(8.7267950763656721, 2.1768283862144671)	(8.3204378064086164, -3.8501483069537743)	1.0	slash	6.27911
23	M	A	M	B	A	B	N	N	M	8	0	shapes	M	3	True	21	(-4.5628502985321768, 6.7908074299650742)	(6.7179676889881161, -1.2054817737575352)	(-5.9555528608461472, 2.1570600397103554)	(2.2551050691854684, 6.1706442853795114)	1.0	z	0.836347
24	N	A	B	N	M	B	M	A	M	8	2	shapes	B	3	False	21	(6.2488870767849534, -2.732508859214108)	(4.6754742438041639, 6.7878677924910296)	(1.897698835811898, 2.6289595497354821)	(-5.9280263576259298, 5.0336291714160435)	1.0	slash	0.922055
25	N	B	B	M					M	4	0	shapes	N	3	False	21	(-7.8967689331893851, -3.7793955942976973)	(-3.8960362573960623, 0.74759259079906748)	(3.7143268364523578, -6.6198682505078681)	(2.0564998673807722, 2.8085238004430746)	1.0	slash	0.9637
26	M	A	N	A	B	B	N	M	N	8	6	shapes	N	3	True	21	(-4.8171189482187895, 5.6864464520374689)	(4.0464520540171289, 1.5625020503409015)	(7.7689106714273883, -3.245532891859102)	(2.2090177530264121, -6.3495606026132654)	1.0	slash	1.57525
27	M	A	A	B					N	4	1	shapes	A	3	False	21	(7.6912253481477748, 7.4845228091178733)	(-5.8873908511025963, -8.6732422825656883)	(-4.0664458069153868, 2.5599890554642428)	(1.033714193336948, -0.45788411067917423)	1.0	z	1.05476
28	M	A	M	B					M	4	2	shapes	M	3	True	21	(6.6726325384637715, -4.8803715739507894)	(-6.1280084382097426, -5.5583571885163492)	(-0.20093033744986855, 7.0127145814826779)	(6.057094832072794, 7.4656934563178474)	1.0	z	0.766615
29	N	A	N	M					N	4	0	shapes	N	3	True	21	(6.1629327995641567, 7.6449259599377655)	(-3.4248104457459787, 0.0016073641752676338)	(2.0892402352880932, -6.78631855476001)	(-7.1245610132785782, -5.627173548234385)	1.0	slash	5.17131
30	N	A	M	M					M	4	2	shapes	M	3	True	21	(1.5480185194560345, -6.0412972118515391)	(-0.26268657114780858, 3.216382032142123)	(4.8098203054109874, 3.6533549893969059)	(-4.2203875028686246, -5.8235607415655597)	1.0	z	0.871557
31	M	B	N	N					M	4	0	shapes	M	3	True	21	(2.3656335354094598, 0.62884706805113488)	(-4.368829042828259, -2.2388500306370824)	(-8.6473126663634314, 0.99124636164246382)	(0.57036434579796413, -7.1490465573859003)	1.0	z	0.699208
32	N	B	M	N					N	4	0	shapes	N	3	True	21	(1.7326911386533013, 7.7306468541701996)	(7.4012630579386283, -4.8181339181256799)	(-3.3514916420525251, -7.8998705398874245)	(-2.4865182966456887, 2.589671964483113)	1.0	z	1.47282
1	N	B	B	M					N	4	1	shapes	B	4	False	21	(0.55570813892628834, -1.4563958839175433)	(-4.6037017168727719, 8.4914971901101417)	(7.3555175326292463, 3.6884674578880148)	(-4.7908831006242707, -2.8831546692835639)	1.0	slash	1.00043
2	N	A	M	B	A	B	N	M	N	8	0	shapes	N	4	True	21	(2.8915389757444405, 6.1083868606717608)	(6.0144256904443179, -3.7663307723711572)	(-0.13633894450521389, -3.5019803806133361)	(-6.4640703507940493, 6.4759739279231479)	1.0	slash	2.79004
3	M	A	N	B	A	M	N	B	N	8	6	shapes	N	4	True	21	(1.6772780129009437, -0.87763857735755213)	(6.7118306892696449, -8.0806770025092263)	(6.3315140083026122, 4.8549450850622939)	(-7.8217107501061296, 6.1403903696681592)	1.0	z	0.645591
4	N	B	N	B	A	M	M	A	M	8	3	shapes	B	4	False	21	(2.6138287636591038, -1.5801424564183373)	(-0.13704649635037214, -7.2851831313928042)	(-7.7582847583575507, 7.1812789333445188)	(-3.916866678316234, 3.2163965792712457)	1.0	slash	1.32122
5	N	B	B	N	A	M	M	A	A	8	1	shapes	B	4	False	21	(-1.9106024375583841, 3.0690551974668399)	(3.5446401764905868, -8.3800989982697711)	(-7.5254943291795726, -0.076994699667443101)	(7.8938500574928696, -6.7239317897462723)	1.0	slash	1.32489
6	M	B	M	A					M	4	0	shapes	M	4	True	21	(-5.647119547777101, -1.1897812444908507)	(7.776606311767285, 8.5759767998670746)	(-2.4916234569273321, 6.5019323659790409)	(8.2570568010615553, -8.4177555791916383)	1.0	z	0.870506
7	N	A	M	A					N	4	3	shapes	A	4	False	21	(-4.3669159794970849, -7.7831513946989066)	(-7.4345328919238955, 7.5566991070165948)	(5.6978248029190475, 8.0177780534286853)	(0.089364125315222864, -7.4445757662651015)	1.0	slash	0.898235
8	N	A	B	B					A	4	1	shapes	A	4	True	21	(-3.467116468165659, -4.4067142747614749)	(4.3638746429269428, 4.5963357407776062)	(8.7119864800605207, -2.4570926500567625)	(-0.29089421055000209, 0.17745465394244064)	1.0	z	0.991776
9	N	A	B	B					N	4	2	shapes	B	4	False	21	(7.8328714629181739, 3.5193430992818282)	(-8.6324357612889031, 3.6506993612102825)	(-6.4849845525411647, -4.9282611452575935)	(1.3876802321892256, -2.9679494575255259)	1.0	slash	0.891433
10	M	A	M	A					A	4	1	shapes	A	4	True	21	(4.5736286387283318, 3.676903450130439)	(6.2757838876446197, -0.65355662595510289)	(-3.7586606081210521, -1.5952953214548371)	(-8.4327543890924144, 3.1214245842298407)	1.0	slash	2.02305
11	M	B	A	A	B	N	M	N	M	8	1	shapes	B	4	False	21	(-0.91929594147734051, -2.839466803110799)	(-8.577925637426878, 0.81583857097032464)	(-5.2396791149683812, 3.2123610449947986)	(1.1245027784561916, 8.1381651120881777)	1.0	slash	0.846744
12	N	B	B	A	N	A	M	M	N	8	4	shapes	N	4	True	21	(-7.2395385047178848, -4.4895790678300402)	(5.6530224363218604, -0.95699809862630048)	(-7.5302203105883834, 0.43203448643241593)	(5.4306108511751283, 6.2738972159781667)	1.0	slash	4.41819
13	M	B	A	N					M	4	0	shapes	M	4	True	21	(-4.120926808175323, -8.1467637375011162)	(2.2963884021282244, 3.4216582653114003)	(0.27199264792135835, -0.19695646280291967)	(-7.0397483217716594, 5.8895702425652434)	1.0	z	1.03158
14	M	A	A	N	N	M	B	B	M	8	6	shapes	B	4	False	21	(2.0270970528663312, -3.2206916551110663)	(-8.4378327902023624, -6.952204601531605)	(3.8965868061871056, 1.5566414163171221)	(8.0311189068956743, -1.250269880567469)	1.0	slash	0.81334
15	N	B	M	B	M	A	N	A	A	8	5	shapes	A	4	True	21	(-3.7547280271832468, -0.087922469039309448)	(-1.4843506530995354, 5.9338230314364395)	(-8.5647422790340997, -2.9405353882434397)	(-8.6136410525887097, 1.5612816111803145)	1.0	z	1.42297
16	N	B	M	A					M	4	1	shapes	B	4	False	21	(-0.21970601011175184, -6.7654922270688793)	(3.8958668390775841, -1.2392863316954443)	(6.8638303777429357, 2.5072651611823282)	(-7.2526833993807402, 3.8383735900622007)	1.0	slash	0.628563
17	M	A	A	N	N	B	M	B	N	8	5	shapes	B	4	False	21	(-6.2731306573676209, 4.7174169289942682)	(0.8874666480051836, -6.6504839058904484)	(-1.4728042445004412, -0.032744260419622861)	(-8.1658959771386641, -7.2977297212284045)	1.0	z	2.42817
18	M	A	A	M					A	4	2	shapes	A	4	True	21	(-7.0227580439950952, -5.9119569267652992)	(-3.5522675119151801, 4.9861048748155437)	(1.9237512578758498, -5.8652890522680119)	(0.71719166469668849, 2.9031491792331234)	1.0	z	1.78373
19	N	B	M	M					B	4	1	shapes	B	4	True	21	(-5.8478177520674146, 7.9035140689497752)	(-5.2627513783642179, -4.2493635122871138)	(6.7916511672745425, -8.157930163435573)	(8.5760298595499869, 1.1713544458164655)	1.0	z	1.09321
20	N	A	B	N					A	4	2	shapes	B	4	False	21	(0.88986609014953899, -3.2654210892372584)	(-7.9496373850013304, -2.3119660459667468)	(-0.50355446817314586, 3.6801975310903572)	(7.5848155951861536, 4.8292634963156456)	1.0	slash	1.06083
21	M	B	M	B	N	N	A	A	M	8	2	shapes	M	4	True	21	(-2.8042733698108098, -0.65299042450420153)	(8.5358222381848776, -5.0366431485627867)	(4.9101801271518628, -7.794372812169172)	(-8.4797929766085094, 5.807327248331724)	1.0	z	1.47646
22	M	A	N	N					N	4	3	shapes	N	4	True	21	(-1.0835025825306888, 5.8191590771866721)	(7.8370799700036393, 2.9751854435754623)	(-7.0219719156100737, -1.0596783129613954)	(7.6760466699432364, -1.2593632234388812)	1.0	slash	2.93408
23	N	B	N	A	B	A	M	M	N	8	2	shapes	N	4	True	21	(-4.0339465040659155, 7.7850046839992402)	(0.27752333612162339, -5.9440482051295822)	(-7.7171735003946322, 0.025260077667336844)	(3.4645192912440361, 5.0997560434895703)	1.0	slash	1.42375
24	N	A	A	B	N	M	M	B	A	8	2	shapes	A	4	True	21	(-6.73613147851637, 7.8287515411688275)	(2.0950072520614089, 3.9476593497154173)	(5.5709768346764434, -0.88943920698090739)	(3.4934650975060872, -8.1789443871502208)	1.0	z	1.48505
25	N	A	N	M	A	B	M	B	B	8	7	shapes	B	4	True	21	(-1.2589605412524669, 7.1273438173945589)	(-5.470165426215579, -3.8814300181885111)	(-7.150556322130285, 6.4588822042775949)	(3.9951622939761045, 2.7039671274739163)	1.0	z	1.28085
26	M	A	M	N	N	A	B	B	M	8	1	shapes	A	4	False	21	(2.693636825140084, -3.0888762928859395)	(0.10467112650251487, 6.2352915704808058)	(-7.6171533791817509, 8.5468983918961925)	(7.6054042538207938, 3.9248098952149046)	1.0	slash	1.28227
27	M	B	M	A	A	N	N	B	N	8	4	shapes	A	4	False	21	(-2.169194441937293, -2.5858822983034813)	(7.9124675292346929, -5.5593468296412798)	(-3.1623901096365588, -8.6443578919795954)	(-5.8883500906004764, 7.8917983882477749)	1.0	slash	0.822101
28	N	A	N	B					A	4	0	shapes	N	4	False	21	(-7.8484883328112511, -2.6266802516041858)	(3.4215486189398252, 0.8811741104184545)	(2.2126816234359854, -8.4749541595297995)	(-1.4702670810968668, 0.064100395303432478)	1.0	slash	1.25967
29	N	B	M	B					A	4	3	shapes	B	4	False	21	(3.9750349332922124, -6.5360191477407996)	(-1.5593418714505676, -3.939552651295771)	(-3.0327348071619911, 8.6626262647830217)	(6.1186856780219507, 0.14185869592765243)	1.0	slash	0.761439
30	M	B	B	A	N	N	M	A	M	8	1	shapes	B	4	False	21	(-1.3510217588703188, -3.2259499631724706)	(-1.9398577909290138, 8.2881962741171016)	(-6.0866473341243852, -1.0005127265942697)	(-3.6199814648401434, 3.635924951178092)	1.0	slash	0.997047
31	M	B	B	A					A	4	3	shapes	A	4	True	21	(-3.2834233245640405, 0.7687115184410267)	(5.3473002699943546, 2.8012386065930759)	(-4.6040900593002743, -7.1274082993199706)	(5.9085356450743181, -5.4348141823390064)	1.0	slash	0.870669
32	N	A	M	A					M	4	3	shapes	A	4	False	21	(6.9999904227112957, 5.5810619493013451)	(-6.1939933207556788, 1.4284138270093862)	(4.9903085678599801, -3.0305522688047875)	(-0.63017334861097041, -1.9281865147525359)	1.0	slash	0.802364
1	M	B	M	A	B	N	A	N	B	8	4	shapes	B	5	True	21	(2.1122405845400234, -6.893875851151086)	(0.87280111251235937, -2.6910948925964533)	(-4.3805172679969955, 7.7414545609536773)	(-2.4085970664126952, 1.7253857737892613)	1.0	z	0.945875
2	M	B	N	B	A	A	N	M	N	8	2	shapes	N	5	True	21	(-4.7239745848452728, 4.5834444652052113)	(8.6455273860868509, -7.1207210910726877)	(-8.6969441101450791, 6.2112902583815597)	(0.74791311621418544, 7.3058391933956415)	1.0	z	0.801705
3	M	A	N	M	B	A	N	B	B	8	4	shapes	B	5	True	21	(7.2016699461122489, -0.3478941299815812)	(-5.6734824455448365, -2.9058042361785237)	(0.99058290751800904, -5.743180499423187)	(-6.2709023344874506, -8.0159986874749602)	1.0	z	0.733317
4	M	A	B	A					B	4	2	shapes	B	5	True	21	(4.3679729179654245, -5.1303062692325119)	(0.8186180408785706, 0.10542777820764826)	(-4.8456522642861124, 1.360242454267528)	(-5.5777736677035925, -6.8595635882317803)	1.0	z	0.652912
5	N	B	B	A	N	A	M	M	N	8	6	shapes	M	5	False	21	(-0.082866128009191797, 2.6520935424230334)	(8.7493502546514073, -8.3845907145708267)	(-8.7451777017102472, 1.7534040918294682)	(-1.1017959911231872, -3.7209252143771741)	1.0	slash	1.03078
6	M	B	A	M					N	4	2	shapes	A	5	False	21	(-0.51881903532087748, -3.7635245615478041)	(-4.3513872811052661, 2.3603464067059665)	(3.5450124651638948, 4.5901733456908556)	(3.1840174711251379, -0.049189984752549876)	1.0	slash	1.0641
7	N	B	A	N					B	4	2	shapes	A	5	False	21	(4.8797393267991254, -7.2482619320136807)	(-2.9564812554665947, -0.092566196392983358)	(-7.3695741078477974, 0.4209658711694928)	(5.7966174043489929, 1.9222302873706294)	1.0	z	0.755832
8	N	A	A	N					A	4	2	shapes	A	5	True	21	(4.4501369574429273, 1.4902194554671766)	(1.5665235569532197, -3.3909546345433998)	(-3.5707512885475579, -2.908648330173496)	(-3.2265453034142419, 3.6684762433862925)	1.0	z	0.663544
9	N	B	A	M	M	A	B	N	B	8	0	shapes	N	5	False	21	(1.1926135319301174, -7.4615261551230159)	(0.17006984467141173, -2.7568004926621246)	(-3.3109157877905808, -0.4626825225540383)	(-1.0739313521974516, 8.3149758748373088)	1.0	slash	1.03114
10	M	B	M	B					M	4	2	shapes	M	5	True	21	(-0.71983365103621999, 7.0119253111487616)	(-6.1531206236703095, -3.9681685127673214)	(1.9656753017539259, -4.1486979101946062)	(8.5551290541659348, 7.1004494815258035)	1.0	z	0.530825
11	M	B	N	M	A	N	B	A	N	8	7	shapes	A	5	False	21	(-7.5043589408084994, -8.404846663375471)	(2.1590087088851906, 0.47866575286641933)	(-2.0720162243201177, -0.81218013511456544)	(4.6825643005927127, -3.0806761403686602)	1.0	z	0.684336
12	M	A	B	M					B	4	1	shapes	A	5	False	21	(1.0597636312785728, 8.2124146506535602)	(1.9685655005092677, -6.6853527583561956)	(-4.5295183769100271, 5.7821487442177535)	(-4.2616127776571116, -7.6656986044092346)	1.0	z	1.55818
13	M	B	B	N	M	A	N	A	N	8	1	shapes	B	5	False	21	(2.5739266480823737, 0.52144015840058167)	(3.6133392659824555, 7.266896715083071)	(-3.5741391603130834, -6.844011385582685)	(-3.8424728982988112, -2.3415966609732735)	1.0	slash	1.00379
14	N	A	M	N	B	B	M	A	M	8	5	shapes	B	5	False	21	(4.8759136019880742, 8.1423965229422173)	(7.4461534803947877, -4.8714477945396588)	(-4.3483462951773904, 3.2026278712835872)	(3.259800113673311, 3.7837528112168055)	1.0	z	0.831254
15	M	B	N	N					B	4	1	shapes	B	5	True	21	(8.082919355708146, 3.4784385441531409)	(1.2254214382290662, -6.3969009957851952)	(-0.83620597900921378, 1.4876369059563537)	(-3.0958946876413762, -5.3892634101187227)	1.0	z	0.739038
16	N	A	B	A					A	4	1	shapes	A	5	True	21	(0.49625434226004472, -5.5279126979940978)	(1.4797440166768165, 4.5945082811357132)	(-7.1946818257192149, 3.4685576284590702)	(-1.5432309297903881, -1.0700670916725219)	1.0	z	0.512613
17	M	B	B	A					N	4	0	shapes	M	5	False	21	(8.1661601892047138, -8.5811536619818707)	(-5.5125224613938091, 2.2116448978852574)	(-7.2225459067446787, -8.698291635591282)	(6.1362337627118286, 8.4675111178092415)	1.0	z	0.804313
18	N	B	M	B	M	A	A	N	B	8	1	shapes	B	5	True	21	(1.0288012652654199, -4.0945670767778957)	(0.87876102597303785, 6.3590442045986997)	(-5.6199105073646978, 5.3946215050714343)	(-3.249071135878463, -6.140196766427831)	1.0	z	0.856092
19	M	B	A	N	N	A	M	B	A	8	7	shapes	B	5	False	21	(3.2313131839728264, 6.7408582362923219)	(-0.070487316061678129, -6.8570576983840379)	(-3.25565206928718, 5.8353468254971705)	(-4.9046139106202293, -2.5121765671386056)	1.0	slash	1.12736
20	N	A	N	A					B	4	2	shapes	N	5	False	21	(-7.2894081782446154, 5.4154595300978592)	(-0.29981331610998119, -0.38903538149502737)	(2.8231083383238555, -8.6703885721566873)	(6.1963192276862582, 7.2519750639863574)	1.0	slash	5.60519
21	M	A	N	N					M	4	2	shapes	N	5	False	21	(2.5900667082787319, 8.1493608395132071)	(-6.656575360258155, 6.9438505585257388)	(4.0713240553212255, -0.035469128471770972)	(-6.8000095353271339, -7.6566661905395037)	1.0	slash	1.27652
22	M	B	M	B	N	N	A	A	B	8	3	shapes	B	5	True	21	(6.510721635212569, -2.0780093273065621)	(7.0796407831221924, 2.3803810477674343)	(1.8890229614132039, -5.8843488376892115)	(1.0976779846488505, 8.4360224582489955)	1.0	z	0.90625
23	M	A	M	A					A	4	0	shapes	M	5	False	21	(7.2727624284318999, -6.4197589219554274)	(5.2816691371619626, 7.992633810681582)	(-0.01501480152909096, -1.7922670191973706)	(-7.9402882213555728, 8.570045996788739)	1.0	slash	0.871901
24	M	B	A	N					B	4	1	shapes	B	5	True	21	(-2.0909757115802918, -5.2433420218654838)	(3.1210146612439971, 6.6510369929792592)	(-2.4663618562431679, 0.98806901890468168)	(2.4414929740776934, -3.6858859411461431)	1.0	z	1.32349
25	N	A	B	A					A	4	3	shapes	A	5	True	21	(-6.0437184921772626, -5.1412665395784121)	(7.3854967210660831, -4.1205324565588413)	(-4.8056137011496229, 1.2312878977698105)	(6.5095270917821928, 6.0532877093591786)	1.0	z	2.261
26	N	A	B	B					B	4	2	shapes	B	5	True	21	(5.7420490268725075, -1.9885822781794662)	(-7.7895433612736191, -0.43753793509873162)	(-2.650589328076447, 1.5088194511642765)	(6.6188831020857197, 8.6344036992581472)	1.0	z	1.96265
27	N	B	N	M	A	M	B	A	M	8	3	shapes	M	5	True	21	(-0.38849127778736126, -5.6813819130750787)	(-0.6622955309198737, 1.8764836410258283)	(3.878108938108376, 1.9682819470539989)	(4.7467866149476645, 7.7284148893517965)	1.0	z	0.982313
28	N	A	M	N					A	4	3	shapes	N	5	False	21	(8.0296177330965897, 3.5975415163120719)	(0.37079170253939964, -3.2546652130153566)	(-4.0653598353530978, -4.0364994518243531)	(-7.2376726396093751, 2.2643391062862221)	1.0	slash	1.21995
29	M	B	M	B	A	N	A	N	A	8	1	shapes	B	5	False	21	(4.7192723458480721, -2.7443722376076307)	(-6.409425241362106, 0.42077521063851364)	(-0.86952478507194719, -3.838790009406849)	(-2.3502535607710069, 8.40083336981019)	1.0	z	0.789373
30	M	B	A	N	A	B	M	N	N	8	7	shapes	N	5	True	21	(2.6582554661864037, -0.12580003867524958)	(6.0958093492813852, 7.7478165427611465)	(-1.4572982672126589, 7.0506567657570045)	(-3.7230185690605309, 2.4456360213242636)	1.0	z	0.677077
31	N	B	N	M	B	A	A	M	A	8	0	shapes	N	5	False	21	(8.3613306120088495, -4.7873339692196089)	(-0.8625335388378792, 2.8517682940056304)	(-3.5166290313436361, -1.0462390891568658)	(6.1090675943907922, 0.13409268838845634)	1.0	slash	1.10684
32	M	A	A	M	N	N	B	B	B	8	7	shapes	B	5	True	21	(2.5302865669853229, 3.1645848611559391)	(1.3082078831808168, -8.3920014444230251)	(7.4794006193416323, 6.140462494264133)	(-3.7857355916185513, -1.4183487648112951)	1.0	z	0.694441
1	N	A	B	B	A	M	M	N	M	8	6	shapes	M	6	True	21	(1.2929841405960492, 4.1600504989207092)	(0.45215738210526446, -0.54175723392481423)	(7.6592152764725476, 5.869586148851484)	(5.2227826895483567, -0.99837903806876582)	1.0	z	1.17825
2	N	B	A	M					N	4	1	shapes	B	6	False	21	(0.97746100772589806, -4.2538443055148489)	(-5.1388385871828302, -7.4088588608172934)	(-4.1586775902145723, 1.1380068786555828)	(2.0816142683479022, 1.6010636928052087)	1.0	slash	1.02377
3	M	A	B	A					A	4	3	shapes	A	6	True	21	(5.544136130251669, 0.24072959212375622)	(-0.56180972595217327, -4.5281057665641216)	(-1.7431335616000521, 4.9849733642987637)	(1.1726055547585563, -0.28546829237678573)	1.0	z	1.74146
4	M	B	M	B	A	N	A	N	N	8	2	shapes	M	6	False	21	(-1.958545108853186, 7.5894616770522632)	(3.498165902526793, -8.254541291901262)	(-7.9512097048816734, -7.9907428096592623)	(7.5914578246016227, -4.2652039041911278)	1.0	slash	1.38085
5	M	B	B	A					B	4	2	shapes	B	6	True	21	(7.5446794566641806, -2.1148619457242299)	(-0.70513017491288821, 6.5821334888832084)	(-7.4381890541861999, -3.6739365140582079)	(0.55533103784441451, 1.7796437787241945)	1.0	z	0.866625
6	M	B	A	M					A	4	2	shapes	A	6	True	21	(3.3510516516809101, 8.3816020598738348)	(1.1586949253685113, -5.5513697631870107)	(-4.0887629782565993, -2.2611110308175286)	(-6.7846770935037233, 1.9130307750372868)	1.0	z	0.816092
7	N	A	A	M					B	4	3	shapes	M	6	False	21	(-7.4293243242063136, 3.3120868509534329)	(0.50398713167463782, -6.5661937178376997)	(3.034336339911663, 5.6616472266143472)	(-8.4328548733364777, -2.8133274097650744)	1.0	slash	1.01594
8	N	A	M	B	A	N	B	M	N	8	0	shapes	N	6	True	21	(-6.3992150571333006, -8.5210470452202642)	(-0.66530140982079722, 7.0062203456900161)	(6.705117611357462, 4.7717022732872998)	(-6.9610265036848187, -3.486300346424283)	1.0	z	0.825655
9	N	B	N	A	M	A	M	B	B	8	3	shapes	A	6	False	21	(1.4693579127009659, -8.4767137881231598)	(7.9237582953552348, 2.985050471425275)	(0.84966532482490109, 4.5751615348867762)	(7.3768863765017798, -5.931276327638054)	1.0	slash	1.00923
10	M	B	N	N	M	B	A	A	B	8	7	shapes	A	6	False	21	(6.9608346666461571, 7.4156450327780128)	(-6.2991808276807211, 1.0951418734070657)	(-1.0164591160197016, -4.3301492357024411)	(5.6648755139542928, -8.7023795738691962)	1.0	slash	1.33262
11	M	B	B	N					M	4	0	shapes	M	6	True	21	(-2.076576135026424, 5.0483452819311729)	(6.437147484097764, -1.7697935618603573)	(-8.4909122250935933, -1.0162725771889418)	(3.0578691962417874, 8.7326398859501317)	1.0	z	1.29236
12	N	A	B	A					M	4	0	shapes	N	6	False	21	(6.7724466562864745, -0.18314991649938328)	(-1.6821353711597133, -3.6557849168184715)	(1.6504782656342982, 2.6541628296800646)	(-6.6694091343854023, 8.2941058899812035)	1.0	slash	1.88393
13	M	A	B	N					A	4	3	shapes	N	6	False	21	(8.5951358225641741, 4.8805050029766406)	(-4.6406448713605348, 4.8985783572596109)	(3.4644059681652699, -0.88389216205020826)	(-3.2311840563460033, -5.6706748023905025)	1.0	slash	1.49346
14	M	A	N	N	M	A	B	B	N	8	6	shapes	B	6	False	21	(0.21846817180042777, 6.9368377709898006)	(-3.6063827813874818, -4.9420530827391591)	(-8.5390656254095028, -8.0340212259388437)	(1.3530748141552102, -8.3947554031218843)	1.0	slash	0.945122
15	M	B	B	M					B	4	2	shapes	B	6	True	21	(1.4242204999400805, -7.5400415702374488)	(-5.5368614532131222, -7.0735233358172582)	(1.9180444651049804, 5.1486705895897931)	(-4.9050853067626328, 2.7217635085287402)	1.0	z	1.64471
16	M	B	N	M					A	4	2	shapes	N	6	False	21	(-8.5133477381951828, 5.3114159331713306)	(0.64780490696066551, -2.2570917492946547)	(-7.2905390824903602, -6.881093368410049)	(0.49791375580277197, 3.6415706737967906)	1.0	z	1.18239
17	N	A	B	B	N	M	M	A	M	8	5	shapes	M	6	True	21	(-4.6945348979917423, 4.7098071958054124)	(-5.9497828532647095, 0.20740963688716541)	(0.28993273102556927, -4.6498646377165587)	(-4.886732130139837, -6.4282695596099177)	1.0	z	1.04583
18	N	B	M	B	N	A	M	A	M	8	7	shapes	A	6	False	21	(0.8670623946583369, 5.7841011250115955)	(-6.6368826878214557, 1.4870616001930195)	(-7.8156929524475318, -8.5418653719159643)	(2.9356998623172181, -6.9492108780247364)	1.0	slash	1.0896
19	M	A	A	B					A	4	0	shapes	M	6	False	21	(-7.8251109678217814, -2.0343420889839239)	(0.078564707248151677, 6.1097482261700211)	(1.8471581664156389, -0.45758012359133282)	(-5.1540031700314923, 5.7601428484875647)	1.0	slash	2.17743
20	M	A	B	B	A	M	N	N	M	8	7	shapes	N	6	False	21	(2.0628276873742646, 2.8886137596351453)	(-3.7961592292814164, 8.2166413428762475)	(7.8215537690982302, 1.2220619995571891)	(-5.9639431149137101, 4.4696742202613624)	1.0	slash	0.776855
21	N	A	B	A					N	4	3	shapes	A	6	False	21	(-0.39210517423036428, -2.9501278467168524)	(5.5035951089818607, -7.3411228337052243)	(-2.4596749560831643, 5.4976448191197669)	(6.0962774603571894, 8.0510303522879454)	1.0	slash	2.13433
22	N	B	A	B					B	4	1	shapes	B	6	True	21	(7.0684708206361027, -4.6645509555182647)	(-4.7652617975508935, 6.923844342922532)	(-6.5573007790215128, -2.2549535491545178)	(3.6838860134127707, 7.0642506739750228)	1.0	slash	3.34947
23	N	B	N	B					M	4	1	shapes	B	6	False	21	(-1.254265820802674, 7.1194322570892119)	(-4.4714567373489018, -4.8825065129631575)	(3.6271857899156039, -0.93424571626177766)	(2.7543549921591239, 3.4362518834414146)	1.0	slash	1.98552
24	N	A	A	N					A	4	2	shapes	A	6	True	21	(2.0572344813558807, 5.106817598030668)	(-4.2538809981071353, 2.4518368461891988)	(8.618574012537227, -7.3451286099401321)	(-6.4296816999738962, -4.8267708386507966)	1.0	z	1.287
25	M	A	M	A	N	N	B	B	N	8	2	shapes	M	6	False	21	(5.5274723589057313, -2.0652853494905132)	(7.4467775818040778, 5.7615399317039628)	(2.9885216066073994, 2.2304316060951983)	(-8.6193071388593783, -8.3724286050643606)	1.0	slash	0.730801
26	N	B	B	M	N	M	A	A	N	8	0	shapes	N	6	True	21	(-4.0404194376292342, -6.5321079902196271)	(7.8344826703972359, -0.30081065170621457)	(-0.95545455194200279, 7.9490889243245384)	(0.78786242226644454, 3.6951453250781601)	1.0	z	1.38846
27	N	A	A	B	B	N	M	M	M	8	7	shapes	M	6	True	21	(-6.0470088471104244, 2.2723263216100413)	(4.0175283003934972, 3.3374288148623954)	(-1.6515177829957137, -4.7332935095623396)	(-5.4632017789253835, -2.1111563666842317)	1.0	z	0.76395
28	M	A	N	A	N	M	B	B	A	8	3	shapes	A	6	True	21	(2.1135055916164838, -4.2903219597637081)	(5.5082019038374117, -8.394748519471058)	(-6.9986143740031848, -8.4001469293100364)	(-8.1943995781324759, -0.71910440931842423)	1.0	z	0.7277
29	M	A	A	N	M	N	B	B	B	8	7	shapes	B	6	True	21	(6.9741266498753998, -3.3359279634692092)	(5.649449063559473, 3.325946949084587)	(-1.2664259381975045, -3.4570595113597369)	(-7.5671529448105472, 6.8975548750501048)	1.0	slash	1.61166
30	M	B	N	M					M	4	3	shapes	M	6	True	21	(-3.8243419934805205, 5.6126360884196558)	(4.133935183966484, 3.4623609853714932)	(-7.9037464822471408, -3.4393355207971066)	(3.2873654587158718, -8.7210341883514744)	1.0	z	0.62467
31	M	A	B	N	B	M	A	N	B	8	4	shapes	B	6	True	21	(8.1601651976251155, 5.443518492736537)	(-4.7927517430083038, 1.2593151923989314)	(1.8955535364010583, -8.6680020710420891)	(-6.8674973736075611, -5.6141412693820802)	1.0	z	0.992647
32	M	A	A	N	N	M	B	B	N	8	7	shapes	B	6	False	21	(-2.5051037266283522, -5.1273881378971433)	(7.6567596891724428, -8.7425951464728957)	(3.0549266242878126, -5.9762091221895313)	(-8.6296731465947261, 8.2801138442837185)	1.0	z	1.18219
1	M	B	B	N					N	4	2	shapes	B	7	False	21	(-4.0497059522150298, 7.9677486900836172)	(4.0861314103243185, -4.9762337739929876)	(0.56163930414155239, 3.722673483730464)	(-8.416597885200586, -0.15431586190379321)	1.0	slash	0.839844
2	N	A	A	B	M	M	B	N	N	8	4	shapes	M	7	False	21	(-2.2309101888044944, -8.4935034994685434)	(-0.89218555202564342, 2.9696655770600202)	(0.77314042054267063, 8.2655102593521654)	(-5.7057307460385758, 4.3526777937388168)	1.0	slash	0.941408
3	M	B	N	M					N	4	2	shapes	N	7	True	21	(6.4389245178459742, -8.0075748639927706)	(-1.0393358479395562, 7.1713416380264619)	(4.3293670924660663, 6.5334067909931921)	(-0.85296571588446479, -0.72170865028979492)	1.0	z	0.963087
4	M	A	A	B	B	M	N	N	A	8	2	shapes	A	7	True	21	(-2.0785745369912503, 5.6297208407635093)	(2.0858582456855679, 1.6042281977880997)	(6.922642942836422, -3.7984315893678504)	(-4.6195595302737154, 0.22588852670980941)	1.0	slash	1.22073
5	N	A	M	B	N	B	M	A	A	8	1	shapes	A	7	True	21	(6.0089348364417567, 7.6489330391037136)	(7.1482259108368851, -3.9121233005813876)	(-4.0339290686346043, -5.821449236294673)	(2.174159796990299, 1.2125683961875922)	1.0	z	1.16449
6	M	A	B	B	A	N	M	N	A	8	3	shapes	B	7	False	21	(-1.7181661851050469, 6.9747617328382798)	(-3.7417504918246713, -4.3249467050719268)	(-0.43316073306157854, 2.8337409920094387)	(5.4349388686667339, -7.3045749837094531)	1.0	z	1.18403
7	M	B	N	A					M	4	3	shapes	A	7	False	21	(1.6611557521807949, -4.0190442172065266)	(-4.7362507079803287, -1.8984004386049174)	(1.2900987701450486, 0.56529580737801588)	(-6.2278058888872527, 3.1109980450926802)	1.0	slash	0.717344
8	N	B	B	N	A	A	M	M	B	8	0	shapes	N	7	False	21	(4.1483009421986079, -3.5504965698116608)	(-5.0767911671818169, -3.7446732918748218)	(6.4393611543323921, 2.6152795748013826)	(2.3669701188301051, -7.9463850693079996)	1.0	slash	1.0573
9	N	B	A	B	M	A	M	N	A	8	3	shapes	B	7	False	21	(-4.8716663049953759, 4.8198260634507299)	(-1.0258844497956323, -3.6510455043641228)	(-5.2491250281201127, -0.93767708789678483)	(2.889754786380422, 5.2996847569118852)	1.0	slash	1.87287
10	M	A	B	B					B	4	3	shapes	B	7	True	21	(-7.3140895283144314, 2.3051017174772959)	(6.7170667985840797, 3.9352721261496644)	(5.8602686180131265, -3.9897976036493707)	(-8.2237573926970011, -2.1209530136855399)	1.0	z	0.508498
11	M	B	N	M					B	4	1	shapes	B	7	True	21	(-0.15667583256314899, 4.4164925244946343)	(-6.495145587763874, -7.7481539223702018)	(6.7578893039227044, 6.5083982707106784)	(4.2691618002586527, -7.9759850296783705)	1.0	z	0.864193
12	M	A	M	N	B	A	N	B	A	8	1	shapes	A	7	True	21	(5.5403978516090291, 3.5625098817553944)	(-4.9422295895320678, -8.5872013542406993)	(-5.6295251179055912, -2.9900780894464969)	(-2.2974725138448182, 7.0362891767408122)	1.0	slash	1.2317
13	N	B	B	N					A	4	0	shapes	N	7	False	21	(7.3973325227073374, 4.8933379690318244)	(-8.0004736303667237, 4.7439121347867701)	(0.32488690513562801, -5.4346092823005634)	(-6.3536360276914055, -7.9715867521793049)	1.0	slash	1.33133
14	N	A	B	N	A	M	M	B	A	8	7	shapes	B	7	False	21	(0.28913196356718451, 1.4456662692028956)	(-3.6345893123689752, 7.7280061103430207)	(8.6058332738567991, -7.2650272856337299)	(-6.8764180358797269, 4.54266199016865)	1.0	z	1.82111
15	N	B	A	B	A	M	N	M	A	8	4	shapes	A	7	True	21	(-6.5610435817077626, 3.9252674443611806)	(8.5699838401518029, 4.8366851697233706)	(-2.8475711758002129, 0.11690386542924713)	(-8.2756054017089351, -7.6625092578772627)	1.0	slash	1.08451
16	M	A	N	A					B	4	2	shapes	N	7	False	21	(8.6220699680775006, 3.3029320799505495)	(0.27713882246819033, -1.8285747804778829)	(-6.4539746142295709, 2.940326889435724)	(-7.2774919890465961, -8.6345306408506719)	1.0	slash	2.02833
17	M	A	N	M	N	A	B	B	N	8	2	shapes	N	7	True	21	(0.43587231260785231, -3.5398334417466435)	(-7.706460394614723, 7.326832289696668)	(0.48433634376285362, 7.6701422724871158)	(-5.8015030763564734, -0.64943915983724132)	1.0	z	0.8678
18	N	A	B	A					A	4	1	shapes	A	7	True	21	(6.7545579150965782, -6.6801024140230183)	(2.7137140312590784, 2.0008069621424944)	(-8.4660972799411738, 5.1480093846760209)	(-3.5423470940740529, -6.1838297560063831)	1.0	z	0.543399
19	N	A	N	A					N	4	2	shapes	N	7	True	21	(-3.6172649817413944, 6.5570641773408962)	(8.0359006152353594, 0.57339734016540334)	(1.5183500910378758, -7.4052218396975906)	(-7.16093161707653, -5.4761029674395303)	1.0	z	0.749128
20	N	A	B	A	N	M	M	B	A	8	4	shapes	N	7	False	21	(-3.2157032103089884, -2.5600637223831191)	(0.94042609402360888, 6.5673099092264486)	(8.2428146289533828, 1.5556573844841406)	(8.0158128182664043, -8.4501003594571529)	1.0	slash	0.612844
21	N	B	B	A	M	N	M	A	A	8	7	shapes	A	7	True	21	(-7.2746666614101363, -6.5602471878655244)	(6.4776440669282653, -7.8046552881569777)	(8.4572327469476072, 4.2050164519411783)	(5.4144956540661973, -1.9972895436732374)	1.0	z	1.56368
22	M	B	B	M	A	A	N	N	N	8	1	shapes	B	7	False	21	(-7.5066496170950021, 4.5621457814175184)	(-3.6699654772048484, -1.6559425734546398)	(0.29844860994681355, -0.9149774220173148)	(-8.2437387474873116, -1.3685341512640194)	1.0	slash	2.87186
23	N	B	N	A					A	4	0	shapes	N	7	False	21	(-5.8024235939924242, 2.0270741296646335)	(0.92892211290149262, 1.8653866194582314)	(0.55455029197680794, -5.74435354780368)	(-7.2040573931262628, -5.7475737839732162)	1.0	slash	0.819482
24	M	A	M	A					A	4	1	shapes	A	7	True	21	(0.24186926722113533, 8.1627911479913706)	(6.7906117945598314, -6.3715989176263568)	(-2.5139826716013092, -1.8679680921301278)	(-2.0181601956564386, 3.7062416970593421)	1.0	z	1.23308
25	N	B	B	M					B	4	3	shapes	M	7	False	21	(-7.2832229282373486, 5.8065159469664795)	(7.7149373060563953, 0.52231929980575487)	(2.8392484143191012, -0.13117897405018297)	(-1.8457739921442071, -5.0932634064870044)	1.0	slash	3.30082
26	N	A	B	N					N	4	3	shapes	N	7	True	21	(-3.1474297456422153, 4.1651797165555866)	(3.0442653450570099, 5.1629552229559827)	(-0.94774272493656042, -5.5667752752908584)	(5.4414049673042459, -1.6992298648850266)	1.0	z	1.30617
27	N	B	A	B	A	M	M	N	A	8	4	shapes	A	7	True	21	(5.9822693756403034, 6.4701199042186133)	(-3.598621922348145, -7.8647725239723485)	(1.0296428250507486, 3.9242906964362092)	(-6.3304708575816102, 3.4132578664006168)	1.0	slash	1.52998
28	N	B	A	M	A	B	M	N	B	8	5	shapes	B	7	True	21	(5.7112773356189646, 7.5385389918000456)	(-4.1727836836127468, -2.1669598760601207)	(1.6577957853868153, -4.247702069510181)	(-6.1895681421519324, -7.3692519495940036)	1.0	z	0.653073
29	N	B	M	B					M	4	2	shapes	M	7	True	21	(-1.449478999460343, -6.8681961071731887)	(-8.0347580037688608, 0.41420598029657363)	(5.5592157934591917, -8.1545741585863247)	(3.5145698670910495, 3.00436786771977)	1.0	slash	0.629177
30	N	A	A	B					M	4	1	shapes	A	7	False	21	(-4.6938004836933018, -5.9928747446566524)	(7.1819023638946824, -5.5680522865806914)	(-2.6533288310250658, 5.152917826829551)	(5.1947419441858944, 6.5235507642552459)	1.0	slash	1.20884
31	M	A	A	M					B	4	3	shapes	M	7	False	21	(3.7615293864516239, -2.1398085427585922)	(5.2759703977707737, 5.2574091900943127)	(-2.030576480984835, 1.5174591392647798)	(-6.7241266359387168, -3.8649611265905026)	1.0	slash	1.21648
32	N	B	B	N	A	M	M	A	N	8	6	shapes	M	7	False	21	(0.61554202411435277, 2.4025665153227305)	(5.7860447568055058, 0.72743826576955328)	(-1.6264748872037371, -3.9391493077035156)	(-3.1372837670412164, 7.25010281867457)	1.0	z	1.22604
1	M	A	M	A	B	N	B	N	A	8	1	shapes	A	8	True	21	(-2.5707974356151011, 1.6925631951990994)	(0.47201698087293842, -7.6970474103022291)	(-3.6399175760278988, 8.4593818149513105)	(1.2677802590154386, -1.2417664631370906)	1.0	slash	1.72567
2	M	A	A	M					N	4	3	shapes	M	8	False	21	(0.20844893017047106, -3.8526054577420235)	(-5.8343768870591628, 4.8117360292835141)	(5.6919637472856124, 6.0013602989422115)	(-1.7205554084826291, -7.4889120180914723)	1.0	slash	1.91124
3	N	B	M	A	M	N	A	B	N	8	1	shapes	B	8	False	21	(-0.36567071649659155, -3.6630677644180434)	(-8.4376115829374552, -5.1288504768486893)	(7.9646254950257607, 1.6743116744193891)	(2.6627305154906331, 5.622786514861831)	1.0	slash	3.45049
4	N	B	B	M	M	A	A	N	B	8	5	shapes	A	8	False	21	(8.1104854352552245, -0.41424736226332826)	(1.3045191600239132, -7.0612955831924218)	(-1.2450130761924685, 8.0456764985482536)	(0.38382898119207987, 0.89444358695758197)	1.0	slash	1.6563
5	M	A	N	B	N	M	B	A	M	8	0	shapes	M	8	True	21	(-1.8797460864775397, 0.98834122371607513)	(6.0632639325822257, 0.10701596954428894)	(-3.7119483396526922, 8.6903599815887631)	(-0.10646213677175531, -3.2875931250346477)	1.0	z	1.01788
6	M	A	B	B	M	N	N	A	M	8	0	shapes	M	8	True	21	(-4.6527976940976448, 2.5068518340807877)	(-8.0678418097171782, 4.6526706810176286)	(1.4225364630561188, 1.9782381646068838)	(-8.23579624423882, -1.7418345296555584)	1.0	slash	4.00339
7	M	A	B	A					N	4	2	shapes	B	8	False	21	(-3.5194560878329169, 3.5952752701663115)	(3.5079432400282844, 5.0883969528780995)	(-4.9399693312300847, -0.29375942918051656)	(6.2199250592340594, -1.2375164170206041)	1.0	slash	1.22058
8	M	A	B	A					A	4	0	shapes	M	8	False	21	(6.299589189684756, 2.3745518980743991)	(-4.5272654564837866, 5.6168150463458684)	(3.8124717306831801, -2.868194198065976)	(-4.224929380769292, -4.986225926057843)	1.0	slash	1.13846
9	N	A	A	B	B	M	N	M	A	8	3	shapes	B	8	False	21	(2.0317561334473364, 2.3089265098105081)	(2.668717053106791, -2.1774256028386407)	(-2.3132088899161465, 0.78953117113883664)	(6.4077299288149643, 8.419859607001996)	1.0	z	2.87613
10	N	A	N	A					M	4	3	shapes	A	8	False	21	(-5.154912784383523, 1.1779431658041197)	(-1.7632920944615673, -4.8706390418924386)	(2.2491309623667277, -0.97600326445317531)	(1.1613524575190315, 5.0874980429655547)	1.0	slash	0.767587
11	M	A	N	A	N	M	B	B	B	8	6	shapes	B	8	True	21	(2.582651878114234, -2.5815672938186784)	(3.1564187799494228, 6.9769029533711961)	(-5.9325525591763899, 2.2158723717115372)	(0.042376300082526797, -7.7777518985102683)	1.0	z	1.20338
12	N	B	A	B					B	4	1	shapes	B	8	True	21	(1.6000436158930587, -3.9274949869999176)	(3.9158735297392351, 5.7557790985432806)	(-4.887891964316827, -1.3812201483392981)	(-1.6755491428763145, 8.4174045180671975)	1.0	z	0.72483
13	M	A	A	N					M	4	3	shapes	N	8	False	21	(5.319886181436841, 4.9269746318308272)	(-7.9879829432759113, -0.37532870410059083)	(-3.2538440731987004, 0.99760943145912151)	(8.5649731442200974, -0.013720484963878121)	1.0	z	6.47038
14	M	B	A	A					A	4	2	shapes	A	8	True	21	(-8.1398834629955594, 7.2411761110658137)	(-2.3683850853346167, -0.099236131129897487)	(4.1577647891192147, -8.082938270643627)	(4.5562237864142503, 6.042300012638302)	1.0	z	0.535818
15	M	A	M	N					N	4	3	shapes	N	8	True	21	(-5.2017535676063824, -7.1550073750693279)	(0.43484883667120222, 1.8071895709598405)	(-5.3562258093040374, 8.3974989584523705)	(8.4691003503142319, -5.2716976470070849)	1.0	z	0.847401
16	N	B	N	B					N	4	0	shapes	N	8	True	21	(-5.8768697437902748, 8.2414371918552938)	(4.431930349259213, -7.7682827833860255)	(2.721206772568026, 2.5714909367764864)	(-3.8597330544356803, -4.6809929516815627)	1.0	z	0.671145
17	M	A	N	M	A	B	N	B	M	8	3	shapes	M	8	True	21	(-0.22821479659473987, -2.6329198443366471)	(2.7397943742833633, -6.4258740642338026)	(6.4607995708931512, 0.88930513373834685)	(1.023719429922588, 6.1281211176527624)	1.0	z	0.756766
18	N	B	B	A	N	A	M	M	B	8	1	shapes	B	8	True	21	(-5.2386646823346208, 5.3699889455153578)	(-5.6487963730287856, -5.8565747921923705)	(-7.4656601722264986, 0.74103201284220788)	(1.2429587314308215, 5.1070783147730481)	1.0	slash	1.20252
19	M	A	B	M	N	N	A	B	B	8	0	shapes	M	8	False	21	(6.4781436664530236, 2.6387173493153355)	(-1.0878789833401035, 8.7095929334938127)	(1.6504285084731176, -5.4426181051294273)	(-8.5369179567498463, 4.4208709703841542)	1.0	slash	1.05211
20	N	A	A	M					A	4	3	shapes	M	8	False	21	(-4.5222303205781849, -3.4309557949302736)	(1.2305468788019382, 4.7553788381615902)	(-7.5622614522803078, 6.4864306732150609)	(6.6509312844421622, -5.9658486443925316)	1.0	z	0.979918
21	N	B	N	A	B	M	M	A	B	8	5	shapes	M	8	False	21	(2.6883453606851013, 2.9420330555873022)	(-0.072710256684009877, -7.9297600650565432)	(-1.0332862361711177, 1.2158821172102545)	(-6.6587328582695715, -5.4143856248091282)	1.0	z	0.909528
22	N	A	N	M	A	M	B	B	M	8	0	shapes	N	8	False	21	(2.537357726884629, -0.1413609663810913)	(-3.2784879515369845, -7.0285113448310401)	(-1.4715447679376803, 1.7029360321042937)	(2.9307122907582936, 7.8819731513440345)	1.0	slash	0.701104
23	N	B	B	N					N	4	3	shapes	N	8	True	21	(6.4156200031390771, 4.177929941311648)	(-0.28757039364073478, -8.1187104640060532)	(-4.3756002543721744, 6.3755599464553381)	(8.5302416217658426, -1.2761557340973546)	1.0	z	1.40262
24	M	A	A	N					M	4	2	shapes	A	8	False	21	(-3.9414961831434043, 7.5420601308224064)	(3.8236354739544129, 2.8724286246122137)	(7.1348888539513879, -5.2016830765435174)	(-4.1222570958486582, -5.8002791099708002)	1.0	slash	0.916327
25	M	A	A	M					A	4	1	shapes	A	8	True	21	(2.3210050567391125, -2.8828821057752556)	(-0.23274758331440637, 6.5425201554156232)	(-7.9951958945953372, -4.7465579289304287)	(6.3111868602632146, 3.1177665245091912)	1.0	z	0.767983
26	N	B	M	N					B	4	3	shapes	N	8	False	21	(-7.2271142834468503, -4.6983424849812989)	(-4.9590477380066362, 3.003086964834722)	(7.1894508967661341, 6.666786987569898)	(3.3229985346795772, -3.4884285336394427)	1.0	slash	1.1915
27	N	A	M	A	N	M	B	B	B	8	4	shapes	N	8	False	21	(-8.5440366378542514, 6.2021335212481574)	(1.6913402746659436, 0.65287104780110283)	(-6.6653649203134826, -6.7526773538601272)	(5.0116419932297784, -1.7859150999056359)	1.0	slash	3.36723
28	N	B	A	A	N	M	M	B	B	8	1	shapes	B	8	True	21	(-8.0455588409179359, -7.339981455596825)	(2.971239716646803, 0.80840540859405863)	(-3.5545868423524638, -0.54969252115872358)	(6.317173942444871, 3.7039818377796756)	1.0	z	0.991261
29	N	A	B	A	B	M	M	N	N	8	7	shapes	N	8	True	21	(-0.40055253687816261, -0.092481000839528704)	(5.582171782135056, -7.0895077632555816)	(-6.8162666378331895, -7.3776007865150239)	(-6.2024439216603842, 1.4451522662625464)	1.0	z	0.530164
30	N	B	A	A	B	N	M	M	B	8	3	shapes	A	8	False	21	(-6.7266259380502422, -7.3578010062740553)	(-1.734655128811279, -4.5276110621580843)	(3.0064962282602092, -6.3422956008655547)	(-2.290549511712773, 4.1847704166509185)	1.0	slash	0.846028
31	M	B	B	M					M	4	3	shapes	M	8	True	21	(-3.1873886444054405, 8.2859613028252248)	(2.6941471670445747, -2.3256058042420529)	(3.268184525794549, 1.9894822537254484)	(-2.3130578274899758, -0.82314306872029785)	1.0	z	0.775536
32	M	A	N	M					M	4	0	shapes	M	8	True	21	(-7.4232772960179325, -5.6914673524889743)	(7.2966450168995856, 2.8159040499216683)	(5.7492440338432669, -5.8693434855415383)	(-5.6477542051420517, 4.1818766374753462)	1.0	z	0.551205
