TrialNumber	stim0	stim1	stim2	stim3	stim4	stim5	stim6	stim7	stim.probe	ttl.stims	corr.num	trial.type	stim.corr	block	match	Subject	stim.pos0	stim.pos1	stim.pos2	stim.pos3	ran	resp	RT
1	N	A	N	B	M	A	M	B	A	8	1	shapes	A	Practice	True	22	(5.3591639515106149, 3.3236904229720921)	(-1.2403178053836355, 5.6643868677707108)	(5.5260342287280189, -5.4460055766136506)	(3.2298530641823451, 6.8337778780730574)	1.0	z	3.81009
2	M	B	B	M	N	N	A	A	B	8	1	shapes	B	Practice	True	22	(-8.4752135568521165, -6.6711440317569632)	(-4.9291504647174467, 0.7144432008368522)	(3.7088795371624812, 6.1693197684028824)	(-2.0779006682389509, -4.3373715752861424)	1.0	slash	1.42156
3	M	A	A	N	M	N	B	B	A	8	3	shapes	N	Practice	False	22	(-5.0334085561002073, 2.7788101144266886)	(-2.4100249483273348, -1.4716208578076966)	(2.3503210380145045, -4.7524579539187695)	(5.7078150764617579, -2.3479122908263248)	1.0	z	2.10925
4	N	B	N	M					B	4	1	shapes	B	Practice	True	22	(-7.3418688660538294, -0.71120031760182201)	(0.33413481607871098, 1.8943156702677122)	(-3.7295645520193181, 6.7465129508741573)	(8.1878057702460865, -8.6401590390031267)	1.0	z	1.45676
5	M	B	A	A					A	4	3	shapes	A	Practice	True	22	(-0.51011289617776612, 7.2468392585032504)	(7.8983007497325488, 6.9993739484139379)	(5.4890354325683948, -0.37919566390884718)	(-6.5479548813792841, -3.8083634818952223)	1.0	z	1.02421
6	N	B	A	A					M	4	0	shapes	N	Practice	False	22	(-2.1905672474289659, -8.4371672533162183)	(-7.0526715754755305, 8.3670987761257756)	(4.7050937795570658, 1.1068545525334468)	(1.3163892898077503, -3.1578188066351123)	1.0	slash	2.04586
7	M	A	M	N	A	N	B	B	N	8	0	shapes	M	Practice	False	22	(-5.3162636438805571, -5.0797935055273706)	(-1.0608467087730338, -6.084581600537871)	(-6.373095082398895, 8.0756252274822842)	(-6.5759193328291801, 1.8080270695870979)	1.0	slash	1.15347
8	M	B	A	B					M	4	1	shapes	B	Practice	False	22	(-5.7099761441835897, -5.2098906068628157)	(3.4396850945201702, 5.5578455291543758)	(-6.1646708475566063, 4.7816845537633093)	(8.205934374231866, -5.0290069917077043)	1.0	slash	0.932715
1	N	B	N	B	A	A	M	M	A	8	5	shapes	A	0	True	22	(1.329514127573157, -0.70432836243387875)	(6.1836741339927119, -6.8148251691532522)	(7.9230976067572598, 8.2926329378763981)	(-8.1224035622033313, 3.4808240062180484)	1.0	slash	1.62965
2	M	A	M	B	B	A	N	N	B	8	1	shapes	A	0	False	22	(-3.2554381626647615, 1.8091895432983875)	(7.2741960875266223, -4.6013037726873964)	(7.0939109949242756, 6.0264069360551549)	(-7.5148341326361434, -7.6055084195392411)	1.0	slash	2.06131
3	N	B	A	N	M	M	B	A	M	8	1	shapes	B	0	False	22	(6.9564804026695537, 1.6631361946098906)	(1.3450999616178692, -7.8623009388549576)	(-8.1039623869746418, -2.1471843159060171)	(1.0670891152829682, -0.22353785595382369)	1.0	slash	1.26084
4	M	A	M	N					A	4	3	shapes	N	0	False	22	(4.6939128362732205, 5.275725365973793)	(-0.41567306316941988, -4.0994778280618229)	(-7.4527741099938245, 7.9843500142221551)	(5.8838214908569277, -5.3585903566645428)	1.0	slash	1.06649
5	N	A	B	A	M	B	M	N	N	8	3	shapes	A	0	False	22	(-6.2209287288786204, -3.0003986160720535)	(-8.598679234668019, 7.6216836773452279)	(-5.5019048843615916, -7.2492982121302392)	(-3.4857670408505417, 7.1832691234328969)	1.0	slash	0.874235
6	N	A	N	M					N	4	0	shapes	N	0	True	22	(-1.2695336688111718, 7.8323213802802272)	(-8.6444134208580117, -7.5162352459812283)	(5.913055274666247, 6.0747695291101831)	(0.43994963998163605, -7.4205135985884496)	1.0	z	0.493796
7	M	A	A	M	N	B	N	B	A	8	4	shapes	N	0	False	22	(0.14319433724936559, -6.099186133435186)	(4.7856318077514288, -2.6318190316590924)	(2.3956307180787206, 4.7289776198497613)	(-4.3411860368271853, 0.25540224492374897)	1.0	slash	0.655456
8	M	A	M	N	B	A	B	N	B	8	7	shapes	N	0	False	22	(-6.1674162313790468, -2.3029552319364468)	(-1.8242671653150833, -1.5105285267431849)	(3.9188027920228379, 4.9185904661282223)	(1.665686745919702, -5.0037088425611564)	1.0	slash	0.777051
9	N	A	M	A	B	N	M	B	M	8	6	shapes	M	0	True	22	(-3.033683376760246, 6.6786986971476452)	(8.3710200434587883, -3.5306234993793035)	(0.41775742395373427, -0.88440371935723139)	(-6.4062676746590146, -2.6903784584004846)	1.0	slash	1.04884
10	M	A	M	N	B	N	B	A	A	8	1	shapes	A	0	True	22	(8.0612929554724637, 8.2522763407388062)	(1.5912610883083307, 0.95095530753993884)	(0.92860924257900201, -5.2020226070926103)	(-4.6329908951108072, -1.3536312052458532)	1.0	z	1.85234
11	M	B	M	N	N	A	B	A	M	8	7	shapes	A	0	False	22	(2.9822716530744735, 4.8156710745052358)	(-1.9917051390089773, -2.7758227818021846)	(-5.1402753071355534, -7.9687627475137184)	(0.87772259721810464, 1.1859329812689197)	1.0	slash	1.07004
12	M	A	M	A	N	N	B	B	N	8	2	shapes	M	0	False	22	(5.8024331563563081, 5.4541371745371805)	(-5.1368819238220702, 5.5302449189876572)	(-5.2291912744974294, -8.0881494713590776)	(6.4767449232758363, -6.5282886120505772)	1.0	z	1.73349
13	M	B	A	A					M	4	0	shapes	M	0	True	22	(-7.8728490396952351, -6.04326455327414)	(5.6470273701193801, -2.0108763823418858)	(2.6638287587084442, 2.0986915418240883)	(-5.1292585032067137, 6.3956621521079988)	1.0	z	0.829204
14	M	A	A	B	N	N	B	M	N	8	5	shapes	N	0	True	22	(8.3636706368733407, 2.019989250787539)	(-6.8067763080177626, 2.7653622182681978)	(5.7175277943758882, -4.7951648073818998)	(1.120872129408788, -3.6430444848360848)	1.0	slash	3.43688
15	M	B	B	A					M	4	0	shapes	M	0	True	22	(-4.5247470288114044, 0.95745004329105399)	(0.9585264393792059, -0.43360392402653503)	(4.6565346966506773, 2.2566731869346093)	(-7.4026018809090317, -2.895291570444221)	1.0	z	0.800236
16	M	B	M	N					M	4	2	shapes	M	0	True	22	(-2.6921278873255963, 0.53666554489025664)	(2.6375724974025587, -3.0703947833838807)	(8.522972832600729, 1.1508135133552617)	(-3.6119498049942225, -4.6685625261624688)	1.0	z	0.762097
17	M	B	B	N					B	4	2	shapes	B	0	True	22	(3.6936037555202077, 5.2122501241445178)	(-4.8883803383043913, 0.62623328076113083)	(4.1053188414110693, -5.5770461160547047)	(-7.1707716554077026, -8.3505772484694809)	1.0	z	0.955592
18	M	A	N	M					B	4	3	shapes	M	0	False	22	(-1.8141645778132354, -8.3520996699578429)	(-2.1742523587298024, 0.33395353011452755)	(0.19432233521941633, 3.9017815475770394)	(6.5816731894377067, -7.65535145556386)	1.0	slash	1.24718
19	M	A	B	A					A	4	3	shapes	A	0	True	22	(-7.302436287323987, 0.44116446601059245)	(8.236366979777447, 5.9201204035887702)	(-5.2677288425680331, -5.7651498594904265)	(0.51532921339370574, -5.0945989588871603)	1.0	slash	1.57481
20	M	A	M	B					N	4	2	shapes	M	0	False	22	(-4.9576634971072213, -8.0014382717670589)	(5.0132507276199547, 4.8050182189986188)	(7.3123526643311507, -6.7570887862125124)	(-5.2163356848788158, 5.3371227313158816)	1.0	slash	1.33455
21	N	B	A	N	M	M	A	B	A	8	6	shapes	A	0	True	22	(8.0218620055054046, 3.1514837391599055)	(-7.4658241378936836, 5.2241528303461102)	(-2.9353844059393275, -3.6399476472669301)	(6.1491361971321457, -4.3952436320443358)	1.0	z	1.92013
22	N	A	M	A					A	4	1	shapes	A	0	True	22	(7.9267046283596088, -5.452253961999916)	(-1.2712871843236799, -1.9874722813876033)	(-8.5857132901902968, 4.4672282211453282)	(0.017029541105898716, 5.0151155952246533)	1.0	z	0.665588
23	N	B	A	A	B	N	M	M	A	8	2	shapes	A	0	True	22	(-7.6909086040561592, 3.2893847076291109)	(-3.1541415874511207, 6.2141301053245108)	(4.2803747119887277, -5.5333234270821077)	(5.5489711547401495, 4.4684820631338695)	1.0	z	1.1449
24	M	A	B	A	M	B	N	N	B	8	7	shapes	N	0	False	22	(-6.8687999250628167, 4.7843994720812049)	(8.4905984238610479, 2.4480005596984142)	(7.3324893954215149, 6.6561313792309953)	(4.5495420621226046, -0.55182226456557437)	1.0	slash	0.81688
25	M	A	B	B					M	4	3	shapes	B	0	False	22	(0.23776250159865775, 6.837880776944802)	(-2.5586039919540342, 0.53583625425143744)	(8.3470201872790106, -2.0285281049686326)	(-3.0329167630654572, -7.8005462879257683)	1.0	slash	1.4564
26	N	A	M	N					A	4	3	shapes	N	0	False	22	(-6.677100270215238, -6.881307328109787)	(-8.1944916074332159, 3.2097080652804539)	(6.2812169393146746, 8.4995391373959883)	(4.9706175316471573, -4.8909333919335714)	1.0	slash	0.648264
27	M	B	B	M	A	N	A	N	B	8	1	shapes	B	0	True	22	(-5.9011297577577206, -0.85761708827758465)	(4.1098412902380996, 5.9203266572952469)	(0.60439317653064251, 1.134725733561238)	(-0.65892445348481843, -4.8540467892291961)	1.0	z	1.20379
28	N	B	N	A					N	4	2	shapes	N	0	True	22	(-7.198064901699941, 5.3348489076659966)	(0.38670793240916268, -1.6418729723582919)	(-5.607079732361365, -3.1422169521176242)	(8.671434150114596, 6.2485644392513073)	1.0	z	0.693446
29	M	A	N	M					N	4	0	shapes	M	0	False	22	(6.7959592647556573, 2.9788050470150296)	(7.7845757343048554, -3.5398391799275783)	(-4.4931834100642325, -4.0146166700360446)	(-3.8720349660519773, 2.8545741267342617)	1.0	slash	0.629167
30	N	A	A	B					B	4	1	shapes	A	0	False	22	(0.47660889677179874, -1.124159422001421)	(-3.7173443191936402, -1.1263184614555648)	(-6.412286292748294, 4.196473206868033)	(6.8690351830557059, 0.58002401997396547)	1.0	slash	1.80883
31	M	B	B	M					B	4	3	shapes	M	0	False	22	(3.7270517409337192, 3.0501809578843613)	(-7.5699429448322029, 4.2746157507048412)	(0.10496037096932298, -1.6045980908826847)	(-8.6284652292116029, -8.4825342413838705)	1.0	slash	0.768352
32	N	B	A	A	N	B	M	M	N	8	4	shapes	N	0	True	22	(2.0897995647974721, 1.8656705902908239)	(-1.6436175328726748, -7.7605887409844181)	(6.9970845331699536, 4.6053740202229125)	(-8.3844992685151549, -0.93640878783172887)	1.0	z	0.595943
1	M	B	M	N					M	4	0	shapes	M	1	True	22	(-1.4852716332268381, -3.0596239021911016)	(-7.4297700218570117, 4.0943227365961281)	(8.6701876269074845, 2.390638878356075)	(3.6625865693647022, -7.4355490940007893)	1.0	z	1.33161
2	M	A	M	B					B	4	3	shapes	B	1	True	22	(-4.5430806595774689, -1.9392614471675715)	(-2.9620670569597696, 6.354002320692743)	(3.2245362339172861, 6.6326945662127024)	(4.6165946259306345, -4.2698492511424675)	1.0	z	0.587353
3	N	A	N	A	M	M	B	B	M	8	5	shapes	M	1	True	22	(7.4381729271666366, -3.216528890358469)	(-4.9915769894953339, -8.139266174099717)	(-2.0085465057573062, 0.36229625751391481)	(5.9327894491848419, 3.3249552947435248)	1.0	z	1.69095
4	M	A	N	N					B	4	0	shapes	M	1	False	22	(6.6504973374275629, 1.4227183749810184)	(-2.169421868152515, 6.5796926036217904)	(-4.6261700864530582, -2.999202876525783)	(2.2020712072791344, -0.13336430857226667)	1.0	slash	0.722678
5	N	B	N	B					N	4	1	shapes	B	1	False	22	(-7.6771504048383115, 7.7697787254778454)	(-5.9898242547867122, -1.7581521492018588)	(7.4252702070375172, 3.8910422439538692)	(2.8448909878546242, -0.92482663708389179)	1.0	slash	0.604272
6	N	A	A	N	B	M	B	M	M	8	3	shapes	N	1	False	22	(8.2885240892268222, 6.0650292286618335)	(2.2433686803689277, -8.0201120478658581)	(-1.8811462093657543, -6.3565291599010747)	(4.3024910583527234, 5.6260942941187064)	1.0	z	1.99192
7	M	B	B	M	N	A	A	N	N	8	6	shapes	A	1	False	22	(0.035545762836651562, 3.4483208533815706)	(-5.9730344661957773, 7.8909706358956377)	(3.9542058304343151, 0.36746005663512626)	(-2.6165766287431218, -7.996489941432058)	1.0	slash	0.829466
8	N	A	N	B	M	M	A	B	A	8	6	shapes	A	1	True	22	(2.1556789782917072, 5.583016840380191)	(1.4850614861846232, -2.129587292687801)	(-5.4042055370230546, -1.0702899636823124)	(-6.9989454184869793, -7.228930533005423)	1.0	z	0.773231
9	M	A	M	B					A	4	1	shapes	A	1	True	22	(6.2057913009682615, 1.8176546230663266)	(-0.75405518361560997, 4.2660167601402375)	(-4.7016410825146355, -0.95938577216526966)	(6.6130297825960067, -7.3545563412915804)	1.0	z	0.55671
10	M	B	A	M	A	N	N	B	N	8	7	shapes	B	1	False	22	(8.57960518886809, 1.1835195538759482)	(-6.0685079845723067, 7.4405300601640043)	(-1.0892097532737353, -6.0491276160302974)	(-7.8592703199294265, -2.1377798639461014)	1.0	slash	1.11447
11	M	A	M	B					A	4	3	shapes	B	1	False	22	(5.0711746041763597, 7.6805343084030895)	(-3.7081911477851568, -0.27831186077008851)	(5.7490258144364041, -6.0517699004785683)	(-5.4759272583804854, 4.995368533844621)	1.0	slash	1.54211
12	M	A	M	B	A	B	N	N	N	8	7	shapes	N	1	True	22	(-5.5735745376500869, 3.3657492955868555)	(-1.6150068476081492, 7.8426384405240128)	(-8.4232223444822605, -5.9670734264467384)	(4.6984251333650775, 5.1274738941849751)	1.0	z	1.50965
13	M	B	N	A	M	A	B	N	N	8	3	shapes	A	1	False	22	(-3.8444042372956595, -5.5971543094771983)	(6.2737355906283412, 2.289351881127887)	(-3.1843245898832198, 1.9036301732104857)	(6.6967787656880251, -4.8688771982791987)	1.0	slash	1.62131
14	M	A	M	N	N	A	B	B	A	8	5	shapes	A	1	True	22	(8.2454279230854439, -5.0462444211003765)	(-4.0586366388192046, -3.7635101477871862)	(1.859161328587545, 2.8116037650347376)	(-1.9317974665304432, -0.17037654793745283)	1.0	z	2.07684
15	M	A	A	N					B	4	0	shapes	M	1	False	22	(-8.4217127337707041, -6.7548876168381256)	(0.94314188584416847, -0.83138020517742728)	(-4.103511368053451, 1.4737198458886915)	(4.7768963316332602, 7.1659526754952552)	1.0	slash	0.688386
16	M	B	M	N					M	4	0	shapes	M	1	True	22	(4.3738577397874643, 0.52502319042285706)	(1.553968211358951, -7.839006684867023)	(-8.5844371986837658, 0.051172119335424426)	(-5.6216150051483602, -6.4175138041492419)	1.0	z	1.15805
17	N	A	B	B					M	4	0	shapes	N	1	False	22	(-5.3047443184366383, 1.5790983603666824)	(-6.3321750308147866, -8.440425939875043)	(1.0971165020329163, 5.3157246083604406)	(7.3959844724794799, -4.8752666931084878)	1.0	z	0.703722
18	N	A	N	M					B	4	0	shapes	N	1	False	22	(6.2291417883671318, 3.9187984832774703)	(2.8136591039368, -4.5759914337779577)	(-8.5034472119190774, -5.3651799368499091)	(-8.2677740202642518, 6.3273336543305909)	1.0	slash	0.59732
19	N	A	M	M	N	A	B	B	A	8	1	shapes	A	1	True	22	(6.5392292459826713, 3.7792572701080971)	(-0.10378336813941047, 1.4701496990936924)	(-4.1278382425913174, -8.4192061910863067)	(-6.4680079254354279, 5.7533977340665974)	1.0	z	0.819187
20	M	A	A	B					B	4	3	shapes	B	1	True	22	(-1.3903348710364742, 5.977603364146324)	(-2.3943898096639904, -3.1828861177859507)	(0.49232246996428231, -8.0493573586531397)	(1.8837763163373058, 3.4661555389752436)	1.0	z	0.824742
21	M	A	B	N					A	4	1	shapes	A	1	True	22	(-4.1566637126306096, -5.3065319674767437)	(-1.1105860648109518, 5.0492411215824387)	(6.3484824157738338, 4.7844970197369818)	(0.81317394681182442, -4.6782759244217704)	1.0	z	0.670429
22	N	A	A	N					A	4	1	shapes	A	1	True	22	(4.0357303765990107, 1.8124912133145799)	(-7.1161284861011893, -0.84675963169509405)	(-5.4731292588189335, 8.3446627663526804)	(0.24086042252560169, -5.6787428842255121)	1.0	z	0.658092
23	N	B	B	N	M	A	M	A	N	8	0	shapes	N	1	True	22	(4.1961910641733944, -0.15426939819786689)	(-6.7757687153313384, 6.0065030821075762)	(-2.6371663316472898, -7.0844035479610206)	(-2.7314484017328269, 1.6802460547264175)	1.0	slash	1.51574
24	M	B	M	A	A	N	B	N	A	8	1	shapes	B	1	False	22	(7.6980083060105784, -6.4360034330609377)	(-6.1859255573081064, 0.4463459297512351)	(4.5728334799888106, 6.0642121644775155)	(-5.6537600877533389, -4.3104021895840336)	1.0	slash	0.865287
25	M	A	M	N					M	4	0	shapes	M	1	True	22	(-0.42736376200304704, -8.2961156252499464)	(7.4611616905566045, -5.9437200207214982)	(-4.5151443621794858, 4.6669275063239315)	(7.9825621036269077, 6.6251682511679313)	1.0	z	0.614933
26	N	B	M	B	A	N	M	A	B	8	7	shapes	A	1	False	22	(1.9201778046219307, -8.3238908407451557)	(6.56009346693825, 6.5742023707747723)	(-3.1274935870730527, -3.5751169314157689)	(5.2154754069467977, -3.5585234953212028)	1.0	slash	1.00068
27	N	A	N	B					B	4	0	shapes	N	1	False	22	(-2.0685447977161004, 6.5773257930636255)	(2.7472638558114166, 7.929867237459316)	(-2.5016886330799126, -6.6238432260683444)	(0.46294375151359546, -0.34019777156379938)	1.0	slash	0.746246
28	N	B	M	A	M	B	N	A	B	8	1	shapes	B	1	True	22	(-7.3057097883924449, 1.1568549570051943)	(-7.4199466959924214, -4.5424301684079582)	(5.617459146557314, 0.63617615825407547)	(6.0727453404028733, -7.1902769802004221)	1.0	z	0.690021
29	N	A	M	A	M	N	B	B	N	8	4	shapes	M	1	False	22	(-4.989671578328819, 2.1360936240659854)	(4.9880467342236692, -6.7151358962527166)	(-0.29843132840332309, -3.5671057315523358)	(-4.3005167937720836, -8.6309189740512036)	1.0	slash	0.621514
30	N	B	N	A					A	4	0	shapes	N	1	False	22	(-5.0725362196633377, 3.0731129735532381)	(0.11327056328505059, -2.1125231024404165)	(1.0769633126365559, 5.8314520771852081)	(-7.1985921842139344, -2.2416356397780755)	1.0	slash	0.779161
31	M	A	M	N	B	B	N	A	M	8	4	shapes	B	1	False	22	(-2.1477830593136815, -0.056539327880056334)	(-2.9769328665871724, 4.6153382284485609)	(8.0518885682024894, -0.77570999165075616)	(0.54820159743822217, -6.0142809775717643)	1.0	slash	1.66097
32	M	A	A	N	N	B	M	B	A	8	2	shapes	A	1	True	22	(0.54975038022927869, -2.3043955185124521)	(-4.9882031210860855, 3.7557924347110792)	(-4.7623111159398102, -3.0828212196537539)	(1.9842837542544007, 5.7971722997970652)	1.0	z	0.540482
1	N	B	M	M					M	4	3	shapes	M	2	True	22	(8.7235739841374986, 2.6376883863076319)	(-1.6557065578674779, -6.1213681661923172)	(4.9024819491180942, -5.2524726950778131)	(-1.9096804145143471, 2.8106023231428257)	1.0	z	1.15607
2	N	A	N	M	M	A	B	B	A	8	1	shapes	A	2	True	22	(-5.5852556678606371, -8.4742267590696354)	(-1.4116731540597005, 5.1285780424867564)	(8.1395977853357735, 5.0173967023950894)	(-8.5784286877069391, 6.3245816908046688)	1.0	z	0.865805
3	M	B	M	N	B	N	A	A	N	8	3	shapes	N	2	True	22	(-7.8974438717186581, -2.6869206876215372)	(-7.9396764084908948, 3.0266135419244105)	(0.028494399026300243, -6.9169909186333385)	(5.4458002375910652, -3.9058945139618357)	1.0	slash	1.04945
4	N	A	N	A					B	4	1	shapes	A	2	False	22	(-2.9479372395607593, 2.0774574362545621)	(0.44692143302780174, 5.7842887951855282)	(3.9669241998048008, -1.6758235037477833)	(-5.9535001451847762, -3.9077670368228006)	1.0	slash	1.24908
5	M	A	B	N					M	4	2	shapes	B	2	False	22	(3.3674160808753264, -5.9879377836059673)	(-8.2087663302988272, 0.78537132798893339)	(6.015416376671979, 1.5062911201961722)	(-2.8489913006948528, -7.4400935649075306)	1.0	slash	1.19273
6	N	A	M	B					B	4	3	shapes	B	2	True	22	(6.5462683709484928, -1.1137420314152111)	(0.78281327410056889, 8.3479148532197058)	(-5.6102893528297084, -2.0902224408406518)	(-3.4345767291466176, 2.1883355144907704)	1.0	slash	1.39634
7	N	B	B	M					N	4	2	shapes	B	2	False	22	(-3.3192728680493575, -8.4365696081225448)	(1.0860526909257775, -4.5797368926531972)	(-3.6478896244204604, 1.0601608462916445)	(7.7291011223274921, 4.4502257747771843)	1.0	slash	0.808053
8	M	B	A	A					M	4	0	shapes	M	2	True	22	(1.602651149473175, 3.6605341667183993)	(-4.6293694314822966, 8.6570348786452413)	(-1.4818675702167461, -4.5411570268721926)	(6.2304422740897998, -6.9211187416275459)	1.0	z	0.807593
9	N	B	N	M					N	4	3	shapes	M	2	False	22	(1.3338352055989429, 0.80047829580298924)	(-1.9191183973203154, -6.2387115448528521)	(5.9878843211567503, -5.047556553031364)	(-3.1538284540105286, 6.6795455024604564)	1.0	slash	1.01539
10	N	B	B	N	M	A	A	M	A	8	1	shapes	B	2	False	22	(-1.6719469705779835, -2.111365785640527)	(-8.7357171240278859, -3.4106527076380688)	(-0.77416252535320229, 3.6737944365871957)	(5.6552327952357047, 4.206106550884348)	1.0	z	0.736776
11	M	B	M	B					B	4	1	shapes	B	2	True	22	(-5.2769414021279131, 5.1882876300592411)	(0.25000737671501128, -6.524306046976224)	(-6.0176166499806403, -7.1750699617977514)	(7.0031632453494908, 4.7044401868163686)	1.0	z	0.472628
12	M	B	N	M	A	A	N	B	B	8	1	shapes	B	2	True	22	(-2.4645810949367366, -4.0581033602607937)	(-3.3904044811444702, 3.689649464327097)	(-7.8179688926921607, -4.0720529297411909)	(2.813652319535862, -3.5085327939047799)	1.0	z	0.734307
13	N	B	A	A					N	4	2	shapes	A	2	False	22	(-8.5250461331819576, 6.5602673099956572)	(7.7037353608598202, -5.8970755617258188)	(-2.7143931816777354, -4.2486780238533468)	(2.0012602040994043, 6.5791069362291346)	1.0	slash	0.629959
14	N	A	A	B	N	M	B	M	N	8	3	shapes	B	2	False	22	(-3.957953634340579, 0.40032994502509744)	(-0.76488846949617173, -8.6170519012318305)	(0.2492222438271412, 0.33581609648794242)	(-2.541802758684538, -3.9481714802608696)	1.0	slash	1.32551
15	N	B	B	M					B	4	1	shapes	B	2	True	22	(-4.3477521472331357, 5.0387865276138211)	(8.4231983573488343, 0.036683039940296425)	(4.411135459000036, -4.62127700649972)	(-0.35820515598572911, -6.1787906007218343)	1.0	z	0.719031
16	N	A	N	A	B	B	M	M	N	8	0	shapes	N	2	True	22	(8.4494903612970447, -7.7861712567832351)	(7.0561896159719808, 6.1980451807558232)	(-7.9432522380314383, 7.1608288795017589)	(-3.2256990093209899, -5.5090380622687487)	1.0	z	1.34078
17	N	B	M	B	M	N	A	A	N	8	3	shapes	B	2	False	22	(1.9972020417847389, 4.7493839365934232)	(6.3928715015085178, 8.5034525106901526)	(-3.5589945066222217, 7.3407245868754778)	(-5.7005173242716953, -4.9719694570102781)	1.0	slash	1.16447
18	N	A	N	B					B	4	1	shapes	A	2	False	22	(4.9001829553934062, -6.0901565212129203)	(-1.4731787644226078, -0.43814679216660579)	(-2.9297334915760231, 4.5377133169150454)	(5.0217708664845375, 8.5646763274720783)	1.0	slash	0.814196
19	M	A	B	A					B	4	0	shapes	M	2	False	22	(-2.3432018210498624, -4.9820519863509318)	(-4.0145954761933114, 4.9960717340611627)	(6.3167249189471359, 3.5012771431257352)	(4.4935495289955139, -2.212426160030879)	1.0	slash	1.14172
20	N	A	A	B	M	M	N	B	A	8	2	shapes	A	2	True	22	(3.2745417214163801, 2.87972589952847)	(7.3062074856324379, -4.6605501706988175)	(-7.1574691532305303, 1.193534996818741)	(7.4622832352612534, 6.9980959333194672)	1.0	slash	1.22118
21	N	A	N	M	M	A	B	B	N	8	1	shapes	A	2	False	22	(-4.0283695696372526, 3.8534367773786755)	(-8.2466884427099778, 1.9510733456435663)	(-5.7197717908675987, -2.4765241893032064)	(4.3587221289871874, -0.24298402565829669)	1.0	slash	0.708895
22	M	B	M	A	B	A	N	N	A	8	3	shapes	A	2	True	22	(8.4092744744682904, 2.4000909304460762)	(-5.0403062102549194, -6.0169430372421857)	(7.4932796809151228, 8.1801393876117885)	(-7.5146732695990845, 7.5024161642975997)	1.0	z	0.652541
23	M	A	N	A					A	4	1	shapes	A	2	True	22	(-1.6794545667058927, 7.8522744357317187)	(0.44163717824346449, -0.65488797654698594)	(-2.7365408994517262, -3.2703165593897889)	(7.0360763249449185, 0.28155142239934072)	1.0	z	0.876217
24	N	A	N	B					B	4	3	shapes	B	2	True	22	(-0.92844488097951494, -6.7368071197999146)	(3.8480182879100742, -5.4946613790349241)	(-1.9093334100481902, 6.0568337547688973)	(8.6690799133797078, 0.77003603236753726)	1.0	z	0.567968
25	N	B	B	M					N	4	0	shapes	N	2	True	22	(0.48037126180851786, 8.3172875606560481)	(-4.7365230555193154, 5.8060138749695689)	(-0.87548806149504266, -8.4840207111674992)	(2.0533826447484653, -5.3063577124852443)	1.0	z	1.79939
26	N	A	M	M	N	A	B	B	M	8	7	shapes	B	2	False	22	(-4.2467379709363078, -0.073321556762953932)	(6.5721978154473746, 2.0993125119518439)	(-2.4064620069033671, 4.5719855403593819)	(-1.5110464621653152, -3.2420191986601479)	1.0	slash	1.261
27	M	A	N	A	N	B	B	M	B	8	5	shapes	B	2	True	22	(-8.3431748398409074, -6.4496391230108383)	(2.7601583522540167, 6.6832714473014239)	(-3.9290751736391405, 7.3577557058949559)	(0.24120084029303079, -4.6904774988870397)	1.0	z	0.828898
28	N	B	M	B					M	4	1	shapes	B	2	False	22	(-1.844578223689644, -4.5277852562992864)	(5.262850257828374, -6.0888816464670574)	(2.2607058847969057, 5.4032072689597577)	(-5.79474731284082, 3.3411159145035469)	1.0	slash	0.720443
29	N	A	A	M	N	B	B	M	B	8	5	shapes	B	2	True	22	(8.4355312548460937, -7.2969477509002498)	(-6.7400345114435289, 6.8064477840254529)	(3.3160131721845953, -3.3684503050471788)	(-3.2929327880975956, 2.0764479586773419)	1.0	slash	1.26818
30	N	A	A	M	B	N	B	M	M	8	1	shapes	A	2	False	22	(2.7660152172158536, 6.3380283367219192)	(7.3074671779256484, 0.30689585123880647)	(-1.7296583690136753, 0.14521931419827006)	(-7.9937559413369881, -5.5560015413844459)	1.0	slash	0.795644
31	N	B	A	A	B	M	N	M	B	8	0	shapes	N	2	False	22	(-2.5982993211732586, 1.7134664979461807)	(2.4824664497940869, 7.5867244881406677)	(1.1166270557468234, -8.7077953769529568)	(-3.225184771512831, -7.1308582398687301)	1.0	slash	0.881436
32	M	A	N	N	A	M	B	B	N	8	4	shapes	A	2	False	22	(5.1573832581897552, -4.6068910358845434)	(0.74315286790191237, -8.0710510680960965)	(-8.3771204715490786, 2.5037961278320484)	(3.4231190956842763, 5.0765895143496049)	1.0	slash	0.781057
1	N	A	M	B					B	4	3	shapes	B	3	True	22	(6.326264476677558, -0.027158165321225169)	(-2.6495372895576033, -5.3097684456921712)	(2.4950866395257147, 7.5465030052835189)	(-3.9349620221433002, 4.318662368620755)	1.0	z	0.924717
2	N	B	M	N					N	4	1	shapes	B	3	False	22	(-5.6155734384236169, 4.7014802358864998)	(4.7261992823713115, 8.5609762545519743)	(5.0194857825389168, -8.5486697891123509)	(-4.6804193046793188, -1.9272253130297292)	1.0	slash	0.646462
3	N	A	A	M	B	N	B	M	B	8	6	shapes	B	3	True	22	(-3.8000844663755373, -3.4278163122473355)	(0.48938877094956368, 0.46244035498117064)	(-1.9850739213409483, 8.1293444410029032)	(-6.9408502233308651, -7.0486456061858735)	1.0	slash	1.81003
4	M	A	M	N	A	N	B	B	M	8	5	shapes	N	3	False	22	(-7.0741859081339609, 7.361665135331819)	(8.6254926578229387, 4.52837515267362)	(5.3262380912914455, -1.6800538293202223)	(-1.7458032659221274, -1.7030694341884676)	1.0	slash	1.60555
5	N	B	N	B					A	4	3	shapes	B	3	False	22	(0.45945742925374056, -4.35933051218875)	(-7.1151869648215609, -2.3540875545344147)	(4.6195782747879139, 5.7669942591256405)	(-7.672032057647594, 6.152144875581925)	1.0	slash	2.00724
6	M	A	B	M	A	B	N	N	B	8	5	shapes	B	3	True	22	(0.91041084898096258, 5.4537157777014489)	(5.3498991890624588, 4.968683628717443)	(2.5409836523520823, -8.6393583773639566)	(-6.3098957270444593, 0.86615111028062053)	1.0	z	0.554492
7	M	A	M	A	N	B	B	N	M	8	6	shapes	B	3	False	22	(-1.0601826167833854, 5.2917627810584111)	(4.2073904357049052, 4.7475818072004223)	(0.13124738145737602, 1.2064110482113666)	(-6.7052303036956875, -2.2080377737204637)	1.0	slash	0.536256
8	N	B	M	A					A	4	2	shapes	M	3	False	22	(-6.4970667139182474, -7.0902353264072815)	(-0.2101909093729013, 7.7594223762244248)	(2.5223367580422202, -5.0004929288221724)	(5.6944380535370609, 7.9653086990509507)	1.0	slash	0.744051
9	N	A	B	A	B	N	M	M	M	8	5	shapes	N	3	False	22	(-3.6477324784146905, 5.294791782350007)	(-7.8071399023120609, 5.1125662489057717)	(-0.61497322629742435, -7.5627204726128934)	(5.496026480026412, -1.1685308905899756)	1.0	slash	0.591867
10	M	B	A	N	N	B	A	M	N	8	3	shapes	N	3	True	22	(-2.486492235126776, 6.4115613161298466)	(2.3458828045676459, -4.4591198436221804)	(-8.3242326002903031, 6.7673517886464776)	(-7.7960654968655119, -6.3127914502645854)	1.0	z	0.357429
11	M	B	M	N	N	B	A	A	A	8	0	shapes	M	3	False	22	(-6.3302715014873545, -2.1554962485621143)	(8.5501539335375725, -0.11328405497680194)	(-2.1384375383947489, -7.6844067228447646)	(-3.481529284189067, 6.6883865908284346)	1.0	slash	0.891022
12	N	B	N	A	B	A	M	M	N	8	0	shapes	N	3	True	22	(6.0374525202146696, 6.4919116439427285)	(-3.8402376156856013, 4.2974435618539832)	(4.4277098476982353, 2.636863081211974)	(0.10865058956746765, -2.6993826146334206)	1.0	slash	1.08469
13	M	A	A	N	B	M	N	B	B	8	6	shapes	N	3	False	22	(-6.3894275505168956, 8.2774457197048434)	(-5.1947735897360117, -2.1815056761744609)	(0.66011169932144398, -0.97717442031998658)	(-3.5192648398324851, 3.5166914339326443)	1.0	slash	1.36842
14	M	A	M	A					B	4	0	shapes	M	3	False	22	(-7.9632796142322064, -7.8156593995085162)	(3.4816098916356424, 2.0326249405117718)	(-7.4555763550760616, 2.2865686475744464)	(7.8160677157978995, -1.5245489895954645)	1.0	slash	0.81606
15	M	A	B	N					A	4	3	shapes	N	3	False	22	(-3.9986254303318551, -4.2171179473210936)	(-4.5777255814087585, 7.6224052015186956)	(3.169436371798442, -4.1093181063701758)	(7.3541489022058109, 5.7774398830738409)	1.0	slash	0.735581
16	M	A	A	B					A	4	1	shapes	A	3	True	22	(6.3465932831828944, -0.23621027107147974)	(4.0021566943597229, 6.6679368287395935)	(-2.0113923381687657, -2.9203887961635795)	(-7.8567003881821469, 4.4980330503506885)	1.0	z	0.447397
17	M	A	A	B	M	N	B	N	N	8	5	shapes	N	3	True	22	(-6.9697276208825976, 0.75463109028009612)	(-2.619581651922152, -1.8882737483435026)	(4.5823973877108664, -8.1560108751486577)	(-3.0212897053285683, 2.8906482323250557)	1.0	slash	1.21901
18	N	B	A	N					N	4	0	shapes	N	3	True	22	(-1.6538968555635201, 6.3627943992696583)	(7.8820795998142295, -3.1702376473424074)	(4.9358345415663827, 0.34151421948583582)	(-0.7242721428295873, -2.5610150000723735)	1.0	z	0.584542
19	N	A	M	B	B	A	M	N	B	8	4	shapes	B	3	True	22	(5.9345143367662789, -5.403195421554094)	(4.7002540705683398, 5.1756204363556702)	(2.2669243652128337, 1.2231578659020972)	(1.9197807188929641, -5.1777422188238038)	1.0	slash	1.21627
20	M	A	B	B	A	N	N	M	A	8	4	shapes	A	3	True	22	(7.9766327902619381, -3.9508044372831872)	(-5.2231322119718762, -4.183742027156284)	(3.590298431721493, -2.8871879916550176)	(-1.2490731611713084, 2.27711965658008)	1.0	z	0.777812
21	N	A	N	B	M	B	A	M	M	8	5	shapes	B	3	False	22	(4.2122534359600188, -6.1611429482021229)	(-8.3016324005492823, -5.6942885449502016)	(2.4195123125071358, -2.2055206004599368)	(-7.9264742304125564, 1.6682443622892684)	1.0	slash	0.579416
22	N	A	A	N					N	4	0	shapes	N	3	True	22	(-4.240496054864348, -1.2184107830462514)	(3.8209831223999853, 0.2573396381586015)	(5.0334436773493003, -5.4845599288213354)	(-4.1918846140439348, 6.062575850563805)	1.0	z	0.705053
23	M	A	M	N	B	B	A	N	M	8	0	shapes	M	3	True	22	(-7.6777589290298467, 5.1667856335544027)	(8.3640592457086989, -0.65101164745332873)	(-2.937280228098655, -8.5287946983030452)	(1.6549438868616253, -3.8355577165880446)	1.0	z	1.12073
24	M	A	B	A					B	4	2	shapes	B	3	True	22	(-8.6068254968087743, 2.7952060171302087)	(3.3120897300959413, 4.6631687095091703)	(3.1886563391189551, -5.0903608225556063)	(-4.6001471062649593, -8.6102871141433592)	1.0	z	0.874536
25	M	A	A	N					M	4	3	shapes	N	3	False	22	(-6.508025585971323, 5.2074951681646677)	(-3.8665126982083526, -7.8312187234922828)	(4.2364942914317396, 1.2780768003476695)	(3.9081884367328783, -6.0136088979271056)	1.0	slash	1.13418
26	M	A	A	N					M	4	2	shapes	A	3	False	22	(-6.8694370892844017, -2.4974985544551647)	(4.7478018578327816, 6.2896217613281884)	(-2.9782778245860477, 0.10366154925608129)	(1.8782079680686703, -3.1043509970926966)	1.0	slash	0.853745
27	N	A	N	A					A	4	3	shapes	A	3	True	22	(-4.8285066576185116, -2.5852872271919409)	(-7.6227487500855746, 5.5449771920274475)	(2.9330925049692844, -1.4759835904582745)	(3.3003716849831743, 8.2085976527701696)	1.0	z	0.581422
28	M	A	A	N	N	B	B	M	M	8	6	shapes	B	3	False	22	(2.0171402608087625, 7.356346266185156)	(3.5243887206512259, -4.7467631403161592)	(5.0374046093852503, 0.52406679034201176)	(-6.641795681999989, 1.2939175201375868)	1.0	slash	0.772819
29	N	A	N	B	B	M	M	A	N	8	6	shapes	M	3	False	22	(-2.8014126827183556, 2.4421669111048061)	(8.0281630416320802, 1.4185269347584555)	(7.5149676433104275, 6.141045583672943)	(-5.7978163014549473, -7.9072773055848771)	1.0	slash	2.27893
30	M	B	M	B					M	4	2	shapes	M	3	True	22	(0.45613105891060179, 6.9153350470945583)	(6.3604666653563893, -7.8129591423084745)	(-2.611454776175826, -2.5865640478071379)	(-4.9287880561642003, 0.83714374866204722)	1.0	z	0.58412
31	M	B	N	B					N	4	3	shapes	B	3	False	22	(1.1151465588403369, 0.90918470068831425)	(5.6431666252589281, -7.2739591495116507)	(-6.6027213831254432, 8.6263011051139884)	(-7.6483122505728645, -7.2742558259268346)	1.0	slash	0.638011
32	N	A	A	B					B	4	3	shapes	B	3	True	22	(6.1126073017102307, -1.188744688420023)	(8.7132719761197635, 3.079063297825364)	(-1.5644833089929824, 3.0551184743962292)	(-3.7422367268127124, -5.7643781234810465)	1.0	z	0.487564
1	M	B	M	A	A	B	N	N	M	8	2	shapes	M	4	True	22	(4.9792736898661154, 4.2359736871966636)	(-0.6228591801736858, 3.5805136472049561)	(-1.1293738043421282, -4.522246819574165)	(-6.9619124741308323, 1.7681835370683476)	1.0	slash	0.925135
2	M	A	M	N					B	4	1	shapes	A	4	False	22	(2.9480769138457301, -7.9859437792335131)	(-7.321568237499255, 2.2641920953483812)	(-2.9954622437465899, -8.4797099482033218)	(4.1383411789105686, 2.8900840373700198)	1.0	z	0.638856
3	M	B	M	N	A	N	B	A	M	8	6	shapes	B	4	False	22	(-0.55770105898985811, 7.4323658609459642)	(-7.4195504260682466, 5.2697399064392325)	(-2.4963686597712487, -0.86935671409305293)	(5.6464514579545639, -6.288438421426064)	1.0	slash	0.900764
4	M	B	B	A					N	4	3	shapes	A	4	False	22	(-2.3018146284410044, 5.7404991199010968)	(-3.2191502500965923, -4.1403881222947705)	(5.6152495402858413, -3.1701353018866021)	(3.0448484549218051, 0.69680603573873512)	1.0	slash	0.770213
5	M	B	A	N	M	A	B	N	B	8	2	shapes	A	4	False	22	(-4.3909530710246685, 5.677088917499395)	(3.0141649015623866, 7.5749642431121558)	(6.9317094354492603, -3.6155593574718532)	(-4.1158418682769646, -0.11145807998246759)	1.0	slash	0.89183
6	M	B	B	M	N	N	A	A	A	8	1	shapes	B	4	False	22	(-5.2327037312889466, 6.4204984816587469)	(-4.7917845155954257, 1.7791351755587108)	(4.4673055723626547, -6.8724943338018623)	(-1.5624052826050541, -7.5129645452875913)	1.0	z	2.0055
7	N	A	M	A	M	N	B	B	B	8	0	shapes	N	4	False	22	(8.6279804693339877, -7.918009673366754)	(-3.0464631287147625, -0.29091990788173305)	(-6.2254836971803309, 3.2963940933359233)	(8.6387926754571502, 4.8156576367065629)	1.0	slash	0.921095
8	M	A	B	N					A	4	1	shapes	A	4	True	22	(7.9626310462315857, 6.0148128706737634)	(-3.8470697143669597, -6.5797138746441792)	(4.6483027557596124, -8.5789608762870859)	(-0.89958585400926427, 7.7635841009390845)	1.0	z	0.722858
9	N	B	M	N					A	4	2	shapes	M	4	False	22	(6.6250629615070284, -1.7540382205105098)	(3.0174033144360148, 5.1692035506435534)	(-6.5117217551029247, -8.0051006700632605)	(-0.16411424073518432, 1.1732291332588254)	1.0	slash	0.876462
10	N	A	M	N					M	4	3	shapes	N	4	False	22	(-8.5564937143021513, -2.0593572688435984)	(0.9199615341650631, -3.6519081699887845)	(2.1342048298975378, 6.536890655503262)	(-2.8901839434961634, 4.3538913650773257)	1.0	z	1.3121
11	M	A	N	M	N	B	B	A	A	8	1	shapes	A	4	True	22	(4.5708153112469532, -0.070177718856413662)	(-1.7060607940163086, 5.3760887857746393)	(-8.652166636873984, -4.9398468548399652)	(-6.5540634697704334, -8.5387376303492282)	1.0	slash	0.93364
12	N	A	B	B	M	A	M	N	A	8	5	shapes	A	4	True	22	(-2.6880690805226104, 0.83251582239039301)	(-8.3194683847036615, 3.0757029926773782)	(2.406159374070862, 1.1735300698684394)	(-0.22796509079649852, -5.9397910864816694)	1.0	z	0.823286
13	N	B	B	N	M	A	A	M	A	8	6	shapes	A	4	True	22	(-3.4486188076887583, 5.3475579277638285)	(1.4813410280323396, 7.6975394445378669)	(7.3007903605540427, -7.918825035870281)	(5.1457516393967762, -1.7198302931216363)	1.0	z	0.510982
14	M	A	M	N	N	A	B	B	N	8	4	shapes	N	4	True	22	(-1.6209600289810773, 7.6797311011563778)	(-7.9649734201126368, -3.5240482526719781)	(-3.1294723129594857, -4.723201606992129)	(-6.2844230657654894, 1.6636416262396789)	1.0	z	0.868712
15	N	A	B	A	B	M	N	M	M	8	4	shapes	B	4	False	22	(0.97827349841194255, 5.1286158810677911)	(-3.5179893798125965, -7.1795449895047803)	(-4.3286012873922566, 1.8006500448663054)	(-8.4516316093241386, 7.5585817798459694)	1.0	slash	0.764347
16	M	A	A	B					M	4	1	shapes	A	4	False	22	(-7.3965600783344989, -1.4603709444889414)	(1.9071655990405247, -6.1718754108476759)	(1.9933237132347674, 6.6491749221715466)	(-8.2784651232146906, 7.9680100161949099)	1.0	slash	0.757482
17	M	B	M	N	A	N	B	A	N	8	3	shapes	N	4	True	22	(5.9555304385596468, 3.8615290216309255)	(2.827253907789677, 1.0255866861286851)	(6.6866760216462815, -7.6607526207692684)	(-3.5860188397641544, 0.21501201730723452)	1.0	z	0.979567
18	M	B	N	A	A	B	N	M	B	8	2	shapes	N	4	False	22	(-2.3221738740682918, 6.1816131327255519)	(2.9261341358620623, 3.1282273098305797)	(1.3910884436273889, -3.0394126350930186)	(5.2046314389665991, -7.208959380750553)	1.0	slash	0.69328
19	M	A	N	M	N	A	B	B	M	8	0	shapes	M	4	True	22	(6.6721460406286983, 6.7308795074621131)	(5.9398144205291743, 1.8296525860500683)	(-6.5761707739796211, 0.82283620905177557)	(4.2048592452000566, -2.8370480501715312)	1.0	slash	1.18289
20	M	B	N	M					N	4	2	shapes	N	4	True	22	(2.4158568872396469, -7.7368910434607701)	(8.0268682287805859, 0.62951793920639787)	(-8.2054865983898626, 7.0478249299624167)	(-8.0702983502403409, -3.5975344511558394)	1.0	z	0.548615
21	N	B	A	N	B	M	A	M	B	8	4	shapes	B	4	True	22	(5.2036283311346008, 4.4282089922166197)	(3.1778955148886538, -3.5767407596805549)	(-0.68131685466323333, 8.1385135638834463)	(-7.0585163292896915, 7.0177110093916824)	1.0	z	0.484297
22	N	B	M	N					N	4	3	shapes	N	4	True	22	(1.0676086262032261, -7.3980707811215671)	(4.9693761890784689, 6.2525761137727525)	(-5.0309977328253321, -7.4528124423769402)	(-3.5730251262698882, 3.9087595926766507)	1.0	z	0.997762
23	M	A	B	A					B	4	3	shapes	A	4	False	22	(-5.6203430227028441, 6.9981277224725194)	(2.0750800876445794, -4.7119646973961666)	(-7.7876627348581184, -1.5842562432880314)	(1.1215367839445793, 7.9475276792433682)	1.0	slash	1.16762
24	N	B	M	M					N	4	0	shapes	N	4	True	22	(8.5319007898603836, 4.8210905102739439)	(5.2498844645164962, -6.5070818150268686)	(-4.7742076109365943, 0.053962732376682254)	(-6.9363990283612686, -8.0240946461636007)	1.0	z	0.351015
25	N	B	N	A					A	4	3	shapes	A	4	True	22	(7.2170545984117638, 2.5963166452271036)	(8.1368545498096623, -3.0172656353536729)	(-6.5598759295040328, -6.6539742855783786)	(-1.77960267528473, 6.1260535332152379)	1.0	z	0.506773
26	N	A	B	A					M	4	0	shapes	N	4	False	22	(-7.9728951507018584, 7.487710466936953)	(4.1908476044638086, 1.0567050183761051)	(3.8224457006604773, -6.9682666266072317)	(-3.8088252131802403, -0.18006685804670042)	1.0	z	0.60856
27	N	A	M	B					B	4	0	shapes	N	4	False	22	(-2.3854601137111082, -8.3565686048790155)	(3.5104394944114059, -5.7764003951198895)	(-4.6575898157241484, 2.5062528275337055)	(6.4169768170727242, 6.7442093608158871)	1.0	slash	0.840128
28	M	B	N	A	N	A	M	B	A	8	6	shapes	M	4	False	22	(1.914613946276063, 1.1408575271463928)	(4.8620966162383308, 8.1185659582632965)	(-2.2166820259086188, -0.48824324321071799)	(-1.4984729159776222, 5.8127671534646428)	1.0	slash	0.683948
29	N	B	M	A					A	4	3	shapes	A	4	True	22	(2.0995360684153006, -7.6730004214641134)	(-7.8513282303327836, 8.0279375281142045)	(2.2286867679203244, 3.6025470353453546)	(-2.0780532623008865, -7.4450433133024152)	1.0	z	0.477682
30	N	B	B	M					B	4	2	shapes	B	4	True	22	(0.17063534313878392, 6.4181190708662665)	(-2.2700444905808261, -3.4192185262472892)	(4.3057903387665011, -2.5486609924934402)	(-3.7450478313628244, 3.6958899809476087)	1.0	z	0.479189
31	N	A	N	A	M	B	B	M	N	8	7	shapes	M	4	False	22	(0.5803045193121843, -2.6381554748999774)	(4.9000535597966532, 6.6251626450510663)	(4.230041001677554, -8.0331522068604038)	(-8.421531462642994, -0.17907175759806115)	1.0	slash	0.692818
32	M	B	A	B					B	4	1	shapes	B	4	True	22	(0.59815462954662024, -0.39554522158620387)	(-0.29677793073290282, 7.881769937659417)	(6.3288842002682557, 8.3217530246546545)	(-3.4411186529518805, -6.6625345026167899)	1.0	z	0.524588
1	M	A	B	N	N	A	M	B	B	8	2	shapes	B	5	True	22	(-0.22783864271423226, 1.4913757886979404)	(4.9596400153800033, -1.2237880858189563)	(-8.689429590605716, -7.497387572968031)	(-2.236081658037727, -4.5502663848727103)	1.0	slash	0.835747
2	M	B	N	A	N	M	B	A	A	8	7	shapes	A	5	True	22	(-2.5997617980916594, -2.3839216199793771)	(6.2453370131602988, -1.8161260050339267)	(7.8234640660834494, -8.7094999733218526)	(-4.1580569797112688, 2.3116983159272397)	1.0	z	0.865732
3	N	A	B	A					M	4	3	shapes	A	5	False	22	(-7.2996912922309907, -4.2202226175036683)	(1.4657964732342297, 5.2650458807831964)	(-5.5769414480466359, 6.9834136761445453)	(8.4919777002334413, -3.9527700157595991)	1.0	slash	0.639515
4	N	A	A	M	N	B	B	M	N	8	6	shapes	B	5	False	22	(5.9868088928993082, 7.1117889062953132)	(7.1950562202879897, 3.1174741779253878)	(-4.6922661830973249, -1.1311384854562556)	(6.5871403638194046, -2.1625411645549111)	1.0	slash	0.709209
5	N	B	N	A	M	A	B	M	B	8	5	shapes	A	5	False	22	(7.4191693401150864, -3.166214748764558)	(4.7067818512386133, 2.219898742971802)	(-5.9620963029011271, 0.6422452467270503)	(-6.30771040929808, 6.2250557440797962)	1.0	slash	1.18083
6	N	A	N	A					A	4	1	shapes	A	5	True	22	(-6.3090448911131487, 3.0336983796194872)	(5.45457844476093, 8.0750309180669539)	(7.3694786533327594, -7.0320302540258037)	(-8.5175425464078245, -8.3970024270979149)	1.0	z	0.474365
7	N	B	N	B	M	M	A	A	B	8	1	shapes	B	5	True	22	(5.382671223421406, 1.5996853871114602)	(-7.4943811167808905, -7.7708002634299103)	(-8.6532613542316135, -3.3212679320801897)	(-3.5364925974274346, 7.9093212822089498)	1.0	z	1.12803
8	N	B	M	A					M	4	2	shapes	M	5	True	22	(6.874178496619308, 3.130169106937208)	(-2.4256490699483306, -8.4949296412742648)	(-5.0293570823688976, 1.5830444235606809)	(1.8951077300107126, -7.4981552408238006)	1.0	z	1.47971
9	N	A	A	N					N	4	3	shapes	N	5	True	22	(-6.1825683498522466, 7.5509975914351699)	(4.8935260017212041, 0.057216728673839867)	(0.79625205000676758, -7.6630479216525824)	(-8.2215012501849696, -5.0427886152378223)	1.0	z	0.521329
10	M	B	M	A					A	4	3	shapes	A	5	True	22	(-2.3691975190585506, 8.6036276026402732)	(3.1886619209262328, -1.5713963694571547)	(-0.66575031240298799, -7.4910465817177787)	(1.1282769684210265, 4.8974155989888946)	1.0	z	0.58698
11	N	A	N	M					A	4	2	shapes	N	5	False	22	(8.5904786299621385, 4.8572177953434004)	(-3.1509161104492902, -1.2047580198010719)	(-7.4867964599049213, 2.3909522950476347)	(1.2226238777563534, -0.19188724218035169)	1.0	slash	0.536582
12	M	B	A	A	B	M	N	N	A	8	6	shapes	N	5	False	22	(-8.2096886160413991, 5.6291759723038304)	(-4.649000660061839, 1.0463743100340022)	(3.8059249982632224, 0.3836284942306758)	(-8.280649531575639, -6.5867288288476384)	1.0	slash	0.626344
13	N	B	B	N	M	M	A	A	N	8	5	shapes	M	5	False	22	(0.18518153050695219, -7.5372770736739012)	(-5.9363642429442107, 3.6661039848471084)	(-3.8833277280831089, -2.7965633028106849)	(-0.28570772942375022, 4.3180783856181062)	1.0	z	1.15415
14	N	A	B	M					N	4	3	shapes	M	5	False	22	(0.66928248561968928, -1.4361843951325621)	(-7.0466327397354283, -6.4068515201986962)	(-2.1160888141603369, 2.1861277957610223)	(0.67034620846080095, 6.9548209440378432)	1.0	z	1.17369
15	M	B	A	A					B	4	2	shapes	A	5	False	22	(-7.0591983335865516, 4.7969644969839589)	(6.1834643721603442, 0.57661057020117745)	(-3.5559514699762529, -1.023651383624788)	(6.3303647866200645, -6.935529879098377)	1.0	slash	0.565226
16	N	A	N	M					A	4	0	shapes	N	5	False	22	(2.9002002464597449, 4.3024307020049832)	(-6.0667710785318327, 7.6718443517598374)	(-4.2685239641345323, -7.7978824205071948)	(7.7105040491714405, -0.8316794335581541)	1.0	slash	0.607078
17	M	B	M	B	N	N	A	A	N	8	1	shapes	B	5	False	22	(1.8455869580935076, 1.2312607128399264)	(-3.3473422657491225, -7.4551130514197297)	(7.6914523133442287, 4.3458822387761007)	(-3.9318928832400877, 4.4890510396848224)	1.0	slash	0.778633
18	M	B	A	N					N	4	3	shapes	N	5	True	22	(7.9796605685020658, -8.6982103026974968)	(-5.7970633712437802, 2.952209279524924)	(-1.1991778987105173, -4.423997402852617)	(1.865157522544509, 8.4432182382149037)	1.0	z	0.89637
19	M	B	A	M	A	B	N	N	B	8	1	shapes	B	5	True	22	(3.9326188306660317, -0.8720018828181928)	(6.6434484431716392, 6.2155531208191199)	(-3.5547676873024407, 3.2985816099776208)	(-5.3637731270502682, -3.1471223018088832)	1.0	slash	0.785978
20	M	B	B	A	A	N	M	N	B	8	3	shapes	A	5	False	22	(0.31205463201028039, -0.3132101673835237)	(-6.5220684128562265, 4.5331327563797501)	(2.7745666101652198, 5.1436555796284722)	(8.4159154421087514, 7.7648299197860062)	1.0	slash	0.897708
21	M	B	N	N					A	4	0	shapes	M	5	False	22	(5.6814415881410909, -1.4871493510648879)	(-5.4706047814433667, 2.2941851764833761)	(-8.4436219743329914, -0.68653169999433317)	(6.2643381142036425, 3.762510074679783)	1.0	slash	0.503337
22	N	A	B	M	A	B	N	M	B	8	2	shapes	B	5	True	22	(2.8540143048014635, -5.3802077800114461)	(0.47531110464289483, -0.097281960871013595)	(-1.625442821755736, 5.8465579282029054)	(-5.9102150114626815, -5.2265831988874298)	1.0	z	0.926968
23	M	B	B	A					B	4	1	shapes	B	5	True	22	(1.0372391778756587, -2.4769580205264257)	(1.6990331289051213, 2.1561346900781651)	(-0.3628034339515267, -8.2098033154033097)	(-5.8218354598031414, 2.3450980376032788)	1.0	z	0.670581
24	M	A	N	M	A	B	B	N	N	8	7	shapes	N	5	True	22	(-5.3519442698263493, -7.1730454919069171)	(7.5398075607478638, 5.406919180964648)	(-4.4779087500803749, -0.088086147388175107)	(-0.76185221190633801, 1.6723160125589605)	1.0	slash	0.725808
25	M	A	B	M					M	4	3	shapes	M	5	True	22	(-1.6980068116738707, 3.7785535923383673)	(-7.4855061122368802, -4.6389598059426866)	(7.8788771422054751, 7.8828723410439991)	(8.6374097396080067, -4.9344098002798678)	1.0	z	0.925945
26	M	A	B	B					A	4	3	shapes	B	5	False	22	(-3.8707868746336693, 6.6494220642546811)	(0.63346333778859965, -5.8912389023685385)	(0.71131029851592054, 4.1909729305015997)	(-4.898986365376655, -6.2423208982194751)	1.0	slash	0.823569
27	M	A	A	M	B	N	B	N	M	8	0	shapes	M	5	True	22	(-8.2717514708612825, 3.307861690190844)	(-0.53803778816884495, 1.7202005733650108)	(4.4654083026645299, -1.2655387225921224)	(4.9053391706880731, 7.9223605647101962)	1.0	slash	0.72721
28	N	A	A	B	M	N	B	M	A	8	5	shapes	N	5	False	22	(2.6696712749448057, -4.7469300086935711)	(0.12251378047783135, 6.8642835305371381)	(-7.2533938661153936, -7.5314231177458284)	(6.8545648398791421, 2.8068037695086527)	1.0	slash	1.03488
29	N	B	N	A					B	4	1	shapes	B	5	True	22	(8.639555043965693, -2.3391588038213555)	(-3.3399081456922888, -5.3046214682617112)	(-8.484820771981914, 5.2183857249004717)	(1.5076042420798359, 5.4943809854815164)	1.0	z	0.942585
30	M	B	N	M	B	A	N	A	N	8	2	shapes	N	5	True	22	(0.75457169866341722, 3.4621598921450687)	(-6.6294235792082752, 7.1570462296742523)	(6.2622729125083652, 8.3676223342969109)	(2.8601745013745479, -5.0245000376090747)	1.0	slash	0.502177
31	N	A	B	N	M	A	M	B	N	8	7	shapes	B	5	False	22	(-6.6031311704347999, -0.94835450871214633)	(-7.7882685516509715, 4.913215013008875)	(8.0228541687735451, 1.4449075975215759)	(3.8007312316075037, -1.379463372068745)	1.0	slash	0.813679
32	M	B	A	N					B	4	3	shapes	N	5	False	22	(8.1769946999143599, -5.3404780035345949)	(-0.47553146685743108, -0.069927930590752752)	(8.2690278102732435, 4.1774835428565193)	(-4.7075404369934981, 6.4782038073730668)	1.0	slash	0.653581
1	M	A	B	A					A	4	1	shapes	A	6	True	22	(-3.2536872766927889, 7.6174742375001152)	(7.3693329563295613, 8.5722225387176785)	(-3.8395184164881018, -7.6054339307942218)	(0.97588569353235322, -6.5936641471056259)	1.0	z	0.59124
2	M	B	A	M					B	4	2	shapes	A	6	False	22	(0.30877845913911628, -1.3525399878875639)	(-1.9735270092871078, -6.8181893776759797)	(-6.9059557838637797, 2.7361812257395375)	(8.0017352081549937, 3.9764827384719403)	1.0	slash	0.746827
3	N	A	N	M					A	4	1	shapes	A	6	True	22	(-7.0755504561221958, -2.7591805589488398)	(5.8762478487880117, -8.4359557205803792)	(4.6909026069323652, 8.0369658089152551)	(-3.6350479761800045, 7.640548296934238)	1.0	z	0.480523
4	N	B	M	M	B	N	A	A	N	8	0	shapes	N	6	True	22	(7.0174933800764947, 5.0655902003063034)	(-3.7805005499297355, 2.3285613066135724)	(-0.67086803739387335, -8.5596400268402597)	(-4.5268280089598534, -3.4637243659884192)	1.0	z	1.02022
5	N	B	A	A					M	4	0	shapes	N	6	False	22	(-1.5675237455097086, -5.5492722665167014)	(-6.927407783568138, 2.3560084416800642)	(1.2196390634429317, 6.7271320523804974)	(5.8170092626940377, -4.6744940723974313)	1.0	z	0.649694
6	M	B	M	A	A	B	N	N	A	8	2	shapes	M	6	False	22	(5.6325874066327692, 7.0115628833201313)	(-4.5437740666393918, 0.15500548671681713)	(1.1277404367686863, -3.8854758403298213)	(6.3808703437312566, -1.7222272516096044)	1.0	slash	0.589433
7	M	A	M	B					M	4	2	shapes	M	6	True	22	(-4.1546844224914175, -6.4544168334197707)	(2.1844146356609411, -4.5102892741305753)	(4.7427710736192807, 8.4076479494662095)	(-7.7078154312792186, 1.5592181954440409)	1.0	z	0.401195
8	M	B	A	B	M	N	N	A	N	8	0	shapes	M	6	False	22	(-3.2355705025025614, 2.898735764457431)	(6.5479154066225931, 5.1291739011931803)	(0.97670455796426836, 7.1538857696856653)	(-7.7946168289821616, 6.4744297354617117)	1.0	slash	1.91674
9	N	B	A	M	A	M	B	N	M	8	3	shapes	M	6	True	22	(-1.292065943115734, 3.8020696620561978)	(1.772748789283435, 8.7000930993107097)	(-2.8335084128412209, -1.6279272552023469)	(-5.9015995040504814, -8.5405474469075422)	1.0	z	1.24997
10	M	B	N	N					N	4	3	shapes	N	6	True	22	(3.4493291619862561, 2.4646893870334754)	(-2.4217779034296827, -6.7316271358302551)	(6.4889266332655833, -1.8396407810712061)	(-3.3397804789569365, 0.70784627987933391)	1.0	z	0.570009
11	M	B	N	N					B	4	1	shapes	B	6	True	22	(1.8411752520679965, 4.633427998079549)	(5.0299576617419568, -0.61141785289181882)	(-5.5381606387142845, 3.1683008109728448)	(-6.7667728170608843, -2.2023847233534255)	1.0	z	0.809652
12	M	A	B	N	N	B	A	M	B	8	7	shapes	M	6	False	22	(7.5503070381140809, -0.63111967272019065)	(-3.7106791603370466, 7.2206554937569454)	(-5.6165308516783217, -3.195345102275791)	(1.9288866224437342, 0.53234311485037011)	1.0	slash	0.677421
13	N	B	B	M					N	4	3	shapes	M	6	False	22	(0.18002883102068701, -5.0613855310973541)	(-6.0252928780829453, 1.8412710781660966)	(-4.666654893226748, -8.7131183503990091)	(3.272308464537371, 2.4096502701813485)	1.0	slash	0.849015
14	M	A	B	N					B	4	0	shapes	M	6	False	22	(3.4326727256578433, -1.710016782983339)	(0.35507568697805603, 3.8276339798638954)	(-7.9245073179277998, 3.5762505389825279)	(-5.0256494755145305, -8.5294405420372552)	1.0	slash	0.632721
15	M	A	M	N	B	B	A	N	M	8	2	shapes	M	6	True	22	(4.7691266462219346, -8.3444819445508323)	(-3.9647037068490842, -3.8066982806798828)	(1.0113391927354183, 6.2623931137746602)	(6.2673197880138929, 5.8219957657634236)	1.0	z	1.34223
16	N	B	A	B	M	A	M	N	M	8	6	shapes	M	6	True	22	(-3.6724687690797815, 0.84680168505223108)	(4.5596750820505285, 0.43283849659829698)	(-5.1471528106876123, -6.8623890841208679)	(4.6184961212678957, -4.3442042472148801)	1.0	z	1.18203
17	M	A	B	M	N	N	A	B	B	8	6	shapes	A	6	False	22	(3.5049776502474135, -5.1414501260594072)	(-7.8308353497785115, -1.2478033198962493)	(-1.1424357517588142, 6.4674409738711667)	(8.656996910578215, 7.3847927808777314)	1.0	slash	0.645456
18	N	A	M	M					M	4	2	shapes	M	6	True	22	(3.9873241989462294, 6.392191510498229)	(7.9017869569520265, -0.31935155665579806)	(-3.6310931130234048, -1.8414015130996439)	(-1.2376594851251985, 5.8480259617715085)	1.0	z	0.695272
19	N	B	A	N					M	4	1	shapes	B	6	False	22	(1.1243612871480089, 2.2744446817927404)	(1.0274490529903524, -5.3317809719279765)	(-5.4206497340649964, -2.0916552899039544)	(-7.5649231057701058, 2.8044134437133295)	1.0	slash	0.670718
20	M	B	M	B	N	N	A	A	M	8	2	shapes	M	6	True	22	(-6.9608993554638117, 6.1821000916834432)	(0.19561510166473361, 6.7597067792364136)	(3.0668759521491022, -1.1620065399724835)	(-0.83106187843640988, 1.4203852114830386)	1.0	slash	1.42055
21	M	A	N	B					N	4	1	shapes	A	6	False	22	(6.002119349526458, 2.0120127653139033)	(-1.6465952364277054, 5.6062374349861948)	(1.8490164324083569, -3.084226445686598)	(-6.6153771581423033, -7.9248711542460217)	1.0	slash	0.642179
22	M	B	B	A					B	4	2	shapes	B	6	True	22	(1.2287236637134828, 3.1171381414945554)	(-4.8786790001281091, 6.2496061132837042)	(-8.4075414845689913, -1.818518342495878)	(3.3464696742568645, -0.64877380486492164)	1.0	z	0.563937
23	N	A	M	M	B	B	A	N	M	8	3	shapes	M	6	True	22	(-5.2128283871505605, 3.5527109217287283)	(-7.8567289140274745, -2.6091909003320009)	(7.7837719408900128, -1.3231949171736819)	(-0.14256319795280348, -7.6669487938997412)	1.0	z	1.29552
24	M	B	B	N	A	N	A	M	N	8	1	shapes	B	6	False	22	(6.3929268915778419, -6.5786289964797717)	(-4.9379274123986097, -1.6509228069210344)	(-8.7113139585228989, -7.0666019868740548)	(-3.8621207655641134, 3.4436401377080657)	1.0	slash	0.633161
25	N	B	M	N					N	4	2	shapes	M	6	False	22	(-1.3765811051593744, -4.4890607133087101)	(-7.252813549581397, 4.6781390966009866)	(7.9339530850179436, -8.7074619243252673)	(5.0897218806558548, 8.2566893657819342)	1.0	slash	1.07674
26	M	B	B	A					M	4	1	shapes	B	6	False	22	(8.6580274420812131, -7.552167995706327)	(-5.7271199024151951, -7.3035388000769723)	(3.1294006977092295, 7.2103174400093)	(-5.4385605568042248, 6.3912795145309556)	1.0	slash	0.656508
27	N	A	A	M	B	B	M	N	N	8	0	shapes	N	6	True	22	(7.4022514633901331, 2.992065639528624)	(-3.4567698904555444, -8.4431575321561354)	(0.04730549813800522, 5.6547358287848741)	(-4.1162178832411271, 2.6221093428496722)	1.0	z	1.43216
28	M	A	N	N					N	4	2	shapes	N	6	True	22	(1.5615154517876562, -3.7783244096715265)	(3.9188236544870918, 6.2522010520556375)	(-6.0686565627234756, 4.8580542143930732)	(-4.5282413851353329, -0.31684347519519918)	1.0	z	0.915704
29	M	A	B	N	A	N	M	B	M	8	5	shapes	N	6	False	22	(8.6367007961746687, -0.46398415276726546)	(-5.5777216234813647, 2.5987543336767516)	(-4.4174112315645262, -4.008067367839514)	(-0.36891145868078112, -4.9478232424931292)	1.0	slash	0.463229
30	M	A	B	N	M	N	B	A	A	8	3	shapes	N	6	False	22	(7.780321536889133, -3.0079216451179507)	(-1.2153091819417456, 1.1330660171425748)	(-0.43714894104668822, -5.9620838561969087)	(-6.5127478381749651, -3.2968737656152509)	1.0	slash	0.566932
31	N	B	B	N	A	M	M	A	B	8	5	shapes	M	6	False	22	(-0.43265457428707599, 7.1858222976884516)	(0.64308638188276035, 2.1102301959725072)	(5.9747765938937061, 6.2020934712057638)	(-1.1162899712925611, -2.7419715125776829)	1.0	slash	1.25073
32	N	A	M	A	M	B	N	B	B	8	5	shapes	B	6	True	22	(-2.7492334214076326, -6.5142551890029221)	(1.3370971476252969, 6.1423095909980585)	(5.1903405074318378, -2.5973258414609655)	(-2.7891174469768698, 6.7612608716032536)	1.0	z	1.07638
1	N	A	A	N	B	M	M	B	N	8	0	shapes	N	7	True	22	(4.1810968387077274, -5.9102943270983701)	(0.6828685596124906, -3.5597105458273575)	(8.0125494027960578, 7.1807944275949502)	(-3.8095842909638993, 1.0875185910579468)	1.0	slash	0.837891
2	M	B	B	A					N	4	2	shapes	B	7	False	22	(-7.3474503822380157, 4.4582297743654973)	(1.2324916689338625, -3.076132731228884)	(-7.1791176962461778, -2.6342727118075313)	(3.0474109284061583, 3.8799550786788153)	1.0	slash	0.799604
3	N	A	M	M					M	4	2	shapes	M	7	True	22	(-7.0342017500649634, 2.8411745631758709)	(-7.1336941905230367, -3.4144074305092333)	(0.86386511635590502, 5.1586321221529232)	(1.9397020927415483, -0.07097324711301134)	1.0	z	0.793148
4	M	B	A	B					N	4	1	shapes	B	7	False	22	(-4.9755481846716254, 0.77312466995452134)	(7.1038156063846039, -3.5364003272578852)	(6.4420268275956403, 2.7356614424818808)	(-2.5844127540071682, -8.3119728536817981)	1.0	slash	0.517011
5	N	B	N	M					M	4	3	shapes	M	7	True	22	(7.7025777062180154, -1.9071948837856025)	(-7.3244498275379541, -2.7557170483687807)	(-3.5705401646370731, 8.592364505775457)	(1.5106533682559409, 5.9193044194829234)	1.0	z	0.68044
6	M	B	M	N					B	4	3	shapes	N	7	False	22	(7.1518979365205091, 3.8504164437554209)	(1.8188549615472862, -3.1178497495406585)	(-3.3180447641191622, -6.9817215237755956)	(-3.1635294532085672, 5.2221509810587516)	1.0	slash	0.592017
7	M	B	A	B	M	A	N	N	M	8	7	shapes	N	7	False	22	(7.5912607631059537, 6.9366947904036689)	(7.3005089326473822, -8.1507696455259691)	(-2.6390219953387977, -0.72397643654394628)	(5.980431068863469, -2.5880248668110166)	1.0	slash	1.74778
8	N	A	M	A	M	B	B	N	N	8	6	shapes	B	7	False	22	(-7.7006401571102092, 5.0596727465004623)	(0.72540376767739367, -8.1125034892778771)	(-4.60455153158005, -5.8931997519081394)	(4.0879412776246014, 5.9411626796368324)	1.0	slash	0.609308
9	M	B	A	M	B	A	N	N	N	8	3	shapes	M	7	False	22	(3.7216310326289808, 4.6929115121255887)	(-3.4898699178270851, -3.6405226637267063)	(7.3715581323802297, -5.3845864812526205)	(5.917228655233318, 0.38607013001021073)	1.0	z	1.69116
10	N	A	N	B	A	M	M	B	A	8	6	shapes	M	7	False	22	(3.8951672798408818, -6.4807898109242279)	(-3.7211816700639666, 8.2530751929473531)	(2.352103731875534, 6.0687603053964683)	(-7.2903433015054251, 5.6799598998727205)	1.0	slash	0.556471
11	M	A	M	A	B	N	B	N	B	8	4	shapes	B	7	True	22	(-3.0812037922036462, 8.4162703391284879)	(-0.98047646899615604, 1.5408302303727588)	(4.7517011889790126, -7.0869797853327565)	(-7.719584928178775, -6.9578370439929262)	1.0	z	0.56253
12	N	A	N	A					M	4	1	shapes	A	7	False	22	(-2.1530030538268194, -2.8655954238458357)	(-1.8241007986714477, 7.977982193495901)	(7.2681343626300396, -6.4970842374918938)	(6.4940789760049835, 7.4668830270644975)	1.0	slash	0.58821
13	N	B	A	M					B	4	0	shapes	N	7	False	22	(-3.4354777180078679, 8.4721653543943027)	(5.902881335103654, -3.0141803375315384)	(-4.2661356156537176, -7.2023723038258032)	(5.0766670461838181, 6.6077300353961945)	1.0	slash	0.671806
14	M	B	A	N	B	N	M	A	N	8	5	shapes	N	7	True	22	(-6.1923665991653349, 7.0131958564222803)	(4.1558061666748429, 7.1363155668469549)	(5.4609844461537183, 2.8963934079353493)	(0.285066417395889, -3.2316319340003199)	1.0	z	1.21339
15	M	A	M	B	N	A	N	B	M	8	7	shapes	B	7	False	22	(-7.4756453964875949, -6.7642871402704463)	(8.4253044785706912, 4.596591039513207)	(3.9226929504098944, 0.97673531290288018)	(7.759852142239609, -6.2824086998097259)	1.0	slash	0.710977
16	M	A	M	B	N	A	B	N	M	8	0	shapes	M	7	True	22	(-8.1036376873560716, 3.7220223059672293)	(0.082265455116294461, 6.4285464691300263)	(3.8463605825205729, -1.9135455451271985)	(-3.932409228288817, 1.7866099727432658)	1.0	z	0.884632
17	N	B	N	M					M	4	3	shapes	M	7	True	22	(-2.738765450839316, 2.2516990041651557)	(3.626793490611055, 3.759017442543259)	(-1.415296680129126, -8.0696024506703949)	(5.9401767362741129, -1.5086537568675222)	1.0	z	0.700271
18	N	B	A	N	B	M	M	A	A	8	7	shapes	A	7	True	22	(2.8912037775002819, 7.8151818182002692)	(-3.8799707715869127, -1.2941319475821622)	(-4.5044526214660072, 3.3257189285810647)	(7.5147825762210729, 2.7195865212493651)	1.0	z	1.26809
19	N	B	B	N					M	4	2	shapes	B	7	False	22	(8.4892515865036273, -6.4227425916408336)	(-8.1120943912617101, -7.6722796897930365)	(-0.61102047569803553, 1.1137359570260656)	(5.7060591353396912, 5.1675776177854136)	1.0	slash	0.575739
20	N	A	A	B	N	B	M	M	N	8	7	shapes	M	7	False	22	(2.414529964663453, 3.402316897958249)	(-0.95684234991266326, -3.596327421736305)	(-6.2169146698819056, -1.5525180852611689)	(-1.08283538325575, 1.0349951931340939)	1.0	slash	1.86527
21	N	A	A	M					M	4	3	shapes	M	7	True	22	(2.4309935246990086, 2.0461828454653261)	(-3.7165621880907569, 4.8735687016822222)	(1.5553778537186247, -2.6257866987086294)	(-4.1864731438771665, -1.770589260001902)	1.0	z	0.934882
22	M	A	B	B					N	4	0	shapes	M	7	False	22	(-1.7227572696095512, -0.90477681907242413)	(4.9559310966403913, -1.3013003615471872)	(7.8584941062887133, 7.2567888923555586)	(-5.4134147065858542, 2.9811475444234539)	1.0	slash	2.03854
23	M	B	M	B					B	4	1	shapes	B	7	True	22	(0.70496199779761604, 1.5719817178015347)	(2.3554565680072983, -3.7917290810492759)	(-1.2391789302114198, -8.4103194493124107)	(-0.83209524753430664, 6.6685788037925757)	1.0	z	0.640064
24	M	B	M	B	A	A	N	N	N	8	7	shapes	N	7	True	22	(3.4471533178565021, -3.5428463472898057)	(1.6163019011964117, 3.1537890916078375)	(-8.3040164225064963, 2.6056748818630204)	(-5.4107696670991183, 5.9424010032318115)	1.0	z	0.941676
25	N	B	N	B					N	4	3	shapes	B	7	False	22	(-5.7343755260387113, 3.6743032491833461)	(6.8799570791190572, -3.2791906575248779)	(0.95127124103938066, 0.53969374634116818)	(-6.2358913623719232, -6.4628358090723914)	1.0	slash	0.627473
26	N	A	A	M	N	M	B	B	N	8	0	shapes	N	7	True	22	(-4.8290112239741996, -1.8959179956647443)	(6.3854106580796852, -7.8921582711875748)	(0.95505748533549983, -1.4540769288365318)	(-1.1881699597016384, -4.8876931856633838)	1.0	z	1.07485
27	N	A	A	B					A	4	2	shapes	A	7	True	22	(-4.4966363090280987, -7.2757833176650042)	(-1.2902019915567013, 1.5936656656329813)	(4.7700428851298291, -1.7160913719658222)	(6.9554321179307195, 7.1496356187982819)	1.0	slash	2.41446
28	N	A	B	M	M	A	N	B	N	8	0	shapes	N	7	True	22	(4.2043965414077213, 8.6978766453334515)	(-1.1995138677235273, -7.3679258426996679)	(7.9738567595650025, -1.7439904136868245)	(0.85039291461894706, -0.93441161889589974)	1.0	slash	0.800156
29	M	A	M	A	B	B	N	N	B	8	7	shapes	N	7	False	22	(3.4480342803840021, -1.7700222064176439)	(-8.0759972135813953, -1.0513706205071065)	(-4.515341172866532, 8.6530153677707524)	(-0.83491243934351189, -8.6285199401558437)	1.0	slash	0.773925
30	N	A	A	B					A	4	2	shapes	A	7	True	22	(0.85259444189420996, 5.8142755997594175)	(-7.282132084447035, -0.25884978014020099)	(-6.3281616000327947, 7.6981380105153363)	(0.19570656032995082, -0.66307427423972243)	1.0	z	0.437399
31	M	B	M	B	A	A	N	N	B	8	6	shapes	N	7	False	22	(4.9425085706244989, -5.0407205357370328)	(-3.1030639597881224, -5.5874141945603135)	(-2.4869980205692164, 6.6384377261742014)	(-1.4423637453572766, 2.3456792186847082)	1.0	slash	1.03316
32	M	A	N	N					A	4	1	shapes	A	7	True	22	(-7.5116696772161857, 3.6134319032574247)	(7.1169217815296424, 6.4071643718975118)	(-1.7332196567560336, -8.0596352594038407)	(3.5608674827847597, -6.2210252945217643)	1.0	z	0.508901
1	M	B	N	B					M	4	0	shapes	M	8	True	22	(5.9031823281857232, 0.50814878870683877)	(6.3424548092061386, -3.6986356508519327)	(-3.3964550590506519, -8.2259999766423597)	(-2.2976899526029113, 5.7488671262743978)	1.0	z	0.756446
2	M	B	B	A	A	N	M	N	N	8	0	shapes	M	8	False	22	(-4.1213150065110682, 1.0979748258490627)	(8.7028103331058695, 7.0297243228173585)	(-2.7167321836924021, -6.8899280687446289)	(-5.1343357742980302, 7.1523792902943892)	1.0	slash	0.658083
3	N	A	A	B	B	N	M	M	A	8	1	shapes	A	8	True	22	(5.0560722120649988, -4.0304601878407471)	(-8.6840347035718324, 1.3568095064631382)	(-3.8288984728315132, -3.6039244764358882)	(-5.5983703293154825, -7.2439401908297958)	1.0	z	0.467816
4	N	B	A	A	M	N	B	M	A	8	2	shapes	A	8	True	22	(-1.7591914661253343, 6.2163841828791888)	(2.2584671034248291, -3.2052471361918151)	(7.182353606104229, 5.5450982061776326)	(-3.0885160769539679, -1.3617660130297509)	1.0	z	0.857623
5	N	B	B	M	M	A	N	A	N	8	0	shapes	N	8	True	22	(1.4797143306740583, -5.6903539274036916)	(-0.59044350810852109, 6.6678210481710956)	(-5.8489293341694992, -8.2459153365708193)	(1.5659007568995182, 0.1926354127652985)	1.0	slash	0.585135
6	M	B	A	B					N	4	2	shapes	A	8	False	22	(0.33371643900666292, -2.8991547616780409)	(3.0592004774114621, 4.6538697664423854)	(-0.78920599514068179, 2.7487611836356383)	(-3.4604993769595342, -0.64400473274422865)	1.0	slash	0.686839
7	M	A	B	A					A	4	3	shapes	A	8	True	22	(-0.59528694501395307, 1.8500270243018804)	(-3.2987847474957421, -5.4269624362602933)	(7.7449870864630057, -1.8370824207041476)	(8.0201463961976245, 6.282396852042119)	1.0	z	0.432416
8	M	B	N	M					B	4	0	shapes	M	8	False	22	(6.8774226447058915, -6.6509794986859152)	(0.70359657877869708, 7.1993873430630924)	(-4.499768249245423, 5.0992578417049899)	(-4.7765146649625985, -4.7828840848887353)	1.0	slash	0.604203
9	M	A	B	B					A	4	1	shapes	A	8	True	22	(1.9175417991087578, 8.6583215952093759)	(0.20726449936097069, -3.3858647814569007)	(-6.4339590189379239, 7.9200104638991213)	(-4.8394079790627007, -3.1796319808040119)	1.0	z	0.381785
10	N	B	N	B					N	4	2	shapes	N	8	True	22	(2.6096307331450745, -4.3964715674402495)	(2.6169880554603786, 2.9086113509397471)	(-8.4033876983340541, 2.5019845234708473)	(-0.51763228694157704, -0.15621779892719978)	1.0	z	0.435603
11	N	B	M	M	B	N	A	A	N	8	4	shapes	B	8	False	22	(-0.20446493637770935, 0.1675614879894809)	(-7.9695944510504599, -4.0454823771488293)	(-5.7989906541908365, 8.1735022209088299)	(7.1711921514766317, 4.963588919068707)	1.0	z	0.767189
12	M	A	A	B	N	N	M	B	M	8	1	shapes	A	8	False	22	(1.5084672138235362, -7.3726405423777495)	(-5.3587312613696163, -0.48948982146872488)	(-2.1614609705751446, 8.6642565623779433)	(-3.721011513270307, 3.9683940256842636)	1.0	slash	0.648944
13	M	B	A	M	N	B	A	N	N	8	2	shapes	A	8	False	22	(7.8284475909704021, -3.1383561517807541)	(2.5021001243447518, -2.6079166377069898)	(-5.4001420715006416, -5.9387453255589229)	(-5.6317123780466716, -1.1215798704874818)	1.0	slash	0.644436
14	M	A	A	N					B	4	1	shapes	A	8	False	22	(3.5473295542863568, -4.7839154159273427)	(3.0354573291783531, 5.624423364516101)	(-7.2123483406670719, 5.2117942585591948)	(-8.3059330597704779, -4.5109126523218421)	1.0	slash	0.677738
15	M	B	N	M					M	4	2	shapes	N	8	False	22	(0.12224732473377564, -2.290415696063441)	(-2.4677307177575658, 7.0978502927240292)	(6.8722001479209176, 5.8876814539212958)	(-1.0224290532002431, -7.1991850652100009)	1.0	slash	1.19194
16	M	A	N	B	A	B	M	N	A	8	4	shapes	A	8	True	22	(8.1425268788650769, -2.9447742284945067)	(-3.3340505767787256, -1.4510704204825462)	(4.1544393485153055, -7.4668235276213997)	(-8.7407223192334786, 3.1682450821811265)	1.0	z	0.437543
17	M	B	A	N	B	N	M	A	B	8	2	shapes	A	8	False	22	(-6.7394082637781798, 2.576830668838765)	(-2.6542412300290197, 2.3177596004408745)	(3.9482368758879769, -1.0028128499218143)	(-3.5710559782862514, -3.5142447530219183)	1.0	slash	0.643138
18	N	A	B	A					B	4	3	shapes	A	8	False	22	(8.4663646315068384, -6.8359057252457154)	(-7.1766915856468882, -0.48105494602653209)	(-1.4163161250972918, 0.87509115346382416)	(2.8339168325094963, 8.4927308813291162)	1.0	slash	2.93275
19	M	B	N	B	M	N	A	A	M	8	0	shapes	M	8	True	22	(2.9625691427937699, -6.2762219910942276)	(-6.6229938831082613, -1.7172697413619931)	(-2.7258301807878533, -0.50851614985733917)	(4.4948245231260469, 5.1742618400061247)	1.0	z	1.2383
20	N	B	N	A					N	4	0	shapes	N	8	True	22	(-3.4290420770927934, -3.7649220815148823)	(8.2725272210213383, 1.1516215280596906)	(-1.8992650082103664, 5.7373447465434353)	(1.3729043332445556, -0.99785386438636348)	1.0	z	0.639961
21	M	B	A	M					M	4	0	shapes	M	8	True	22	(5.0838591987986224, -6.6587114066663364)	(-8.2002179776766813, -4.0821114206761928)	(-0.50573489887577061, 7.4990306920525605)	(5.8017774129121946, 8.1986934050080436)	1.0	z	0.665619
22	M	B	A	M					M	4	0	shapes	M	8	True	22	(8.0468527099293539, 2.3057612113699673)	(-3.5022679252338653, 4.5460840699057385)	(-7.8635855336632146, -0.74555011076062172)	(4.3582829312375075, -4.0931501864208188)	1.0	z	0.647244
23	M	B	M	N					N	4	2	shapes	M	8	False	22	(-3.4269496479430739, -2.4109209606923221)	(1.5770543319930983, -3.5838819750799038)	(0.31476383408065622, 8.3906806589443299)	(-5.4502595266648877, 5.4117147261409198)	1.0	slash	0.632952
24	M	B	M	A					M	4	0	shapes	M	8	True	22	(4.4423232843804588, -0.33207840006259026)	(0.34716302136165211, 3.4543455928904425)	(-3.2135499732322312, -5.2514085981480445)	(-8.4987485300614338, 0.20017186075700621)	1.0	z	0.570662
25	M	B	A	A	M	N	N	B	B	8	1	shapes	B	8	True	22	(-4.1313960324862808, 6.2534774657775198)	(8.2967202415887584, -0.47981500640842434)	(1.8779373323317987, 6.72029701222867)	(5.7832188103597328, 3.4778748246637079)	1.0	slash	1.05221
26	N	A	B	B	M	M	N	A	A	8	1	shapes	A	8	True	22	(3.4783695866261457, 2.0829164980648827)	(-7.8836691622130646, 6.3402557642812809)	(-6.8973617024437255, 2.0452753769297036)	(1.1451630628221761, -6.7188985106802148)	1.0	z	0.531877
27	N	A	M	N					N	4	2	shapes	M	8	False	22	(2.8106884331131337, 2.8685959626106374)	(-2.7308989595320563, -1.9176500789461528)	(6.6039981583403122, -0.71783403583348715)	(-0.58766172065961264, 6.9448133291236225)	1.0	slash	0.619616
28	M	B	M	N	A	B	N	A	B	8	3	shapes	N	8	False	22	(-5.9320751516084034, -6.2696647563749535)	(-0.74572958366718467, -4.3704637186738395)	(-8.7347968943003114, 8.4442778618698036)	(0.11342533469062666, 1.4633094044991513)	1.0	slash	0.741209
29	N	B	B	N					B	4	3	shapes	N	8	False	22	(-6.583619767852932, -0.45228082353744625)	(7.0042956142665247, 1.4666875389252496)	(-0.60466101968202857, 2.135666190023116)	(6.0580566949230406, -3.6700599681417341)	1.0	slash	0.650784
30	N	B	N	A	A	B	M	M	B	8	0	shapes	N	8	False	22	(-2.7174097291310524, 2.3635762780626912)	(-7.3899457404433919, -5.8004250467590444)	(3.299378990079374, -0.69804319281119653)	(7.8862867923939568, 2.3673223015482225)	1.0	slash	2.19058
31	M	A	A	N	B	B	M	N	M	8	0	shapes	M	8	True	22	(-1.3439102091058084, 4.3817998223175731)	(2.2551316050970858, 1.7837679786138363)	(-3.2396461085488149, -0.99155192069910836)	(-5.6447219157875157, -7.8709758688135985)	1.0	slash	1.0062
32	N	B	M	A	B	M	A	N	N	8	1	shapes	B	8	False	22	(-5.5393201040509563, 4.2610814886785633)	(-4.875082521231592, 8.5634670356658766)	(-3.9845555890669031, -5.3062457995450352)	(3.0143889179794137, -7.0331831360340669)	1.0	slash	1.03977
