TrialNumber	stim0	stim1	stim2	stim3	stim4	stim5	stim6	stim7	stim.probe	ttl.stims	corr.num	trial.type	stim.corr	block	match	Subject	stim.pos0	stim.pos1	stim.pos2	stim.pos3	ran	resp	RT
1	M	B	N	N	M	B	A	A	A	8	4	shapes	M	Practice	False	23	(3.4009427551554232, 1.9389236016012408)	(-5.7701019795870625, -4.3266932503202664)	(4.5010291121239074, 6.9807233908594171)	(-6.8595932782961597, 5.8480691374803246)	1.0	slash	5.04408
2	N	A	A	N					A	4	0	shapes	N	Practice	False	23	(-1.7021456074234891, -2.1762022356769712)	(4.4417868343199132, 7.2759056864215061)	(-0.58029009916734253, 2.7109731181159482)	(1.9402370379157325, -3.8302331148752362)	1.0	slash	1.94151
3	N	A	M	N					M	4	2	shapes	M	Practice	True	23	(-5.6430910690149787, 2.8127692177823107)	(7.9445903111180947, -6.0655446313815862)	(4.1978605589613824, 2.8518436151825401)	(-7.8827683045633323, -3.5011632706666065)	1.0	z	2.697
4	N	A	B	M					N	4	1	shapes	A	Practice	False	23	(7.3505672331342105, 4.0133628242373387)	(-0.59385115892863283, 4.3310530087184311)	(-1.9820319684508441, -6.3873881914398218)	(1.6783494969036958, -8.1760529944799654)	1.0	slash	1.61651
5	N	A	M	M	B	N	A	B	B	8	4	shapes	B	Practice	True	23	(-7.3097957580291677, 8.196064573224433)	(-2.1574052794459462, -8.0560270694278735)	(-4.0727242626715805, 0.6791501003910323)	(3.5423085190019723, -4.7330561929603929)	1.0	z	2.80818
6	M	A	M	N	B	B	N	A	B	8	2	shapes	M	Practice	False	23	(-8.6744906000854858, 1.9852569165456035)	(2.7551819474170713, -2.7765065856739453)	(8.2864415076421949, -1.1265319479686404)	(-8.0834006416574393, -5.001210169995514)	1.0	slash	1.39344
7	N	B	A	A					B	4	1	shapes	B	Practice	True	23	(6.100431724472184, 7.5568400466807084)	(-3.3685241822782999, -3.4761205430504889)	(2.8110792212380105, -6.0987848664677031)	(-1.7633236887269392, 8.7391329658606942)	1.0	z	1.50921
8	M	A	M	N	B	A	B	N	A	8	1	shapes	A	Practice	True	23	(3.9873486330280201, -5.9759120779071022)	(-5.3722185953891612, -3.9282436188091214)	(7.2977177179935637, 5.2043042621812052)	(1.4419886200553886, 0.29163355056087958)	1.0	z	2.90669
1	M	B	B	A					A	4	1	shapes	B	0	False	23	(-0.84813447567616684, -4.896967471295639)	(-7.3764506862868968, 1.942606861275527)	(3.2612338412435893, -4.2597157726627275)	(0.19052079460394111, 3.0084534998315497)	1.0	slash	1.89452
2	N	B	B	A	A	N	M	M	A	8	4	shapes	A	0	True	23	(0.039791685614250838, 4.5260379547304019)	(0.77090200443000967, -7.8700037139410384)	(3.1644769670940569, -3.6002627088144523)	(-7.4940418844678689, -4.4395481188595758)	1.0	z	2.35167
3	N	B	A	A	M	M	N	B	N	8	3	shapes	A	0	False	23	(7.7407582089168869, -7.7641584095757317)	(-7.8526105336968151, 6.3039621648045561)	(-5.1771124100733843, 0.80060834134675929)	(-0.067525745998246123, -7.9616432262981345)	1.0	slash	1.92378
4	N	A	M	N					N	4	0	shapes	N	0	True	23	(-2.1087234035547544, 4.8015235771019977)	(-5.213578685114479, -0.0093983772132677501)	(7.5686357806458453, 0.6721846489703367)	(5.9033820755153155, -7.23427575579875)	1.0	slash	1.43743
5	M	A	B	N	A	M	N	B	A	8	6	shapes	N	0	False	23	(-3.0062546128124366, 1.4849541921702212)	(-6.5058284104958233, -6.4440370179566822)	(5.0102122218388185, 5.2707838258968867)	(-3.1397837335140943, -3.1435628902691048)	1.0	slash	1.25113
6	N	A	A	N	M	B	B	M	M	8	7	shapes	M	0	True	23	(-7.6863741958327587, 1.3851397971616581)	(1.638914557096669, 5.6800314203707956)	(2.6120802573000237, 1.1795902784001058)	(-4.5661618064207019, 5.0976625584566602)	1.0	z	1.50647
7	N	B	B	A					B	4	1	shapes	B	0	True	23	(8.1361769366402186, 7.8932304892206702)	(-5.3126279723099907, -3.985135441815121)	(8.1498702090553472, -4.5759814259042288)	(-7.1438822956196519, 6.4262519799371098)	1.0	z	1.24026
8	M	A	N	N	A	M	B	B	A	8	4	shapes	A	0	True	23	(-8.155081187538384, -0.46956122772157372)	(0.57600619475349468, -7.099962323383334)	(1.4430791536245984, 3.8397138684967143)	(-1.9727281995636243, 0.035803882226606021)	1.0	z	1.85379
9	N	B	N	M					A	4	3	shapes	M	0	False	23	(-3.1601678288427166, -5.3910214639308514)	(8.1479169577499242, 1.1191916229188852)	(-1.7554291829305333, 2.9231683398401884)	(8.328293619131717, -8.4230946197997643)	1.0	slash	1.3093
10	M	A	M	B	B	A	N	N	B	8	2	shapes	M	0	False	23	(1.6260425782485903, -7.0852982500556383)	(4.6497409423940947, 6.8777707996640594)	(-6.4459939886883042, -7.1441139016031387)	(3.7851629200356296, -0.51136943895120091)	1.0	slash	1.65895
11	N	B	N	M					N	4	2	shapes	N	0	True	23	(2.3470983009346789, -3.8695622396382339)	(8.3867055123004768, 5.9505851057831087)	(-4.0106870552430474, -6.0404881444997187)	(-8.0970014907757157, 7.3227297846510204)	1.0	z	0.912603
12	M	A	N	M	N	A	B	B	M	8	2	shapes	N	0	False	23	(-2.2070554342040438, 6.3762211431203024)	(-3.6405589905147968, 2.4281664545170187)	(6.3113856300786253, -6.2963884189639563)	(-7.4311053311795865, -4.6693517728855438)	1.0	z	2.18142
13	M	B	N	A	M	N	A	B	A	8	5	shapes	N	0	False	23	(-3.736383707268784, 1.5408941712932442)	(3.345618553411505, -6.9908191817759953)	(-6.2597221813799155, -7.0064460122215921)	(1.7478898530274432, 6.7352300644595395)	1.0	slash	1.13372
14	M	B	B	A	A	M	N	N	B	8	1	shapes	B	0	True	23	(-8.4605065129325947, 3.180830596671381)	(4.0215276304160472, 3.6060491255305838)	(-7.6147117471236427, -5.0217764859410385)	(4.6853520050259423, 7.7489064330541204)	1.0	z	1.72536
15	N	B	N	B					N	4	2	shapes	N	0	True	23	(-3.1411800568271779, -5.888320662120373)	(-6.3720973878517144, 5.6706655704668485)	(3.1898591058805366, -3.9806373955554371)	(7.254430803578515, 3.9387694901556465)	1.0	z	0.814924
16	N	B	B	M	N	A	A	M	N	8	2	shapes	B	0	False	23	(-3.8666120961100816, 6.5584372982970436)	(-1.1617968048774578, -5.5484494844282324)	(-4.6089907593355655, 0.3359709069437482)	(1.5144514132862739, 7.2948777395908699)	1.0	slash	1.05663
17	M	A	M	B	N	A	N	B	N	8	4	shapes	N	0	True	23	(6.2849802530725913, 2.2676750607962131)	(-6.5696833153039194, 4.4336130088132357)	(8.6756708970432967, -1.4120198945561597)	(3.702287780407536, -7.7955468217376502)	1.0	z	1.44817
18	N	A	B	M					N	4	0	shapes	N	0	True	23	(-4.6594096542515482, -5.6334344211736607)	(1.2666221377676141, -5.6612949760059053)	(3.9910307601286839, 8.4871434939091017)	(-4.3622964057901052, 2.8603786402399809)	1.0	z	1.13582
19	N	A	N	B	M	A	B	M	M	8	4	shapes	M	0	True	23	(-6.6495330758698383, -3.4821608873020899)	(-3.5063123904624396, 3.0988604610167894)	(2.3946528929608153, -0.86088139853505741)	(8.417161053855672, 1.108216726377135)	1.0	z	1.18558
20	N	A	A	B					N	4	1	shapes	A	0	False	23	(0.4464454843029344, 7.3897690471777615)	(-2.5505983160185668, -4.9736310375030435)	(-2.9176032749459946, 1.3192531519651443)	(4.336926598414264, -2.5063749193081355)	1.0	slash	0.909028
21	N	B	A	M					B	4	1	shapes	B	0	True	23	(7.7189781404037561, -1.493120591899447)	(-5.7490349757375458, -2.05975187462818)	(-5.4531190146327031, 6.5395375594007792)	(6.2963906103993814, 4.0253971934036432)	1.0	z	1.66474
22	N	B	A	M	B	A	N	M	B	8	7	shapes	M	0	False	23	(-1.6125875747100569, 2.0661633938378507)	(3.727244100361899, 0.12820139912649964)	(-5.3420694149437384, 7.0466219977732134)	(3.2697966379222692, -7.4939111218759304)	1.0	slash	0.998148
23	N	B	A	A					B	4	1	shapes	B	0	True	23	(0.53473252619718892, 0.40301062442966185)	(-3.1565516064405506, 4.0947186091981287)	(-5.4127767665957087, -5.3281217042142401)	(6.27624048787529, -2.405951869861445)	1.0	z	0.974023
24	M	A	N	M	N	B	A	B	B	8	7	shapes	B	0	True	23	(-3.7953038138245692, 2.2833002184039302)	(3.3097222898289989, 6.9470681252524411)	(8.6243264938171613, 5.0647204322518373)	(-7.6638356755075829, -4.6702384257467253)	1.0	slash	1.41361
25	M	B	M	N					N	4	3	shapes	N	0	True	23	(-6.0567786234840018, -0.66712650353828984)	(7.0260159535600675, 7.963433111334588)	(1.8157658705867057, -6.2581557841871929)	(-0.74214234682798441, 3.4799165542373487)	1.0	z	0.853449
26	N	A	A	B					M	4	2	shapes	A	0	False	23	(1.8640555635393916, -3.8999125895574709)	(-4.8081810690728473, -3.4067035615436767)	(7.0963001714566705, 5.4704293580889551)	(-0.075500623497175567, 6.3894326452748977)	1.0	slash	1.12286
27	N	B	A	A					N	4	2	shapes	A	0	False	23	(4.2252618994909401, 8.7292158843660417)	(-3.412415199368863, -3.5336279622357676)	(-7.0974047248544858, 3.5866233985900244)	(4.3112956535360638, -1.0075630633769901)	1.0	slash	1.02003
28	N	A	M	M	A	B	B	N	A	8	5	shapes	B	0	False	23	(1.7147408047201722, -4.8041610121025711)	(-6.0529624443953658, 8.1280166531083538)	(-3.0167430184903985, 0.91103200354318403)	(8.1439757655468483, -0.095310918326894978)	1.0	z	1.02995
29	M	B	N	N					M	4	2	shapes	N	0	False	23	(-8.6986961101607587, -3.7443417178420049)	(8.3890099532038391, 7.1815896556886241)	(-7.4475048173102216, 1.3209156684269168)	(5.7400158181092635, -8.7446595144434323)	1.0	slash	0.809664
30	M	A	M	B					A	4	2	shapes	M	0	False	23	(-3.3628341779913251, 2.2021823863794552)	(-1.7929102619818931, -4.8265590051902807)	(2.4712243139193486, 1.112349606531696)	(7.3322303723487536, -8.3189047934367473)	1.0	slash	0.713358
31	N	B	A	N	M	B	A	M	B	8	1	shapes	B	0	True	23	(4.8562725778890616, 5.8908504519262959)	(0.37870342397829937, 7.1169059905780596)	(-5.2332484890940743, -7.4935553815609728)	(5.7306475166174593, -4.3443104713629959)	1.0	z	1.24497
32	M	A	N	M					N	4	0	shapes	M	0	False	23	(8.6237977579740033, -7.694358603460886)	(-0.88175151942247076, 0.53059773413578704)	(3.5178664650003526, 4.4197499341514401)	(-8.0670260502452305, -2.0341110133378004)	1.0	z	1.13484
1	M	B	M	N					B	4	0	shapes	M	1	False	23	(-5.1892032669036663, -1.0803122514749912)	(2.5732925459419516, -7.2970334280995939)	(2.8135522611671089, 0.0074453070948745648)	(-3.1015937564039557, 5.1854545551402254)	1.0	slash	0.794356
2	M	B	M	N	B	N	A	A	B	8	2	shapes	M	1	False	23	(2.5481842525628053, 2.7165197998066599)	(8.2046228145345204, 0.53631353488163924)	(1.9816593215152363, -5.4498038135920597)	(-2.2231281215019143, 1.9001437398962917)	1.0	slash	0.808166
3	M	A	A	B					A	4	3	shapes	B	1	False	23	(-5.9007708083219477, -7.9847143823823359)	(4.7983473779737693, 0.038283559550167823)	(-5.158546506141314, 2.914854883417247)	(6.4628007025293535, -3.9071468351924867)	1.0	z	1.1757
4	M	B	N	M					A	4	3	shapes	M	1	False	23	(3.2963006921692006, 0.60276303685764887)	(3.1637445630552321, -5.6964486126267975)	(-3.2759113267672335, 2.4598805092998841)	(-1.9554012735369248, -3.9890367178878368)	1.0	slash	0.735246
5	N	A	N	M	A	M	B	B	A	8	3	shapes	M	1	False	23	(-6.6256953210161909, -2.1118075759819792)	(-0.89931002977090468, 5.1068586829496407)	(7.4566685233493288, 2.6200474821141366)	(-8.0315953569504579, 7.6788166672459717)	1.0	slash	0.711011
6	N	B	A	A	N	M	M	B	A	8	0	shapes	N	1	False	23	(-0.89978459362818075, 3.0876875702149746)	(-4.4541007528678449, -4.0225994553289324)	(4.96578322068547, -2.7066904236350098)	(-3.6631825612324125, 0.16174011993647852)	1.0	slash	0.724587
7	N	B	B	N	M	M	A	A	N	8	3	shapes	N	1	True	23	(6.0306055288895202, -6.4873300833477234)	(-3.0069965956412092, -2.9829943116992839)	(4.8852865879535656, 7.5348825327147786)	(-6.5588877364117586, -1.1189540582066497)	1.0	z	2.19025
8	N	A	M	B	A	B	N	M	M	8	7	shapes	M	1	True	23	(2.6414322985042702, -6.1059457250313418)	(4.8772451915325341, 4.5925541143399187)	(-2.0517299277863383, -3.5584775115147345)	(-4.9544965709545199, 5.9638118112158853)	1.0	z	1.21963
9	N	A	M	B	A	M	B	N	A	8	1	shapes	A	1	True	23	(3.1985391480722676, 4.5235260635947103)	(6.110784986682896, -7.1445612336965283)	(2.9901084635424962, -1.7261889601210312)	(-6.4644341555303004, 1.1353396395251423)	1.0	z	1.67677
10	N	A	N	M					N	4	2	shapes	N	1	True	23	(2.0977928404756998, -6.5399704090196131)	(7.0748080046823603, 1.7433495141074005)	(-3.0744572015419207, -4.6447193448666901)	(-1.8284768561373053, 0.96997420420623648)	1.0	z	0.912979
11	M	A	N	N					N	4	0	shapes	M	1	False	23	(-5.7657864828418512, 6.5307367117448329)	(2.9030481610741017, 7.3101528522370707)	(4.0044810848203927, -1.2939849852426688)	(-8.0683629170292317, -1.2181469576201325)	1.0	slash	0.980893
12	N	A	A	N					M	4	3	shapes	N	1	False	23	(-8.032432797855396, -2.9312356327983133)	(-1.002250083208243, 5.3970834111655233)	(5.3474726608064547, -8.1716709478942722)	(7.5343690499708451, 0.60119106006563783)	1.0	slash	1.58624
13	M	A	N	N	A	M	B	B	N	8	3	shapes	N	1	True	23	(4.2721204077559225, 7.6374727060257612)	(7.470861700474444, 0.66003810353518055)	(-4.8868276532331478, 2.0317528524139146)	(0.72112070649646398, -8.3182041903978927)	1.0	z	1.48792
14	M	B	M	A					B	4	1	shapes	B	1	True	23	(-0.028560808339552324, 0.81923569213630465)	(-8.591963402409073, -8.3327236368941655)	(2.6893989692605196, 4.2403688763027514)	(6.9928303282016575, -5.8809978325972621)	1.0	z	0.919521
15	M	B	M	N					B	4	2	shapes	M	1	False	23	(8.0932640230566513, -1.2835293098074576)	(0.10108610247866245, 2.6175667213349119)	(-0.58158677077532417, -3.1384579223652267)	(-3.0070912081807837, 5.9354209000890279)	1.0	slash	1.05728
16	M	B	A	M					B	4	0	shapes	M	1	False	23	(-6.5238041816444801, 4.5922042616847705)	(1.8364307614292574, -3.61247689798682)	(-2.8912094083273452, -8.447187376662658)	(7.3545353379263112, 6.3489549893086643)	1.0	slash	0.870927
17	M	A	M	B					A	4	1	shapes	A	1	True	23	(-7.0028259901013516, 0.04589671252682237)	(1.8394774022533813, -2.8163560844600717)	(0.96744409294788802, 2.8708005525787232)	(-3.3887539848145902, -3.5346795296440074)	1.0	z	2.09041
18	M	B	M	B					M	4	0	shapes	M	1	True	23	(0.77710797378501084, -7.1035301304923859)	(-3.916139325027304, -4.6154990406553322)	(-0.35304397408019561, 1.8623521527195859)	(4.3964314878274475, 5.3971930714303014)	1.0	z	1.01797
19	N	B	B	A	M	N	A	M	M	8	7	shapes	M	1	True	23	(-6.0333493927012416, -6.4055862211213768)	(5.712174482989349, 6.3494913167849258)	(0.44343358602413119, -7.0442918210828598)	(6.8831444725685067, -5.3750608697138604)	1.0	z	1.41763
20	M	B	B	M	A	A	N	N	N	8	1	shapes	B	1	False	23	(5.539888532728769, -6.8866158775467117)	(-3.4385663435696063, 3.0872406644144412)	(0.80328443695283447, 7.2433154612888728)	(5.9447309666549657, 6.7571895329770868)	1.0	slash	1.11324
21	M	A	B	N					A	4	1	shapes	A	1	True	23	(-8.2844952829794103, -8.2822698306821927)	(3.8473632444913513, -1.258388593258907)	(7.7046388937251358, 4.1666472268592276)	(-3.638429146086545, 7.7141058511795997)	1.0	z	0.682892
22	M	B	B	M					B	4	1	shapes	B	1	True	23	(6.2565506044803207, 2.4264707348317813)	(-0.95339298637913927, 7.4824849856809585)	(-2.4285775540450327, -6.433391351274282)	(3.9358740023869618, -8.0082764931876973)	1.0	z	1.40445
23	N	B	A	N	B	A	M	M	A	8	5	shapes	A	1	True	23	(-5.7081411680211653, -2.4262808643015203)	(4.0489897117116804, 8.4290838956090752)	(2.7890589445364409, -2.9629356517780021)	(8.4663574115318809, -2.3079662127424481)	1.0	z	0.97615
24	N	A	N	M	A	M	B	B	M	8	6	shapes	B	1	False	23	(-7.4778382183268182, -2.049321290501859)	(6.9109194620894545, -1.6125515840177505)	(-3.8958686677646881, 1.5674860131247108)	(-4.5663840812280085, -8.2972709547254464)	1.0	z	0.937892
25	M	A	M	A	N	N	B	B	N	8	2	shapes	M	1	False	23	(-7.4262723228819105, -2.7437531927057766)	(-6.9410945933041699, 3.7425884242953238)	(-2.0683205595916903, 1.5518056555283479)	(7.9725348670995864, -0.42031496988098915)	1.0	z	1.13728
26	M	B	B	A					A	4	0	shapes	M	1	False	23	(2.5134741496878146, 0.76182261018348463)	(5.7338082453998727, -4.3868396248469175)	(-7.5580875059741786, 7.7343977096727379)	(-5.3966501609822668, -8.5627785095101565)	1.0	slash	0.789017
27	N	B	A	B	N	A	M	M	B	8	7	shapes	M	1	False	23	(3.3077496090259011, -0.72433375814338063)	(-1.1080979477397443, 6.9376315520031753)	(-2.7680732726517263, -5.3326446505370244)	(8.4160278319563595, -0.36516601691867123)	1.0	slash	1.76401
28	N	B	B	M					M	4	3	shapes	M	1	True	23	(-0.14054548608345563, -8.0505395197234559)	(-5.681178781714352, 5.7383073163656633)	(7.4632959385252775, 7.9937359334205098)	(0.81666391483858192, -1.7293557645727722)	1.0	z	0.742204
29	N	A	A	B	N	M	B	M	B	8	3	shapes	B	1	True	23	(6.26550464712804, -0.11647794162565184)	(-0.42776459508365683, 2.7651229956995689)	(-7.8125405354780462, 7.971973172984292)	(-2.3139925377474588, -7.078648440120908)	1.0	z	0.892138
30	M	A	B	A	N	B	M	N	M	8	6	shapes	M	1	True	23	(6.8488766336050695, 1.4091979392963463)	(6.8272427613269873, 8.0618250072623425)	(-1.2099055537611321, 1.1377625946690326)	(-6.6278290588224209, 1.4578635860110953)	1.0	z	1.1074
31	M	A	A	B	B	N	N	M	N	8	7	shapes	M	1	False	23	(5.5257800595045765, 8.7202180808779417)	(-6.58418347118727, 4.8444852395480797)	(7.2988966207596135, -6.8235650080700196)	(-1.0638716359019655, 1.0806879083851371)	1.0	z	1.02523
32	M	A	B	B					M	4	0	shapes	M	1	True	23	(8.4423655297677414, -0.41566513216393908)	(-2.963341928176737, -8.1507184705631364)	(3.4088611424941693, 6.4797129537710045)	(-8.1829208119921617, 3.6133739200581783)	1.0	z	0.836696
1	N	B	A	B					A	4	2	shapes	A	2	True	23	(-0.97760379402508679, -7.4986551412664317)	(5.9744659736410508, -1.1543337753745924)	(-3.7063821237251284, 1.1992714033073817)	(2.295065469314876, 3.7393587168610658)	1.0	z	0.706523
2	M	B	M	B					B	4	3	shapes	B	2	True	23	(-3.919394970107354, 8.1741990491848888)	(0.040932609106413054, -2.0073818590110584)	(3.2104041307613453, 3.1618500302268107)	(-7.3816734367517141, -1.8804417050171729)	1.0	z	1.21612
3	M	A	M	N					B	4	3	shapes	N	2	False	23	(3.5788522650225332, -2.8739060000853538)	(-4.9206530746898283, -3.5737653764802237)	(7.0003238043891294, 8.2885182645696958)	(-1.7348361215701349, 0.61349360843087375)	1.0	slash	0.829793
4	M	B	B	A					A	4	3	shapes	A	2	True	23	(2.1558362597070939, 3.1281532015759836)	(-1.210502611455472, -0.39446493477022493)	(-2.7089133549415649, 7.406138940598634)	(2.7965052501170256, -3.5358607330497263)	1.0	z	0.889489
5	M	B	A	B					A	4	2	shapes	A	2	True	23	(0.89495811558199456, 3.2768476856622684)	(-4.2772425634110176, 4.6799899611403362)	(-4.5196524608501285, -1.7819310814134282)	(6.4584952535043225, -2.9824845540519709)	1.0	z	0.705046
6	N	B	B	N	M	A	A	M	N	8	7	shapes	M	2	False	23	(-5.3984279782214628, -7.5686199751262118)	(2.4842985853853161, 6.8234372076348873)	(-5.2455990182678427, 5.290760297613966)	(-2.5328288401268448, 1.2394892483937063)	1.0	slash	1.20023
7	N	B	N	B	A	M	A	M	M	8	7	shapes	M	2	True	23	(6.0557799592396364, 4.7998148996133221)	(-0.39805659242124491, -3.393869181249622)	(-2.5374438112771154, 7.1552743072713643)	(-7.5712923680208926, 7.0482857156947141)	1.0	z	0.754487
8	N	B	A	B	A	N	M	M	N	8	7	shapes	M	2	False	23	(3.7110334659901234, 7.1128713479580803)	(8.6394287682665798, -6.0569842043427844)	(8.0780374894524591, 3.6091949308498172)	(-6.9041148460439423, 7.1644023365871909)	1.0	slash	0.703941
9	N	B	B	A					N	4	1	shapes	B	2	False	23	(3.5336382176356338, 7.9361478307376245)	(4.9341004644377211, -7.4546976791482802)	(-2.8751040549694693, -3.1909449291508167)	(-0.36067266624722016, 5.0032306071148422)	1.0	slash	1.28564
10	N	A	A	B					A	4	1	shapes	A	2	True	23	(4.6005975467946616, -6.3799187228785295)	(-7.6792500499592675, 5.0118427163673029)	(-4.5364686404484695, -4.7639277966824629)	(6.833603481671652, 8.4876976808467468)	1.0	z	0.4394
11	N	A	N	B					N	4	2	shapes	N	2	True	23	(0.43183883260303624, 5.5707304134750952)	(7.9591645038138203, -6.9239264092514388)	(-3.5697319111557597, -3.9602869513591905)	(-5.8156161252719922, 3.4663684501754108)	1.0	z	0.793051
12	N	B	B	N					M	4	3	shapes	N	2	False	23	(0.18727426129061975, -4.5772703768141945)	(-5.1255007581471004, 2.0871882684438532)	(5.6055857809414658, 6.0916723385949574)	(-3.3240300917641212, -7.9889061155655758)	1.0	slash	0.916648
13	M	B	A	A	B	N	M	N	N	8	2	shapes	A	2	False	23	(0.60165605877523376, -8.2852270923171254)	(6.2739226293970773, -8.196924512716901)	(-1.5379534179808125, -1.8932359823274663)	(-6.788293366293936, 8.0041824105229615)	1.0	slash	0.762228
14	N	B	M	A					B	4	1	shapes	B	2	True	23	(-1.4631965794808792, 3.9385871205467371)	(-4.6108198466304886, -1.4357218931388287)	(1.0746007257156549, 8.1704116086465071)	(2.988485593615545, -2.752665083887508)	1.0	z	0.723778
15	N	B	M	A	N	A	B	M	M	8	2	shapes	M	2	True	23	(-0.7468816246112393, -1.8484909115118118)	(6.7661393802696814, 2.7981303794206269)	(5.7947172292588185, -6.1986240314095955)	(-7.4866963569353011, 1.0903391398166615)	1.0	slash	0.685507
16	M	A	A	N					B	4	0	shapes	M	2	False	23	(-6.3311859500841727, -3.3308823074791212)	(1.4754219751876541, -7.5114111262219483)	(3.2747298844632375, 4.7446065996923377)	(-1.4316307055310578, 2.6263966312670028)	1.0	slash	0.695225
17	N	A	B	A	N	M	B	M	M	8	5	shapes	M	2	True	23	(0.18002039763721989, 0.43248446824988918)	(6.7910285423521266, 6.1964273283517475)	(-4.2094041657936332, -5.8054216055528016)	(3.2414447960046271, -5.3474416885652403)	1.0	z	0.91091
18	M	B	M	N	B	N	A	A	A	8	3	shapes	N	2	False	23	(-4.9555551391194639, -5.7094950816375647)	(2.2465809625674407, -2.1891568065944558)	(7.5292785238433986, 6.3633931067711771)	(-0.95527618727300467, -6.5754925542608502)	1.0	slash	0.778475
19	N	B	M	M	N	B	A	A	M	8	6	shapes	A	2	False	23	(-8.549163751337689, -8.1193799597525214)	(0.34781538842544357, 6.2980068688929638)	(-0.29084902938317292, -2.5925850699992541)	(6.1595184018024174, -3.4833173841727341)	1.0	slash	1.36197
20	M	A	A	N					M	4	1	shapes	A	2	False	23	(-8.1303033823756614, -0.7091317392972396)	(-4.7258790831380635, 1.5246341023577248)	(3.9142580857037501, 3.3615813614240579)	(1.8934741522240905, -3.5086730930165952)	1.0	slash	1.28385
21	N	B	B	A					B	4	3	shapes	A	2	False	23	(-3.3191078509505116, 8.1345672708585468)	(5.9709917282029412, -1.428976217058751)	(4.3214274910310184, 7.4334059439475659)	(-4.7616936541596662, -4.25628254823605)	1.0	slash	0.941286
22	M	B	B	N	N	M	A	A	M	8	3	shapes	N	2	False	23	(2.0847689466466193, -0.53982002208665136)	(-3.46974711283515, -2.5739003353354581)	(8.1296102181702885, -3.7020145681434515)	(-6.80273064933996, 1.3926901843472947)	1.0	slash	0.698867
23	N	A	N	M	A	B	M	B	A	8	7	shapes	B	2	False	23	(-7.5334664933771815, -6.8924074236907078)	(6.3034837309945626, -3.2923533576432273)	(6.7468145563815973, 7.1139170748425435)	(-7.416971700578868, -2.3125719419344781)	1.0	z	1.07221
24	M	B	M	A	N	A	B	N	N	8	7	shapes	N	2	True	23	(3.2234391538103377, -5.8481574576618369)	(4.9296111432553786, 5.1094573213946788)	(7.15637361773428, -4.2619930543706506)	(-2.4488395738496243, 7.3031491505310697)	1.0	slash	0.513731
25	M	A	A	M	B	B	N	N	A	8	1	shapes	A	2	True	23	(6.129887239787557, -3.2154821811348997)	(-7.5296016920990017, -7.93258647825248)	(2.9608597141785431, -7.7678769562123371)	(0.10494576988540238, 7.0446953721082757)	1.0	z	1.11807
26	N	A	B	N					A	4	3	shapes	N	2	False	23	(1.8227695488920705, -1.8713052244163908)	(5.1954562698718068, 6.301865359255034)	(-5.1921409088211288, 6.0147984106547323)	(-3.5744338990473761, -0.57374087182466482)	1.0	slash	0.799775
27	M	B	N	M	A	N	B	A	N	8	2	shapes	N	2	True	23	(-2.1970586311757643, -3.5552774056847847)	(2.2329301664220775, 8.3889411506534906)	(-3.784322861765208, 4.0721911465983318)	(0.091375854264439837, 2.6902695644588572)	1.0	z	1.58934
28	M	B	N	B					M	4	0	shapes	M	2	True	23	(8.3628273339460399, 6.4542398376147112)	(-3.4536773337909175, -2.3758860334072658)	(0.077972163907899628, -4.9368592859292866)	(-1.4233961626514766, 8.1857469804473837)	1.0	z	0.689816
29	N	A	B	M					N	4	3	shapes	M	2	False	23	(-5.4311328247414874, 1.3463715098268203)	(5.021645474286565, -1.4379353046547463)	(7.5976825119702021, 6.5415062804076349)	(-0.51630267478619274, -6.3170592599779702)	1.0	slash	0.888584
30	N	A	A	N	M	M	B	B	M	8	5	shapes	M	2	True	23	(0.28890392253419606, 5.3721624552681444)	(-5.4140742464494505, 6.0560064657836623)	(0.33004179183730464, 1.1328554302483589)	(1.2276014777092481, -5.9239218519385686)	1.0	z	1.03415
31	N	B	M	A	M	A	B	N	B	8	6	shapes	B	2	True	23	(4.0378951614202911, 4.6907761956731377)	(0.21971867625503805, 2.6637293267437805)	(-7.0848059830481915, 5.4353104690484493)	(-0.75121256308164153, 7.6437734351737632)	1.0	z	0.965914
32	M	B	M	N	N	B	A	A	B	8	6	shapes	A	2	False	23	(-3.4707241176256014, -1.3366838469100033)	(2.84930141920678, -3.614522923651549)	(-7.688336066009553, 2.9086557248498295)	(-0.22300584047055416, -7.0225554241865105)	1.0	z	1.02354
1	M	A	B	B	M	A	N	N	M	8	3	shapes	B	3	False	23	(-3.4054202416522212, -5.6796400917890892)	(2.1142591584446748, -1.9817384082305738)	(-7.9854259633167812, -3.518632033785817)	(6.362112096275558, -5.1472969775546282)	1.0	slash	0.875259
2	N	B	M	N	M	B	A	A	B	8	1	shapes	B	3	True	23	(-0.27053061679452028, -2.5558623648519969)	(-1.157207438231576, -7.3435138153691861)	(5.1727541159811476, 4.229397047682296)	(-3.6218170728994874, 6.9568236969018393)	1.0	z	1.03865
3	N	A	A	B					A	4	2	shapes	A	3	True	23	(2.8749963709317612, -2.0218120099080918)	(-7.8434659968894218, -4.6800269705825333)	(8.5716669062295274, 5.6517670255012931)	(-5.7202339225671892, 2.1410421892178491)	1.0	z	0.822453
4	N	A	M	M					B	4	3	shapes	M	3	False	23	(8.5825340615147638, 4.0805399490060061)	(-7.6048206497510229, 0.43322564205161207)	(4.8714194495805643, -6.4263683130057894)	(-2.6506440198944228, -7.0146551963173893)	1.0	slash	0.804064
5	N	A	M	A					N	4	0	shapes	N	3	True	23	(-2.0745691253937419, 1.3762495646244997)	(-0.96988347979946887, -3.0832308540841113)	(0.35898461080053501, 7.2519743332523525)	(7.1393585559607384, -5.6102997561901233)	1.0	z	0.651728
6	M	B	M	A					M	4	0	shapes	M	3	True	23	(2.8013497966485783, -3.1404763912727285)	(-8.3158421044250659, 7.9556899856633159)	(6.661435023278397, 0.87043207359219821)	(-6.4700795038200622, -1.396727024048527)	1.0	z	0.85137
7	N	A	B	A					A	4	3	shapes	A	3	True	23	(4.2535143445025838, 6.7916817964650225)	(-7.7510406492797683, -1.6832303069546466)	(4.3530004198437009, -0.38464730063827091)	(-2.5083273895560936, 0.11645400546149176)	1.0	z	0.96089
8	M	A	N	B					A	4	1	shapes	A	3	True	23	(1.6363610856850705, 5.2756374694831862)	(-2.0127501994540227, -1.1811727933676055)	(-2.517797462786957, 7.9465534588797198)	(0.2878655773832417, -7.4924969479359991)	1.0	z	0.746633
9	M	A	N	N					N	4	2	shapes	N	3	True	23	(-4.2612333975436272, -8.3002186533863132)	(3.6127557701849433, -6.4720733210598151)	(-7.3402418224596424, 0.1323835387504726)	(5.1854962926882493, 0.95362754024955798)	1.0	z	0.854331
10	N	B	M	A	B	M	N	A	M	8	5	shapes	M	3	True	23	(4.0148712368311585, 2.5192592581909583)	(-8.0420686268691011, -1.4830726830933942)	(-3.8867492027479074, 2.740606374858233)	(7.4107156108573307, -8.1728661494528989)	1.0	z	0.733364
11	M	B	N	N					M	4	1	shapes	B	3	False	23	(-8.2013389264958985, 0.34811223546792469)	(0.93486926136370485, 7.7454913908901304)	(0.83401194062065009, -6.2728893589589481)	(-3.5815052972007235, -0.34826349010872093)	1.0	slash	0.725664
12	N	B	A	B					B	4	3	shapes	B	3	True	23	(-0.34980585927213426, -0.051656143905182361)	(4.778710886055805, 7.6545841387414661)	(8.2718886219377623, -7.2435303378313289)	(-1.5235343972846307, 7.7291147955034667)	1.0	z	0.903258
13	N	A	A	M					N	4	1	shapes	A	3	False	23	(-3.9837492226440467, -0.48581626682827306)	(1.5270575714717296, 2.5559157660384528)	(7.934150070599344, -3.2292486379058829)	(-3.160495882171384, 3.5508602322521057)	1.0	slash	0.917013
14	N	B	N	M	A	M	A	B	A	8	1	shapes	B	3	False	23	(-8.675678043948535, -3.6216214454454176)	(0.77197085798800558, 8.1370738569721297)	(5.3169756858005268, 1.664624086837895)	(5.8478495975136013, -3.4093657030492954)	1.0	z	0.738028
15	M	B	M	A	A	B	N	N	B	8	1	shapes	B	3	True	23	(6.2740436434548297, 4.2238733417770042)	(-3.1315727813146248, 0.63445862661571084)	(6.6570358089825596, -1.7155689358220627)	(1.3483283920564055, 7.3432246003334107)	1.0	z	1.13032
16	N	A	M	B					N	4	1	shapes	A	3	False	23	(7.3290719853103212, -3.3343665336681028)	(-1.5486044505294645, -7.8029083575920968)	(3.8453500741471718, 5.6026935684887462)	(-5.186949879121622, 2.7332479700353254)	1.0	slash	0.801802
17	N	B	B	N					B	4	0	shapes	N	3	False	23	(6.095173975145844, -8.2373521422971017)	(-1.3424503953932643, 2.9699009842646689)	(5.8962382120932535, 4.0083005129972307)	(-8.5063051433344121, -8.4428334056342624)	1.0	slash	1.35563
18	N	B	M	N	M	B	A	A	M	8	5	shapes	B	3	False	23	(3.1095050117333116, -0.34307018689582769)	(-5.9823372119144622, 1.7361676310596224)	(6.2415095143667543, 3.5611553718716102)	(7.4567812035874432, -4.6987630852362372)	1.0	slash	1.17504
19	M	B	M	B	A	N	N	A	M	8	2	shapes	M	3	True	23	(-7.7244619858612422, -7.9832008665306056)	(4.1966782928205202, -4.5630160828862429)	(-3.3904094343056244, -2.9164063570452701)	(6.3850408180952432, 7.1077778813556147)	1.0	z	1.03877
20	M	B	A	B					A	4	0	shapes	M	3	False	23	(6.7562948465353632, -3.0221192311855827)	(-3.0460700563652647, 2.7122379174744484)	(-3.8544844006220398, -8.1694177634535876)	(2.3396772041977005, 5.3683236100133094)	1.0	slash	0.90245
21	M	B	M	N	B	A	N	A	M	8	7	shapes	A	3	False	23	(1.6779416725583367, -1.2933119356511193)	(-1.866619385267251, 3.0734212542399391)	(6.2472175712795313, -3.2399587724905201)	(-5.5233827925621171, -4.1368063698458375)	1.0	slash	0.725581
22	N	A	N	B	B	M	A	M	B	8	4	shapes	B	3	True	23	(-3.1150235431971156, 2.8853116238820693)	(-1.6890859812811039, 6.6328618073460763)	(8.2290843510797913, -5.9814895824841052)	(-4.0778838561701587, -3.3450740600049356)	1.0	z	0.599722
23	M	A	M	B	B	N	N	A	M	8	0	shapes	M	3	True	23	(-6.8266104674891812, -6.9749105788937928)	(-0.24764809865631854, 5.325817640295746)	(3.1652625181938046, -6.2691643741013081)	(-2.8987078735719898, 2.0412786354279504)	1.0	z	1.4433
24	N	B	A	B	M	N	M	A	M	8	3	shapes	B	3	False	23	(0.41063076891909667, 5.2986824736536313)	(8.1103412771587351, -5.9004217451706804)	(2.0922999290268312, -6.9560951465296705)	(6.342798700220218, 4.3655627535882076)	1.0	slash	0.62917
25	M	A	M	A	N	B	B	N	A	8	5	shapes	B	3	False	23	(6.8957514495664451, -8.2040283204774163)	(5.7433135526307737, 3.5593554346843312)	(6.5190272432668763, 8.5893912260209575)	(-1.9366284080940028, 1.2553703227770896)	1.0	z	0.85247
26	M	B	N	A	M	A	B	N	M	8	2	shapes	N	3	False	23	(-1.3577316006401157, -3.2475935520601187)	(-2.0973196387543798, -7.7439767389503835)	(6.4228708484221251, -2.7651928991910912)	(-2.2671730841649964, 8.1841511830823066)	1.0	z	1.03772
27	M	A	M	B	N	A	N	B	M	8	2	shapes	M	3	True	23	(6.1798328417654993, 3.2037516398985648)	(-2.8947780714581555, -0.74586448381113613)	(-8.0244012046872548, -0.53200890616036034)	(-6.3408419939438776, 5.2063632290654756)	1.0	z	0.809982
28	N	B	N	M					A	4	3	shapes	M	3	False	23	(7.4784124140202231, -4.9412019589605602)	(-1.5131446005488316, -5.3937249543437655)	(4.3743295734689038, 5.0035733010588945)	(-8.6174983090496209, 2.0829835756404727)	1.0	slash	0.881663
29	N	A	N	B					N	4	0	shapes	N	3	True	23	(0.27091474050828879, 5.6660191303349681)	(-2.5840591042422343, 1.7790958754395518)	(1.7179446353106123, -7.2896508703843672)	(-3.6444588143348966, -8.2730925314699437)	1.0	z	0.707398
30	M	B	A	N	N	M	A	B	B	8	7	shapes	B	3	True	23	(-2.3306600786981972, -3.9291709595797109)	(7.2064827556715123, 2.5176058099952634)	(1.6732405142805611, 2.7857809705359351)	(-6.5390430737278713, -0.69860301935203672)	1.0	z	1.06482
31	M	B	N	M	A	B	A	N	B	8	0	shapes	M	3	False	23	(-3.5108306140763288, 8.2515479833797976)	(4.0400022708747887, 4.0103538278118354)	(-3.2235137575659483, -4.1470551712292112)	(1.1684673686603997, -0.61415803516307932)	1.0	slash	0.862541
32	N	A	M	B					B	4	0	shapes	N	3	False	23	(-6.4189826022011252, 0.10071104777906825)	(-7.5716986770776256, -6.6665156570431146)	(4.4169730798874518, 1.440535942335643)	(0.444627088986282, -5.1689177008860758)	1.0	slash	0.80402
1	N	A	A	N	M	B	B	M	B	8	5	shapes	B	4	True	23	(5.9387550523356865, -4.9654310243769082)	(-4.5912794397177832, 0.87242130280341534)	(4.850690232822167, 6.1374416719061156)	(-0.52353010290609348, -0.49477727186586229)	1.0	z	0.875841
2	M	B	A	A	M	B	N	N	A	8	1	shapes	B	4	False	23	(-6.196979238237887, 4.9014831383833251)	(7.8330781191811596, 2.0584138917581392)	(0.87032025703578064, -2.3909514105016392)	(1.1738644099421212, 5.397294139960783)	1.0	z	0.847603
3	N	B	B	M					B	4	3	shapes	M	4	False	23	(-7.1168068268023417, -7.521938911355659)	(2.606394099949906, 1.6015613227938754)	(-2.3307348120094975, 3.034486862187828)	(1.8868578771058857, -3.203822552469723)	1.0	slash	0.726924
4	M	B	M	A					B	4	1	shapes	B	4	True	23	(-8.4459033483039576, 5.3587100005953392)	(1.1247975289681076, 5.5866109267210522)	(4.9725238587643084, -0.64733128980714483)	(-3.2557873398292996, -7.4357492989782603)	1.0	z	0.796789
5	M	B	M	B	A	A	N	N	B	8	0	shapes	M	4	False	23	(-0.35845757536584166, 7.6910552638653513)	(8.3459645457118157, 0.27466229098685702)	(-8.6570739160921626, 3.3983938641455538)	(7.1843747823653725, -4.780433641684116)	1.0	slash	0.746528
6	N	B	M	N	M	B	A	A	N	8	3	shapes	N	4	True	23	(6.2275921682864315, -8.0493641842055741)	(6.1741949224235242, -1.8270276898520894)	(6.4327857062413667, 5.8961116048319422)	(-2.2140109727066326, 1.5339127587586798)	1.0	z	0.920092
7	M	B	N	A					M	4	0	shapes	M	4	True	23	(-2.7344360701837012, 2.4323394140676733)	(-6.1159460264674212, -0.32663203392510276)	(6.0955517809325013, 6.0370539144351127)	(6.5409211374920062, -1.6032578297561955)	1.0	slash	1.38849
8	N	A	A	B	N	M	B	M	A	8	7	shapes	M	4	False	23	(0.25216830723426931, -5.8694473275451031)	(-4.9839100138741923, 7.7406579337172978)	(-8.7132153306436635, -4.849673981474476)	(-2.3767653976567313, 1.3794070491859571)	1.0	slash	0.620825
9	N	B	B	M					B	4	1	shapes	B	4	True	23	(7.215443861239148, -0.017387480747247608)	(-3.387197421781079, -8.3709275315832041)	(6.5208374654449415, 8.2612368478419)	(-5.4923929463533554, 5.599664202584826)	1.0	z	0.755047
10	N	A	B	B					M	4	2	shapes	B	4	False	23	(7.9062786006179024, 7.6806206466043037)	(-8.4437937198181761, -2.530946114827926)	(3.8561179646877637, -4.1884872057356475)	(-6.6750589409855738, 3.3178629632952497)	1.0	slash	0.982673
11	N	A	N	B	M	M	A	B	B	8	7	shapes	B	4	True	23	(-5.0803486249307861, -7.0774121196052322)	(6.5856187378966613, -1.8999436535181893)	(-8.1343101940846481, 7.669271777783532)	(1.2431713565777525, 1.8702956499637171)	1.0	z	0.724363
12	N	B	M	M					A	4	1	shapes	B	4	False	23	(-3.8307480850858759, -2.6818711022341004)	(3.4700151215787258, 2.0807462395633127)	(3.2047544953734768, -5.0755654787618916)	(-3.2637584170610596, 4.599656773070917)	1.0	slash	1.21397
13	N	B	N	B					N	4	2	shapes	N	4	True	23	(-6.6016832308586597, 0.8514847095437208)	(-0.16421339503486898, -6.9999276025552)	(3.2879960959849175, -4.0095892757840481)	(7.1676492264783498, 5.4770150383710501)	1.0	z	1.7816
14	M	B	A	B	M	N	A	N	B	8	7	shapes	N	4	False	23	(-8.2603137037707519, -7.4848965331578849)	(-2.4522706834596857, 7.8147179859788096)	(6.1571279465207187, -6.4404776294794699)	(0.18038395552760633, -7.3304834783490342)	1.0	slash	0.683169
15	N	B	A	A					B	4	1	shapes	B	4	True	23	(-3.575249306353621, 4.9247651654312108)	(-3.1740196777856653, -4.161837917126606)	(0.8913810313702033, -3.6603127770416695)	(8.7322788333117387, 7.9423090918374832)	1.0	z	0.580931
16	N	B	A	N					N	4	3	shapes	N	4	True	23	(0.48936679437993291, 5.3953997098109312)	(8.6968156995177708, -4.5569016915269973)	(-1.6883413228032724, -5.4689891716972614)	(-5.4943955568825906, 6.6131893759425875)	1.0	z	0.656659
17	M	A	A	M	N	B	N	B	N	8	4	shapes	N	4	True	23	(-1.8957264606443527, 0.63293082820009161)	(-2.5546566321439563, 7.8692341085992688)	(0.84425345551286846, -4.8289776522168246)	(-8.0975208830332726, -3.2446675300519248)	1.0	z	0.808124
18	N	A	M	A					N	4	0	shapes	N	4	True	23	(-3.3427747040592948, 6.7393763261275943)	(5.8363794692449158, 5.1308695616671915)	(8.3792904261820276, -2.5395907392469503)	(-4.9860940571579482, -4.0284727112440892)	1.0	z	0.519763
19	M	B	M	B					A	4	2	shapes	M	4	False	23	(-7.2050530874179586, 5.7485055939704992)	(-8.4896816534719122, -5.130431277024794)	(6.5565943869262373, -3.5555211711240924)	(1.7374743870349416, 6.8865953312864647)	1.0	slash	0.863561
20	M	A	B	M	B	A	N	N	A	8	1	shapes	A	4	True	23	(-6.1994900448214949, -2.347539215386151)	(5.1120646624896793, -7.7623680064399645)	(-2.6551692390501636, -8.2129544351424357)	(-2.4838716615843222, 2.3764655257410521)	1.0	z	1.02928
21	N	A	N	A	B	B	M	M	A	8	3	shapes	A	4	True	23	(5.8192316344839004, -7.9889812371152713)	(1.5705974500007009, 2.6322339595998656)	(-7.0746284507086736, -4.2322550021470349)	(7.4961372211017192, 5.0514965257142315)	1.0	z	0.834659
22	N	B	N	M	B	M	A	A	N	8	3	shapes	M	4	False	23	(-0.78469909082729838, 1.8177489240560796)	(1.929404574684515, 7.0839671070177967)	(-7.8688697980749307, 4.4755759009850955)	(-0.33260592401256517, -3.044334122099162)	1.0	z	0.782355
23	N	B	A	M					N	4	2	shapes	A	4	False	23	(6.0128966394259944, 2.6105571203863676)	(0.92175602776127974, -2.6252803368548108)	(-5.7782883494386557, -6.2458753353593224)	(-5.443529097700643, 7.3427120589649633)	1.0	slash	0.900028
24	M	A	N	N					N	4	2	shapes	N	4	True	23	(2.9420331754890352, -1.0086648157751865)	(-5.2426750928678825, 4.4850508624897572)	(4.3877232861785433, 3.6431732699860255)	(-3.8877790432866828, -8.1505359610895987)	1.0	z	0.967853
25	N	B	A	A					A	4	1	shapes	B	4	False	23	(-6.5757435262357884, -1.0376297713438909)	(1.981481559709497, -3.3640865418346095)	(-1.4753469117971623, 5.2095521975626493)	(3.6566744070060473, 7.8127915058341486)	1.0	slash	0.719434
26	M	A	M	N	N	A	B	B	B	8	3	shapes	N	4	False	23	(7.5196747110677258, 6.428830135007237)	(3.999495990235534, -8.607385141615115)	(4.487818066329968, 1.9324288190155112)	(-4.3296751861163898, 0.25659170540194332)	1.0	slash	0.955188
27	N	B	M	N					M	4	3	shapes	N	4	False	23	(0.064528521160401198, 8.1227724273575106)	(7.370524482605294, -2.0984411380161854)	(-5.8253554115104649, 2.4735025646637254)	(-5.7020946696517987, -8.1241515405568325)	1.0	slash	0.748568
28	N	A	A	M	B	N	M	B	A	8	2	shapes	A	4	True	23	(6.8515702603921955, 4.2612226838963974)	(-3.0998918166619251, 0.8794128031778925)	(-6.6515290728806686, -2.2778260910553731)	(-4.0773281870969109, -8.2013533073520062)	1.0	z	0.858287
29	M	B	N	A	A	B	M	N	B	8	1	shapes	B	4	True	23	(-3.7521835038590456, 6.2197432224142464)	(1.397461810626929, -8.230325205673843)	(7.4140114284141774, 5.3483922112145059)	(-1.1318358798905122, 2.9710246541101046)	1.0	z	0.898115
30	M	B	B	A	N	M	N	A	N	8	2	shapes	B	4	False	23	(6.5801132051219149, 6.9737216644786546)	(-8.3363334544264145, 5.0177185280088832)	(2.3943351303193445, 7.9585506082659982)	(-2.295559070880973, 6.0667520039138108)	1.0	slash	0.827305
31	M	B	N	M	B	A	A	N	B	8	2	shapes	N	4	False	23	(7.4557691623473374, 4.9448843737262838)	(1.1341230056120075, 7.1389487079591838)	(-1.3064448336425292, 1.4547265519037342)	(-7.506881123497994, -8.0085088313155719)	1.0	slash	0.753421
32	N	B	N	M					N	4	1	shapes	B	4	False	23	(-7.7753028596325375, -6.7131463318358371)	(0.9075800241611276, 4.8323368128519295)	(4.3077394490748784, -0.73996785801184828)	(-7.5764056875351518, 1.723085048773509)	1.0	slash	0.619023
1	N	A	A	B	B	M	M	N	M	8	4	shapes	B	5	False	23	(8.2924343233602578, 0.038756560391384198)	(-3.1879249103950249, -3.6294844305433651)	(-6.004397693792896, 0.69753454276651894)	(2.4465828069511559, -7.2689354927747498)	1.0	z	0.944546
2	M	B	B	N	A	N	M	A	M	8	6	shapes	M	5	True	23	(5.3985128663546469, -7.1208790387924434)	(-4.951045971281725, -4.5679426335213371)	(-0.74815659408475099, 7.7858990618526676)	(3.7309128354189607, 5.7967054799517683)	1.0	z	0.790223
3	N	A	B	B	N	M	M	A	A	8	7	shapes	A	5	True	23	(3.7659632286241678, -8.3072199110964302)	(8.277011943285455, -6.6457900192168555)	(7.4255179577619472, 7.3003843407961035)	(-3.085026105518061, 7.3629862346951782)	1.0	z	1.02784
4	N	B	N	M	B	M	A	A	N	8	4	shapes	B	5	False	23	(0.99907687178211013, 4.5719997897856217)	(-3.6958323973419409, 1.7087565947490884)	(7.1839144661067351, -0.89261566554548111)	(-6.3272062653446044, -1.3930564334235065)	1.0	slash	1.15373
5	N	A	M	B	A	M	B	N	A	8	4	shapes	A	5	True	23	(1.0656258370026546, -5.1535115684648218)	(-4.7475088609249285, 5.0750569633387297)	(6.8741615708133974, 4.1895541828585916)	(-5.0144071341278309, -5.2782618907925611)	1.0	z	0.845188
6	M	A	B	A	N	B	M	N	B	8	5	shapes	B	5	True	23	(4.1304544370480833, 8.6266758945771649)	(-3.0913584119674038, 8.1856223675493105)	(-5.8962986574323217, 2.6757440535857082)	(-5.6707448186659528, -1.8035367236927291)	1.0	z	0.990847
7	M	A	A	N	B	M	N	B	A	8	3	shapes	N	5	False	23	(1.491127280643969, -2.3131606463051666)	(3.9616076565048726, 7.2284088588136832)	(-7.5067409620678571, 1.5136081501017262)	(-1.3010473905250084, 7.3343213024870764)	1.0	slash	0.745858
8	M	B	B	N					N	4	3	shapes	N	5	True	23	(5.6580391898967797, -2.5395935548610957)	(-0.41272352414806157, 7.0598048155912885)	(-3.2191635589714007, -4.674189388765166)	(7.3104287504710506, 7.3426057292805318)	1.0	z	0.624115
9	N	B	B	N	A	A	M	M	A	8	7	shapes	M	5	False	23	(-4.4363280544280093, 4.1264032411100384)	(2.9256622610510501, -6.6983417847936568)	(3.2379660920720887, 6.8133295951566222)	(3.5602508152631174, 2.0388440745310472)	1.0	slash	0.781164
10	N	A	N	B					M	4	3	shapes	B	5	False	23	(-6.7283256221447321, -6.4002441889280455)	(-6.4543718763266735, 1.161934083992346)	(2.3452781714008459, 8.1842553563172125)	(3.7208114130901802, -4.4264598153166235)	1.0	slash	0.531252
11	N	A	A	B					N	4	0	shapes	N	5	True	23	(8.6950808859219997, 8.5417091478291702)	(-6.5911262114293994, -3.6660593426622254)	(4.8778191607243517, -5.2236996668183622)	(-3.0229869719364322, 1.5401042543106502)	1.0	z	1.01126
12	N	B	N	A					N	4	3	shapes	A	5	False	23	(2.2454147582224415, 2.4997636517055586)	(-7.7551792433258173, -6.1984592569113088)	(4.5312117379164469, -8.0325816018876282)	(-7.7792195039194194, 1.2340749078651108)	1.0	slash	0.778811
13	N	A	M	M	A	B	B	N	N	8	4	shapes	A	5	False	23	(-2.6322636499679408, -8.4301105547274311)	(2.8072591473623962, 5.486579501235461)	(-8.6777147377960393, -1.9101179812329105)	(3.1077535672375589, -0.69631393580459289)	1.0	slash	0.778534
14	M	B	B	A	N	A	N	M	B	8	6	shapes	N	5	False	23	(4.5656478161028264, 0.91756563141516523)	(-7.1100059167227894, -8.6220096176004422)	(-8.1714790521311684, 7.5662994738859126)	(-0.38892994957492633, 3.6290476265874805)	1.0	slash	2.3234
15	M	A	A	N					N	4	3	shapes	N	5	True	23	(6.7881874807763811, -0.064274566400394306)	(-7.5428048730466362, -2.2880361195033938)	(-3.9737126618629528, 7.110137268590039)	(0.9320604076253165, 7.9117906301470811)	1.0	z	0.723606
16	N	B	N	A					B	4	1	shapes	B	5	True	23	(-6.8316074056899465, 1.13359800955506)	(-2.5913793511522378, -6.1500460142057989)	(6.6918537166730871, -2.1641681860461945)	(6.6965060333231357, 1.8511738723632476)	1.0	z	0.637355
17	M	B	M	B	A	A	N	N	B	8	4	shapes	A	5	False	23	(0.1773449416127022, -8.2741834893219277)	(1.464789757233028, 6.0358150679674072)	(-0.0016564108881791384, -1.955664453489403)	(5.2671469438178633, 1.2672777305513812)	1.0	z	0.816708
18	N	A	A	N	B	B	M	M	A	8	2	shapes	A	5	True	23	(-8.375001244678085, 3.188648523346167)	(-6.6926847451658986, 7.9276109355360767)	(5.7669036468643018, -0.47073993450135632)	(5.1540701302079537, 7.509872824060789)	1.0	z	1.20858
19	N	A	N	B	A	B	M	M	A	8	1	shapes	A	5	True	23	(-4.9055887833861318, 4.2620316344185145)	(2.2473378501313643, -5.624918603513958)	(5.515782109814154, 3.7781301663514579)	(3.3009234857695429, -0.4096250581982801)	1.0	z	1.00232
20	N	B	B	M					A	4	1	shapes	B	5	False	23	(2.2128968816879748, -2.5435166129342504)	(-0.80816028010281205, 5.0140233349183347)	(4.6194321847262696, 1.6318712408713107)	(-4.6422887890484361, -2.2689053983573704)	1.0	slash	1.2039
21	N	A	A	N					B	4	1	shapes	A	5	False	23	(5.8249795147093462, 6.6924930348764562)	(4.5078057760460535, -2.0694308796899881)	(-5.3870920764531451, 0.73989989274052093)	(-0.60474617868884017, -1.4039618738140636)	1.0	slash	1.24555
22	M	A	M	B					M	4	2	shapes	M	5	True	23	(-4.7577691406449647, 8.3737027231917018)	(4.237602659091916, 0.95243858778472834)	(4.5058384573620671, -6.9201960031867209)	(-5.7072249782354625, -3.9864145255537871)	1.0	z	0.615057
23	M	A	N	M					N	4	2	shapes	N	5	True	23	(-1.0937438776437709, -3.6842560567571336)	(4.7097037252584322, 7.0339515885746753)	(-8.4575358744783404, 1.0048692252336693)	(4.6954981289897937, -7.4931909425741718)	1.0	z	0.606776
24	N	A	M	M	N	B	A	B	B	8	2	shapes	M	5	False	23	(2.8867516427513706, -3.7424716761788899)	(-3.707506011329742, 1.8753567101240787)	(5.2257499204533122, 6.7916756617594061)	(-0.63247496611712961, -6.585714496390688)	1.0	slash	0.842596
25	N	A	B	A					M	4	2	shapes	B	5	False	23	(6.1308371043589407, 1.0067129748626567)	(-5.9105462467839578, 0.63688487074553635)	(-7.4714570078765528, -3.333673311835458)	(0.79026723794114417, -4.6038788790225622)	1.0	slash	0.668084
26	N	A	N	M					M	4	1	shapes	A	5	False	23	(-4.2465714716549421, -7.8662319718120388)	(2.349104793843134, -8.6957290913248251)	(-2.2428533408750528, 4.1482164431497868)	(5.0445433571737244, 3.7602380608031218)	1.0	slash	0.631893
27	N	B	N	A	M	B	A	M	A	8	3	shapes	A	5	True	23	(5.1144097443437566, 3.820095692368934)	(-2.1863635887130703, -3.535373873923394)	(7.1150963969322412, -3.7649788945795031)	(-1.0377466056518312, 1.4449037743153195)	1.0	z	0.893545
28	M	B	A	M	A	N	N	B	A	8	4	shapes	A	5	True	23	(-6.5611802020771446, 3.3783543781590968)	(-1.0464594912131941, -4.1327913286815328)	(5.4336243848016146, -8.5181725986000867)	(8.2139356943181028, -0.79984681244671574)	1.0	z	1.30901
29	N	B	N	B					B	4	3	shapes	B	5	True	23	(-4.8075519648092371, 8.2040437308179612)	(3.0131449602094786, 3.4893366671622612)	(3.1595559725877553, -3.7406050347223552)	(-6.5072085401362125, -8.7362946709623213)	1.0	z	0.840447
30	M	B	N	M					A	4	1	shapes	B	5	False	23	(7.8553946166490185, 5.8296403529329428)	(-2.3880346221805242, -4.0468034838291764)	(-8.5736704492630995, 2.0456414712697946)	(8.6237469335064318, -6.2133409337806444)	1.0	z	1.27437
31	M	A	M	A					A	4	1	shapes	A	5	True	23	(-1.3467232553032042, 6.628094251091639)	(2.6732117776267135, -4.2272090067294599)	(6.7841445331018129, 8.7116143505989641)	(-0.78081344271407982, -0.3847334226379342)	1.0	z	0.59781
32	N	B	A	N					A	4	3	shapes	N	5	False	23	(1.4817014447452976, 8.4110019347642329)	(-5.3367438193338552, -8.6931364059904581)	(8.3367047686738758, -8.4571927316766438)	(-6.6213607384548787, 0.62032202135817371)	1.0	slash	0.733477
1	M	A	M	B					A	4	3	shapes	B	6	False	23	(1.407703109222993, -3.837792195797725)	(6.3099485170238232, 7.5582787705117624)	(-2.9103334320273762, -3.5888939704582405)	(-1.6187263635035762, 2.1790594872260982)	1.0	slash	0.663142
2	N	A	M	A					N	4	0	shapes	N	6	True	23	(-8.1185408658058229, 2.4803189582117859)	(5.7225790493994673, 0.10547454548312274)	(5.3926749003378678, -6.761483882728462)	(-2.1084243800803009, -3.6525540621861126)	1.0	z	0.388913
3	N	A	B	B	A	N	M	M	M	8	0	shapes	N	6	False	23	(-7.5749518647741514, -3.0399166308283352)	(-1.4599043448704894, -4.8165570444559158)	(-6.2874739773846873, 1.1704649639925808)	(2.3126809570835327, 6.2621983522837006)	1.0	slash	1.35453
4	M	A	A	B	N	N	M	B	A	8	1	shapes	A	6	True	23	(4.7920796097615685, 1.0200423249461306)	(8.1830970763690054, 8.5385799873297294)	(-2.8167429296641977, -2.5294750935499062)	(-0.71954235783152853, -8.7061422719318635)	1.0	z	1.02226
5	M	B	M	N					M	4	2	shapes	M	6	True	23	(8.6646964052014503, -4.2810543986599949)	(5.1853105587640069, 6.3281537003446697)	(-5.5064072228077841, 4.5348310493259287)	(-8.4437842290016132, -0.12515254604143955)	1.0	z	0.913832
6	N	A	A	B					A	4	3	shapes	B	6	False	23	(6.919436068936907, 5.8783754529982026)	(4.2289270847196594, -2.6492213126220356)	(-6.6000589193859627, -6.2757095398387861)	(-2.1289648890196311, 3.9168502546376516)	1.0	slash	0.725528
7	M	A	A	B					A	4	2	shapes	A	6	True	23	(0.85363300956551136, -5.9877929966921535)	(-4.9007860611597795, -4.2877284483361224)	(-0.13979397880677524, 6.9801138004194883)	(6.171424175767612, 4.5696991045968076)	1.0	z	0.599146
8	M	B	A	M					N	4	2	shapes	A	6	False	23	(-8.6410644853663268, 2.108902116292219)	(5.8407633699500163, 6.8545352263881298)	(1.2949083986691345, -5.4839635543967038)	(-4.0440251406455747, -3.523921338291232)	1.0	slash	0.582948
9	M	B	M	B					B	4	3	shapes	B	6	True	23	(-8.3685345764946266, 6.4054977739360162)	(7.7424134497715329, -8.2769881778537719)	(-0.75333459242943945, -2.2165223458516694)	(2.4067591955571679, 6.8685206410606199)	1.0	z	0.650491
10	N	B	A	N	M	B	A	M	N	8	3	shapes	N	6	True	23	(6.2636154639244843, -4.848029137292114)	(-7.6361788741473973, -1.0725031663888389)	(-1.4397989656740311, 1.147000572095461)	(6.1534648417558895, 5.1744772953916964)	1.0	slash	1.43619
11	M	B	B	M	A	N	A	N	A	8	5	shapes	N	6	False	23	(7.6066536520836507, 4.902030848157267)	(-4.0173698223672112, -7.5421741304442236)	(0.8204857054101371, 8.6562788547377671)	(5.0869746712468391, -5.4684707002600783)	1.0	slash	0.735821
12	M	B	M	N	A	B	N	A	B	8	0	shapes	M	6	False	23	(-3.6911353245071705, 2.2441104697180965)	(5.4015897545824387, 8.2039702596985755)	(-8.7231164386880593, 4.4535920699785585)	(7.5456191699313671, -1.2262593905508394)	1.0	slash	0.696143
13	M	B	B	N	N	M	A	A	A	8	6	shapes	A	6	True	23	(-1.6332496619051904, 3.4497062655981789)	(3.1565144965109564, 6.3076804165103191)	(4.0360230707420666, -8.7019908059261351)	(7.4011068086359906, 1.550425114275594)	1.0	slash	2.01495
14	M	A	B	N					B	4	1	shapes	A	6	False	23	(-0.24151796002806769, -4.0059509404461258)	(1.7883275386379047, 4.1421130180805612)	(5.5702565133585527, -3.5204079045484633)	(-6.3340631059935575, 3.1757052569707298)	1.0	slash	1.05287
15	M	B	N	M					B	4	1	shapes	B	6	True	23	(-3.0971790091025913, 3.6452624085167322)	(-0.77913768565186015, -6.4886491787193483)	(4.0102970856166849, -2.8792987466667528)	(7.3279405326122671, 0.59403651952054837)	1.0	z	0.996356
16	M	B	B	A					B	4	2	shapes	B	6	True	23	(8.3406939379150913, -3.6663900719669824)	(-5.1827177375049427, 7.3928233350777646)	(-6.3266587433585908, -6.9835920532757854)	(6.9010252561684595, 3.0097665912899991)	1.0	z	0.581921
17	M	B	B	N	A	N	M	A	B	8	0	shapes	M	6	False	23	(-3.5132641467887833, -4.3666309103221801)	(6.6311384263506561, -7.796378204002842)	(1.6208854822213254, -3.6304171374250487)	(-1.5446463660136187, 0.10697162046961139)	1.0	slash	0.915717
18	N	A	N	B					M	4	0	shapes	N	6	False	23	(0.4022495649186677, -5.7873524901471018)	(4.6945520903530156, 2.2897594108147441)	(-3.9710823601906382, 5.3595681500339332)	(-8.3524263626548176, -2.3558488581571959)	1.0	z	1.11116
19	N	A	B	M					M	4	0	shapes	N	6	False	23	(-2.3888854603990772, -5.7941066836160289)	(1.2309574080479901, 5.1891078017680279)	(4.5512953599710322, -2.2201393959423523)	(-8.3271258809843687, 0.71789734661975935)	1.0	slash	0.578839
20	M	B	N	A					A	4	3	shapes	A	6	True	23	(-6.8637330857127985, -6.132908663557485)	(-6.4544864577031253, 4.24007493184107)	(2.9533166493987686, 7.6326946600502765)	(3.1293779936340211, -8.3475196152345763)	1.0	z	0.736476
21	M	B	N	N	A	B	A	M	N	8	3	shapes	N	6	True	23	(1.8521596230532698, 1.6470273727827838)	(-6.216923695836055, 0.78543627897475154)	(-8.0682110196633978, -5.9590360300243264)	(7.8890769341993234, -8.5748487841820769)	1.0	z	0.680156
22	M	B	B	A	M	A	N	N	B	8	0	shapes	M	6	False	23	(-8.4085005914616726, 2.1084249154302643)	(7.8323306311831438, -1.7902606683019231)	(-1.9978523944481408, 3.0652061928308676)	(3.3401930687280732, -5.4999014915994628)	1.0	slash	0.561804
23	M	A	A	B					B	4	3	shapes	B	6	True	23	(6.8983967011877816, 3.8709939690825816)	(3.072184457849346, -4.4522527937316321)	(-0.71758285065677718, 5.1321494944337882)	(-5.689533472284011, -2.6272146946979342)	1.0	z	0.539448
24	M	B	A	A	B	M	N	N	A	8	5	shapes	M	6	False	23	(0.31612652677091901, 3.7486825837110178)	(6.2970046608960342, -5.7494116218021283)	(1.5876315698329257, -1.3066436926474427)	(5.3723581703094982, 4.1222609785069793)	1.0	slash	0.796733
25	M	B	N	B					M	4	2	shapes	N	6	False	23	(-5.4394918713479568, -4.6824275616370086)	(-5.1054790939345072, 5.8579547171665141)	(1.64224747890127, -2.7338338861817322)	(8.0388418213811583, 3.1423021798117112)	1.0	slash	0.893011
26	N	A	A	M	N	M	B	B	M	8	3	shapes	M	6	True	23	(-1.7492057864720296, -8.480411178873922)	(-4.6391967852509843, 4.363329901732893)	(8.1987843404286807, 4.525963810562061)	(4.5443272741083618, -1.4248046513586106)	1.0	z	1.44381
27	N	A	N	M	B	B	M	A	A	8	1	shapes	A	6	True	23	(4.2476398895261909, 4.5056854766566516)	(3.7077391505468444, -8.5472021630072401)	(-3.6864404190284432, -7.8892147949095142)	(-6.8598391560794028, 7.560032549290618)	1.0	z	1.35155
28	M	A	A	N	N	M	B	B	N	8	2	shapes	A	6	False	23	(-7.8393703757480298, -1.7749563558757)	(-0.41859373160235691, 5.0226557066390747)	(5.0649065950187211, 4.8724029280649681)	(-7.4723765547686156, 7.9213639671432219)	1.0	slash	0.84377
29	M	A	N	N					M	4	1	shapes	A	6	False	23	(-0.81932257433813405, -4.2018013258063096)	(-0.31694928984761006, 0.26358675027897149)	(6.653747893374506, -4.577317835551411)	(4.0781250978507089, 5.5974948422686186)	1.0	slash	0.653416
30	M	B	A	N	N	A	M	B	A	8	5	shapes	A	6	True	23	(4.3330803684736274, 6.5810021065664888)	(-2.9968515692889888, 2.5918769156309818)	(-6.6478154250931389, -8.3743709432118578)	(0.77026145664945567, -1.4432150776940889)	1.0	z	3.27701
31	M	B	B	M	A	A	N	N	N	8	3	shapes	M	6	False	23	(7.9892690208576376, -3.1206850757985043)	(-1.833978247068849, -5.8556411781825837)	(-5.3214509405222961, -3.1614900391507677)	(7.0309748109995365, 5.1481577243875645)	1.0	z	1.16046
32	M	A	M	N	A	N	B	B	M	8	2	shapes	M	6	True	23	(7.3968380644744194, 1.2295688233234383)	(4.8747477668378423, 6.874241375299869)	(-1.0407952333236974, 4.9495369334181358)	(2.5191347217255124, -4.3975220677388593)	1.0	z	0.60226
1	M	B	B	M	N	N	A	A	M	8	3	shapes	M	7	True	23	(-1.6449490166628555, 5.2697463597334249)	(-6.4331737130702003, -8.4609026824351652)	(4.2327611448049556, 4.9110524201877013)	(6.3725575706395716, -3.4627464819978355)	1.0	z	0.57186
2	N	B	M	B					N	4	3	shapes	B	7	False	23	(8.6827106566755994, -3.3544328968551884)	(-3.3644132760072942, -0.45822653865355889)	(0.8620806506463321, 0.35810773603283508)	(-6.6766360505221245, 8.7384510921483667)	1.0	slash	0.875419
3	N	A	N	B	M	M	A	B	B	8	1	shapes	A	7	False	23	(8.3423657315845645, -3.7254526032862207)	(-5.1811190603094932, 5.9618292856621746)	(3.0949290849976556, 0.15393883407385367)	(-6.3678052341084985, -2.9720561173636959)	1.0	slash	1.45522
4	N	B	N	B	A	M	A	M	A	8	4	shapes	A	7	True	23	(-0.39112193911674709, -1.8246307132206967)	(-0.9019184915706262, -8.6333062995830474)	(-4.6225361400619747, 6.2620944996290486)	(6.5015448273669456, -1.2808748295430696)	1.0	z	1.08658
5	M	B	N	M					B	4	0	shapes	M	7	False	23	(-4.206104665262056, -1.8246570826086606)	(-4.9986126136909528, 2.5450191561251341)	(8.0036359060355444, -4.2694676064964776)	(3.4320578580022989, 8.1559864570690301)	1.0	slash	0.71848
6	N	B	M	N	A	A	B	M	A	8	2	shapes	M	7	False	23	(5.8705435556822216, -6.1648726333580566)	(-5.7295786316817505, 4.6056449144296305)	(1.574349497059222, -5.1899939233460604)	(3.9680735129471483, 3.6364786023296105)	1.0	slash	0.770074
7	M	B	N	A					N	4	2	shapes	N	7	True	23	(0.78175102383510975, -5.8722472339289347)	(4.2505871208158226, 1.2493710697444751)	(-7.6734330172154355, -3.9401976513647368)	(-0.50662578659136059, 7.8402285591148981)	1.0	z	0.513717
8	M	A	M	A					B	4	3	shapes	A	7	False	23	(4.9733481585108237, -0.51609221146325446)	(-7.9016102655377374, 5.9424802354746831)	(-7.9601614885584375, -1.0034704791429077)	(1.9062099594405062, 5.451815904559167)	1.0	slash	0.637308
9	N	A	A	B	N	M	B	M	A	8	2	shapes	A	7	True	23	(5.6214414894745577, -2.3454633488736123)	(-0.0050128650827510057, 6.7468271588659317)	(-1.8917286005683547, -1.8536227258621434)	(0.37830400546158671, -5.7793762432989055)	1.0	z	0.921471
10	M	B	M	B	N	N	A	A	N	8	4	shapes	N	7	True	23	(-7.70514466448462, -0.011763726666067953)	(8.2641936286098385, -6.3312608051913424)	(6.8956034175133212, 3.2646765592885814)	(-2.3506029543246703, 4.035958276979871)	1.0	slash	0.898554
11	M	B	B	N					A	4	3	shapes	N	7	False	23	(4.9331454932604348, 2.2079600156370436)	(-6.9737501006486138, 4.570935703605187)	(0.9189403435128618, -7.237114822306606)	(-7.6814880310138136, -7.6000783270668979)	1.0	slash	0.646152
12	M	B	B	M					M	4	0	shapes	M	7	True	23	(4.5979882134032994, -0.78964210142133862)	(-0.97202680087567739, 3.6544350907314325)	(7.490435438806788, 3.7331687549279025)	(-8.6411170250635223, -6.895466335193503)	1.0	z	0.903938
13	N	A	M	M	N	B	A	B	N	8	3	shapes	M	7	False	23	(1.9955041587203759, -5.719923805799084)	(-8.032792006688215, -0.54891053482639585)	(-3.2921029774631307, 4.368530961110439)	(8.6676913026037177, -8.611437213812092)	1.0	slash	0.693414
14	M	B	A	A					N	4	3	shapes	A	7	False	23	(-3.5031254977519843, 4.0910194064372689)	(6.1756206702775724, -7.2317443932732033)	(-0.38567560577739357, -3.8814377051096827)	(6.9775298523197797, 5.6455486627901958)	1.0	slash	1.13123
15	N	A	A	N					B	4	2	shapes	A	7	False	23	(-7.6708563798541878, 0.1941254465565585)	(6.8450262664416677, 4.2586899908560945)	(5.4075301051880391, -3.0390053064854285)	(-5.0660589957811979, -5.1036172938277398)	1.0	slash	0.59474
16	M	A	A	N					M	4	0	shapes	M	7	True	23	(-0.65587417813588544, -8.5595801077971476)	(6.5345571553886259, 1.388999108333584)	(-0.63592860556557085, 5.6007374094328455)	(3.5680016937910271, -8.4991746261845158)	1.0	z	0.622655
17	N	A	A	B	B	M	N	M	N	8	4	shapes	B	7	False	23	(2.154751495193663, 0.69156139672226757)	(7.2134613303097623, 3.705282870285286)	(3.8520906777944433, -6.4893288615175528)	(-1.3930832854331614, 3.186863893598078)	1.0	slash	0.501752
18	N	A	B	N	A	M	B	M	M	8	4	shapes	A	7	False	23	(6.1410502209495963, -0.87274731146298379)	(-0.60844973922562851, -5.9934560431247039)	(-0.32941105772695067, 5.3781570829164469)	(0.11045636559967775, -1.782164110097213)	1.0	slash	0.651467
19	N	B	A	M	M	A	N	B	B	8	5	shapes	A	7	False	23	(-3.9520692859516959, -5.2972990183851909)	(-6.5980738449153504, -8.7456950557386115)	(0.37794382372350732, 4.049241175530307)	(6.1073999712133542, 2.6679604022087346)	1.0	z	1.35554
20	N	A	N	M					M	4	3	shapes	M	7	True	23	(7.831910524222863, 4.9217082938195063)	(-3.1438311570564386, 3.1884663982384698)	(-0.48675816760056101, -4.8508903619080552)	(4.6650902672784795, -6.987494413347509)	1.0	z	1.00668
21	M	A	N	N					A	4	0	shapes	M	7	False	23	(-8.4747790959082803, -6.6631780645854519)	(2.3462436293326796, -3.0282266516722371)	(-7.6045547091337315, 3.5559168251068112)	(4.3319113277963766, 8.0667246927250211)	1.0	slash	0.744855
22	M	B	M	N					B	4	1	shapes	B	7	True	23	(1.5071541356530709, 4.2984964269717683)	(4.2086262940038903, -7.3932869802451151)	(-5.5728941840367465, 8.2467864310680135)	(-4.0268404407743548, -2.5186675447017564)	1.0	z	1.0784
23	N	A	N	A					N	4	2	shapes	N	7	True	23	(4.9907963993191533, -2.0258658855332001)	(-4.8997047027371536, -4.0140700214529241)	(-4.1570502831308094, 8.614811533258063)	(8.249772852252157, 4.4131136189557125)	1.0	z	0.760083
24	N	B	A	B					A	4	2	shapes	A	7	True	23	(6.290300551393111, -6.5241837344462663)	(-4.4759314526528424, 0.21455692057542031)	(6.875079114024917, 4.4990979548979055)	(-1.8773214255703765, -5.1046834784578401)	1.0	z	0.665792
25	N	B	N	B					B	4	2	shapes	N	7	False	23	(-8.6029912930355206, 5.0063619699672302)	(7.4331732289339882, -3.7680438336512792)	(-2.4772110045681321, -3.0082582873646411)	(1.4674722442186994, 5.3515971337664201)	1.0	slash	0.697218
26	N	A	M	B	M	A	B	N	N	8	0	shapes	N	7	True	23	(3.087790761743106, 7.7971253397770042)	(0.49551534002205244, -1.2176942777316908)	(8.6525328847661811, 0.30702142560758539)	(-4.7224869782083774, -7.8579473092559207)	1.0	z	0.782567
27	M	A	N	M	A	B	B	N	N	8	2	shapes	N	7	True	23	(-7.8558969427112588, -2.8820809225555877)	(2.1712077398857552, -0.74410682024373287)	(6.6740533751021172, -1.735327334604496)	(2.4439335501666086, 5.4623283239612945)	1.0	z	0.740655
28	N	B	N	B	A	M	M	A	M	8	7	shapes	A	7	False	23	(8.4535439768865146, -4.4994449345361902)	(0.5317505296203997, 2.380270765722635)	(-0.83182721253169234, -8.3990469869339961)	(-8.0632896580310618, -8.5431052909007725)	1.0	slash	1.04398
29	M	B	N	B	M	A	A	N	B	8	2	shapes	N	7	False	23	(-2.6655654043253465, -3.913743015679688)	(3.7433343358332092, -1.7245108892549403)	(3.2609267087569425, -8.3567658979211625)	(-7.5774964720732818, 7.3828160654671819)	1.0	slash	0.654307
30	M	A	B	B					M	4	0	shapes	M	7	True	23	(3.4385462871671759, 1.7014049820872685)	(-8.0104970807700884, -8.0254415904935854)	(-7.4168911511494304, 0.25767638363787526)	(7.4800199495642907, -5.1179571044355985)	1.0	z	0.933727
31	N	A	N	B	M	B	M	A	M	8	6	shapes	M	7	True	23	(-4.5619599443910799, -7.8579959653028961)	(0.016117882676908835, -0.81884132865263393)	(-6.8923087167893433, 2.5982040259312225)	(6.4542873531240446, -1.9829355428592166)	1.0	slash	1.37344
32	M	B	N	N	A	B	A	M	M	8	7	shapes	M	7	True	23	(-6.0100811903181093, -6.6446951079590448)	(7.6454156754933713, -0.40486192473832183)	(8.6634829131606352, -5.264175627524768)	(-7.5950567900272334, 6.2446961652246351)	1.0	z	0.636852
1	M	B	A	B					B	4	1	shapes	B	8	True	23	(-0.20889897187912787, -7.4174221869240657)	(-5.5759439216084621, 4.4240819437270176)	(0.77956251761996853, 1.9513240365661542)	(8.2983921029890659, -8.7061198115825214)	1.0	z	0.720582
2	N	A	B	A					B	4	2	shapes	B	8	True	23	(8.5066442802401276, 6.935393792636555)	(2.6216493377615482, -0.13850754675438282)	(-4.7248248311887027, -3.9988575187400128)	(-2.523069420465772, 4.7311608415976245)	1.0	z	0.586288
3	M	A	B	M	B	N	A	N	N	8	3	shapes	M	8	False	23	(7.2332745984130842, -4.887937836224828)	(-3.9454978918877197, -6.8670994863304351)	(-2.162416789535893, -2.9113884662607141)	(-3.4292500604576706, 4.7745373262930748)	1.0	slash	1.418
4	N	A	N	B	B	M	A	M	N	8	2	shapes	N	8	True	23	(7.2943857935915801, -1.3673152257246395)	(8.41979224019763, 5.5751064443120573)	(-8.0737055035827616, 0.29128012423787553)	(-7.1526217750698109, -7.6749520596824938)	1.0	z	0.467208
5	M	B	B	M					B	4	1	shapes	B	8	True	23	(1.2983485711726335, 4.4171206854135647)	(4.0517220111609493, -2.0996227836087327)	(-7.8180829533828424, 7.5534088133480992)	(-5.1111284019970613, -5.5709622108434154)	1.0	z	0.639289
6	N	B	M	B					M	4	0	shapes	N	8	False	23	(1.5467756896603078, 0.98548559273561942)	(-7.522139611329, -4.9402062245814164)	(0.41209781503288845, -7.2287359282480388)	(-0.088546256606980123, 8.6775446381047345)	1.0	slash	0.694992
7	N	B	A	B	M	A	M	N	N	8	6	shapes	M	8	False	23	(-2.7706118825884367, 6.8298018700777678)	(-2.6462436044907847, -8.0809633683370592)	(3.1200148866521289, -8.0281889011045706)	(0.55854796775468962, 0.9881859927050467)	1.0	slash	0.701962
8	N	B	M	B	N	A	A	M	N	8	0	shapes	N	8	True	23	(-7.2197662481535403, 8.2723850780060033)	(-7.7773737717339166, -0.38972050224051991)	(4.9914319583943012, 4.4360167550004768)	(6.9655756438255896, 0.74242377646446123)	1.0	z	0.732233
9	N	A	N	A					A	4	3	shapes	A	8	True	23	(4.2137802486454259, 7.730757209932019)	(-0.20551161378609528, 5.2162798273020563)	(3.9124150217541285, -7.8495256711668624)	(-2.3513393145005494, -2.6573550042142999)	1.0	z	0.644082
10	M	B	A	M	B	A	N	N	M	8	1	shapes	B	8	False	23	(4.0694640970644667, 6.9539221354271046)	(-3.7353899523057761, -6.9420720313889674)	(-0.31231731502967541, 5.671420224610495)	(-1.1073579122424322, -2.8157785425219872)	1.0	slash	0.7511
11	N	B	N	A					A	4	1	shapes	B	8	False	23	(4.8303599935065815, -7.1764410984220346)	(-4.5403112688701759, -6.9212789381732005)	(-6.4789519599242942, 5.9440610989785831)	(7.8316052762299506, 1.4125619949356665)	1.0	slash	0.865354
12	N	A	N	A	B	M	M	B	B	8	7	shapes	B	8	True	23	(4.525934072045338, -6.8502567249092614)	(-3.6352548099945308, 5.3551144442701712)	(-3.4133161420008014, -4.0482322605037231)	(4.3433429452574792, 4.5326872739675252)	1.0	z	1.22271
13	N	B	A	N	A	M	B	M	A	8	0	shapes	N	8	False	23	(-3.9338569254209839, 0.85102663148598801)	(-2.0426818163023519, -4.774048634032054)	(2.6674067705104711, 2.2828447569988075)	(-0.91422615840775379, 7.7420494771765753)	1.0	slash	1.58846
14	M	A	B	N					M	4	1	shapes	A	8	False	23	(-6.7736313991994175, -8.029828376136189)	(0.15417285405458614, -1.1290243536252484)	(-8.2689900730475969, 8.4443003959709593)	(2.4265190423186347, 4.1605402350240261)	1.0	slash	0.592202
15	N	A	B	N					A	4	1	shapes	A	8	True	23	(5.4348162666561368, -2.3759625057767861)	(-4.8370447266300776, 4.1046072741891866)	(-2.1160518926249914, -7.9875902666009431)	(5.414215946042642, 7.7789544715423027)	1.0	z	0.803955
16	N	B	N	M					B	4	1	shapes	B	8	True	23	(3.2539910610392813, 2.8094193783220049)	(-7.9901134457629306, -2.3905870524596056)	(2.132432317827222, -6.0365832082237922)	(-7.4476452481563093, 7.8731910169160351)	1.0	z	0.9174
17	N	B	B	N	M	M	A	A	M	8	4	shapes	M	8	True	23	(0.1714750255356261, 0.97717405360503129)	(2.2943911681185547, -8.561559510313046)	(-8.2751028965382574, 4.9944935715218044)	(-1.5679090963299105, 5.2028455146475476)	1.0	z	0.75286
18	N	A	M	B					N	4	3	shapes	B	8	False	23	(5.6269262164060425, -5.4834486738966426)	(-0.64883287592567207, 2.7674342518551551)	(4.2799291854964832, 8.4097795893985712)	(-2.0630670323059785, -7.9120841050432533)	1.0	slash	0.972725
19	N	B	N	B					N	4	3	shapes	B	8	False	23	(-2.3985296877478817, 1.7609872481794522)	(8.6495374116689412, 5.0973399344080867)	(2.8785337650679921, -3.6765079556151825)	(-1.6599834300336074, -3.3293475698724802)	1.0	slash	0.63452
20	M	B	N	M	B	N	A	A	B	8	1	shapes	B	8	True	23	(4.0636892499975268, -1.8933585804562529)	(0.35337930757641089, -4.831383966931627)	(3.1646672492807362, 4.4987817384737205)	(-1.4000567794305416, 1.8673205914068021)	1.0	slash	1.16616
21	N	B	M	M	N	A	B	A	B	8	1	shapes	B	8	True	23	(8.1054136925679998, -8.6806697582778227)	(-4.5002967842685848, 5.8626829641238629)	(8.1130272097699319, 0.95109307802090015)	(-2.4062932759189293, -1.9004611535801246)	1.0	slash	1.77548
22	M	A	A	N					M	4	0	shapes	M	8	True	23	(1.8524703173824904, 2.225406056685296)	(-3.116947988800896, 2.0655572443444079)	(6.9901448857181432, -2.1025157217544077)	(-6.1066866226668273, -1.9226744091266941)	1.0	z	0.573214
23	N	B	B	A	A	N	M	M	M	8	3	shapes	A	8	False	23	(3.5641656496039893, 4.3046497911426389)	(8.6321136866783377, 4.3723270401902408)	(8.0231658779750852, -7.2324813366255798)	(-5.6333472997578253, -5.5543342070773178)	1.0	slash	1.26034
24	N	A	B	N					N	4	0	shapes	N	8	True	23	(-1.7215040967065303, 2.7491217302742612)	(-4.7707158234976443, -4.0780444401778411)	(4.3080465807981021, 0.12422794297891571)	(3.0466811326073913, -6.7290738871295641)	1.0	z	0.506704
25	N	A	N	A	M	B	B	M	N	8	0	shapes	N	8	True	23	(0.61136928920214295, -4.5256233844663685)	(1.882956743865499, 2.5450127567459937)	(-1.7554633347539124, 5.9184535280271202)	(-3.4859399522939736, -3.3105574460691836)	1.0	slash	1.21576
26	N	B	N	B					A	4	1	shapes	B	8	False	23	(5.5979429578133875, 2.5455507815451881)	(-0.97063962036289908, 4.2910390308905324)	(-1.2855197666264138, -0.18139369817584416)	(8.7069256447512693, -2.525373665972543)	1.0	z	1.00798
27	M	B	M	N	A	B	A	N	B	8	4	shapes	A	8	False	23	(2.2153885277355201, -4.1517412527036601)	(8.6202436938755156, 5.4493828846710599)	(-4.0978238929411122, 6.3934260844953368)	(1.4836850023569728, -8.3154803884348425)	1.0	slash	0.841015
28	M	A	A	N					M	4	3	shapes	N	8	False	23	(-4.806074291198402, -2.6969491996706552)	(8.4379872605736601, -6.9643092333649914)	(4.2982959271631298, 6.8998544665291117)	(-2.2945758375155902, 8.1846084474622884)	1.0	z	0.68314
29	N	A	B	B	N	A	M	M	A	8	2	shapes	B	8	False	23	(4.8275742263224988, -5.9539822219576966)	(5.6270365843741939, -1.1255641262588174)	(-0.16148271280584048, -1.5264781358765047)	(0.31051301272947285, 4.145207466015993)	1.0	slash	0.812679
30	N	A	B	M					B	4	1	shapes	A	8	False	23	(-3.6323382199566998, 1.8338550088620735)	(8.0023470206895801, -4.0210236121971779)	(-3.0707000319884434, -8.3549178901946206)	(0.76319508781757683, 7.300604934296878)	1.0	z	0.388474
31	N	A	N	A	B	M	M	B	M	8	6	shapes	M	8	True	23	(-6.2533556709951981, 4.2989813905802343)	(7.7141379719274603, 8.5301997934182374)	(0.66495840459775835, 4.91076409799307)	(-6.9097165282384632, 8.4641189788546569)	1.0	z	0.586466
32	M	A	N	M	N	A	B	B	A	8	7	shapes	B	8	False	23	(0.965610915430684, 5.2909359094835278)	(-3.715985001024368, 7.147914367970218)	(-6.2598847391986343, -0.010575066443543335)	(-8.5155564327228461, -5.7090066527111016)	1.0	z	0.591387
