TrialNumber	stim0	stim1	stim2	stim3	stim.probe	ttl.stims	corr.num	trial.type	stim.corr	block	match	Subject	stim.pos0	stim.pos1	stim.pos2	stim.pos3	ran	resp	RT
1	N	A	M	N	B	4	2	shapes	M	Practice	False	24	(-3.3738111933582857, 0.24260757055806259)	(-0.71130497233950862, -8.0923140675589451)	(1.288373541436421, 7.8674039087777281)	(4.520398249978042, -2.8806707993844114)	1.0	slash	2.46443
2	N	B	N	A	M	8	5	shapes	M	Practice	True	24	(-4.6082301350556776, 8.6438574601937042)	(1.6802479757488378, 5.982575141630754)	(-4.3252416762779937, -7.2089242917290397)	(-2.9970158516091736, 1.4342155051164305)	1.0	z	1.59975
3	N	A	B	B	N	8	2	shapes	B	Practice	False	24	(-4.3550427398572937, 5.8183720842455422)	(-0.48980744062506609, 1.3530864285766455)	(7.4739321594039865, 0.12689817439790296)	(2.9461619154524463, -2.0921203527928416)	1.0	slash	1.51956
4	M	A	N	M	N	8	7	shapes	B	Practice	False	24	(-5.0205972256308238, 6.1256583304682426)	(5.2270430601496152, 7.3506093473084597)	(7.0619090663866579, -7.5926360421387198)	(3.7598842496968388, -1.8135156449253405)	1.0	z	2.64501
5	M	B	N	N	N	8	3	shapes	N	Practice	True	24	(5.5856314695870335, 5.2544210939055525)	(2.0388420661621041, -7.2279427821389968)	(7.9301684158205425, -1.2758956045914172)	(8.0643510219512216, 8.4632451254538736)	1.0	z	4.29628
6	N	A	M	N	A	4	1	shapes	A	Practice	True	24	(8.4137056579172089, 1.8338704683812637)	(-6.7315474934436992, -4.2351654987878327)	(-1.2024633336719459, 4.7840345821353729)	(6.4403006256105026, -2.6579833344394688)	1.0	z	2.18401
7	N	A	A	B	A	4	2	shapes	A	Practice	True	24	(1.8430987080853125, 3.5013191630330489)	(-5.2391801152521973, -8.5238744747965232)	(-7.7743871223359271, 1.716048813459949)	(3.9383404431356368, -2.7561234289206524)	1.0	z	0.66136
8	N	A	N	B	B	4	1	shapes	A	Practice	False	24	(-5.4289250883388425, 3.4949874924504503)	(8.4852793545622944, -7.135955913255291)	(4.2953981218154631, 4.0897290510318047)	(-4.56340621128449, -6.7277447782127506)	1.0	slash	2.27513
1	M	B	A	A	A	4	2	shapes	A	0	True	24	(3.6091117297387907, -6.1119135085817948)	(-6.2781895415977313, -1.2395474994528115)	(8.1808417843350334, 2.9458675442259921)	(-2.42105853924929, 7.8202517226343673)	1.0	z	1.79144
2	N	B	B	N	A	8	2	shapes	B	0	False	24	(-2.3125392525876682, 1.8572207158568261)	(1.6970746039959295, 1.7416941595592146)	(1.8777929919822096, 7.7325217809931672)	(-6.8223505110241192, 7.7883739862307024)	1.0	slash	1.05497
3	N	A	M	N	M	4	2	shapes	M	0	True	24	(-3.0518061872978448, 6.9753992681003414)	(-1.8860312810238762, -3.2091286290093972)	(0.40070622292906322, 3.2823680488902482)	(6.2836367986273594, -3.7592447156864814)	1.0	z	1.00654
4	M	B	A	N	M	4	0	shapes	M	0	True	24	(6.0981382081854054, 5.5384425977739244)	(-3.4898500252013225, 6.3886591244465389)	(0.3667287097995402, -3.9268712040492364)	(-7.4631818484949219, -4.6855494369284809)	1.0	z	1.17609
5	M	A	N	A	M	8	7	shapes	B	0	False	24	(2.7303434645181088, 6.1294574830852575)	(0.65475378597016842, -6.5209732606779545)	(-6.6362051933367461, -4.4186058960014476)	(-7.7162197749484083, 6.5911986674515912)	1.0	z	1.32185
6	M	A	B	M	N	8	0	shapes	M	0	False	24	(-8.1166827286308205, -8.6407609983121549)	(-3.3541635976445674, -1.4275430797847566)	(1.9447804448867174, -4.6574582702168348)	(-4.3423812070779704, 8.5627522247710672)	1.0	slash	2.65335
7	M	B	M	M	N	8	0	shapes	M	0	False	24	(5.168988637084853, 5.3675799878652057)	(1.6349812840673223, -1.8085360048887891)	(-1.8219073198906619, 3.0048211227094423)	(-0.43393763938182595, 8.720493877675402)	1.0	slash	0.982861
8	N	A	N	A	M	4	0	shapes	N	0	False	24	(4.2528553532575035, 3.1066002073215628)	(0.80948643918394581, -6.7118623465892746)	(-3.5649415231793338, 6.0361681339646669)	(-5.7953659221450096, -5.6095101564392458)	1.0	slash	1.04461
9	N	B	N	A	N	8	0	shapes	N	0	True	24	(-0.10892805683896611, -4.9416000766150425)	(0.34853275994986355, 2.0426536458437177)	(-4.1585085792538496, 4.3719293131563663)	(-0.35131093612921838, 8.1643970867741693)	1.0	z	1.1202
10	N	A	A	B	A	8	1	shapes	A	0	True	24	(-6.7249839449066586, 8.3845484658644054)	(6.47730929858945, 5.9903180868200483)	(-2.1215183594019598, 4.5292077519068261)	(5.782512158988526, -5.3524534108390558)	1.0	slash	1.49388
11	M	A	M	N	A	4	1	shapes	A	0	True	24	(-0.13736594322230644, 5.867583015488238)	(5.5943297304543069, 5.1882544056984248)	(-3.4303423752179096, -7.0664980891326392)	(4.2560599133480412, -7.2945987917424837)	1.0	z	0.821631
12	N	B	A	M	B	4	2	shapes	A	0	False	24	(7.3290656536804377, 6.2121654771337003)	(0.12804025027687871, -8.6871432543522999)	(-4.916567480561886, 1.952481003634972)	(-5.0688733764599494, -4.9187852568220478)	1.0	z	1.04303
13	N	B	N	B	B	4	3	shapes	B	0	True	24	(-0.35979015139903936, 3.515292513268955)	(1.9975495670200996, 7.8490250514947064)	(-5.6327554896266694, -5.5956515125192672)	(3.5972859062023357, -2.7481193913959814)	1.0	z	1.26873
14	M	A	A	B	N	4	2	shapes	A	0	False	24	(-5.497384740034672, -6.9385682727355507)	(-5.6984799469795089, 6.4170783840911643)	(1.2194493183442834, -0.081778197762330862)	(5.0648576304480137, 8.1809466217237663)	1.0	slash	0.856404
15	M	B	N	A	A	4	0	shapes	M	0	False	24	(-5.0326851698988282, 6.3219059097312229)	(4.6729371437281984, -8.4267485556436377)	(0.61528307618490352, 6.993308905054505)	(-3.9780296976983722, -4.8835000402071476)	1.0	z	1.112
16	N	A	B	A	N	8	1	shapes	A	0	False	24	(-5.4134013955301068, 2.0621462105252206)	(-7.052824996155314, 6.475582498713397)	(5.6507305839738127, -0.62622946836948579)	(2.2010701179873671, -8.0885448358130976)	1.0	slash	0.997641
17	M	A	B	A	M	8	6	shapes	B	0	False	24	(0.71305982422742709, 4.7937301608651222)	(6.339993482460315, -1.1015220285360448)	(-7.8159332609730976, 3.4957959634444311)	(-2.4315453663852855, -3.6460773420243564)	1.0	slash	1.02743
18	N	B	N	B	N	8	5	shapes	N	0	True	24	(4.721143729855088, 4.7233575339764826)	(4.046069818337326, -6.3433859505320864)	(-6.629849699803259, -3.947170186052305)	(0.14385281725360599, -1.3172345040214406)	1.0	slash	1.30685
19	M	A	A	N	M	8	0	shapes	M	0	True	24	(8.5836444195226136, 6.0567917389602268)	(-0.49917438473613984, -5.6772018501817989)	(-6.2297354783051402, 5.2894923361826525)	(1.4417685342870588, 6.9899034602049586)	1.0	z	1.05046
20	N	B	M	M	A	4	1	shapes	B	0	False	24	(-6.1903280455610421, -0.077052690342096497)	(2.7818625503253518, 6.2864462637870346)	(-1.9857599993758388, 6.0636825305477551)	(0.32053179938990084, -1.5295490975035255)	1.0	slash	0.690144
21	M	A	N	M	B	8	7	shapes	N	0	False	24	(-0.42933792893149914, -6.3400928055084167)	(-6.1738141463898391, 4.0320549440399862)	(-5.1276496216517398, -6.0845022284909014)	(-0.028700691891465624, 3.3286085660569711)	1.0	z	1.46987
22	N	A	A	A	B	4	2	shapes	A	0	False	24	(8.7118151801970889, -0.34337605467210786)	(3.6743974621267412, 0.82809989589567401)	(-8.1352086108796549, 7.8868001898821483)	(-1.7597157840348698, -3.0553718950382454)	1.0	slash	1.90541
23	N	B	A	N	M	4	0	shapes	N	0	False	24	(-2.1722264302762868, 7.2845436745773)	(0.49648861045652914, -1.4827256040787544)	(1.7955125951250466, 3.2578489161168598)	(-4.7033684602218981, -4.5506079481615043)	1.0	slash	0.671029
24	N	B	M	B	A	8	5	shapes	A	0	True	24	(-0.85393362922943883, 8.1206810283842188)	(-6.0970713060487638, -7.1245164623707229)	(-1.9595483411927157, -5.7028869859336044)	(-7.4392153354874875, 8.2292047566454762)	1.0	z	0.704678
25	M	B	B	N	B	8	7	shapes	A	0	False	24	(1.4907949224934214, -6.0729767934064895)	(7.9969166934475915, 0.050003396056744975)	(-3.6656236062774044, -8.1668423397406436)	(6.0494594652439648, 6.4741378466765216)	1.0	slash	1.6003
26	N	A	N	N	N	8	6	shapes	N	0	True	24	(-4.3510997429650642, -2.2759469855832339)	(-8.6183823554544698, -6.2145385033939275)	(4.2883126216405234, 7.2811747034174914)	(-1.4285098623980685, 8.2393041385034351)	1.0	slash	1.18198
27	N	B	M	A	B	8	5	shapes	B	0	True	24	(-5.800243428193844, -7.3005682008858965)	(-8.5936397780007461, 4.7514095784948989)	(5.710890993172276, -7.3438275386077629)	(-4.6954190368502386, -1.3866233951575566)	1.0	z	1.17344
28	M	B	M	N	M	4	2	shapes	M	0	True	24	(-3.9418945207354525, 3.0168820961173246)	(2.3184801663492713, -3.1998543125738887)	(-2.716781446400379, -2.4638507954648041)	(5.0063121003187021, 1.6830283804306401)	1.0	z	1.46107
29	M	A	A	B	B	4	3	shapes	B	0	True	24	(7.9120647086081917, -8.2116407630334844)	(-7.0413759186414824, 4.0877734649316455)	(-8.7439181750553399, -6.9579662609249961)	(7.9642572695755405, 8.2827489199496327)	1.0	z	0.730742
30	N	A	B	N	M	8	4	shapes	M	0	True	24	(4.9352422843811716, 8.4627100975393326)	(-6.0997304352346724, 3.0404992367362205)	(8.416847319403935, 4.5543181013043945)	(-5.3695139553982028, -8.5609015202609466)	1.0	z	0.508536
31	M	A	B	A	A	4	3	shapes	A	0	True	24	(-0.18742630348603662, -5.5970899989587277)	(3.6414028869937276, -2.1904883822740198)	(-1.6392085056756818, 1.7451989781719295)	(5.4992926178069812, 3.9781396306504053)	1.0	slash	0.961973
32	N	B	M	N	B	4	2	shapes	M	0	False	24	(-0.23586246085944218, -7.3998285616245054)	(5.7011915979100962, -5.9684644114847281)	(-3.4103095402700347, 0.79008520653647096)	(2.443720105254009, 7.4036776722411801)	1.0	z	0.633853
1	P	D	O	O	D	4	1	shapes	D	1	True	24	(-1.7007552236821484, 8.0556808629116929)	(-0.9562529180385777, -6.9465499811259859)	(6.2763016208607123, 0.36378099863901525)	(6.9631539972667529, -5.1681491575380063)	1.0	z	1.46929
2	O	C	O	C	C	4	3	shapes	C	1	True	24	(-5.7400116249217152, -0.97379860669764273)	(-8.420260859270396, 8.3556075763378495)	(1.592091084458815, 3.9306830099293499)	(7.7848730127417021, -3.8296178010862345)	1.0	z	1.53496
3	O	D	D	P	D	8	0	shapes	O	1	False	24	(-0.8500315814162871, -0.48499230055735865)	(7.2359831057750945, -5.7457193983734722)	(-8.2893576024337534, 3.3891599123819596)	(-5.361168175470115, -1.4337029979789708)	1.0	slash	0.998669
4	P	C	D	C	O	4	2	shapes	D	1	False	24	(7.392733364072626, -5.0045525419114547)	(3.2257051625147071, 0.90670359658108168)	(-4.4253755898589295, -0.36533706800564225)	(-4.7659250274721856, 4.0577204495155215)	1.0	slash	1.00027
5	P	C	P	O	O	8	7	shapes	O	1	True	24	(3.7296727607484854, -0.14179591670174929)	(7.2376930611700363, -5.9407971416560494)	(-5.7821741491953542, 6.6004427984870198)	(-5.3640382903623935, 2.5101931436274221)	1.0	z	1.23389
6	O	D	D	O	D	8	1	shapes	D	1	True	24	(2.5541355437958213, 7.5272107062834479)	(4.3088017880192666, -6.0070586618535202)	(-7.6230249483298476, -2.7066065337519536)	(4.6924830642883144, 3.1202196007599294)	1.0	z	1.16556
7	O	D	D	D	D	8	4	shapes	D	1	True	24	(-7.8628522907382337, 3.1825864460549749)	(-6.6771056176071726, -5.677677793728483)	(5.2507811532622242, 8.7081029982807756)	(0.49386902227903207, 4.8169048615487053)	1.0	slash	0.921115
8	O	D	C	P	C	8	1	shapes	D	1	False	24	(-8.3991199159011778, -1.7213051152815151)	(6.8780626830477072, 6.7174028576576656)	(-2.2622991535054888, 4.6757837057564728)	(3.162280653995289, 3.4233662984733435)	1.0	z	1.1647
9	O	D	O	C	P	4	2	shapes	O	1	False	24	(2.0082229099446867, -2.5960529771280925)	(-0.97619128215624329, -6.2664018977518658)	(5.7105423732003295, 4.3015955439974647)	(-6.4817754862232473, 6.6225934958558579)	1.0	z	0.766507
10	O	D	D	C	O	4	1	shapes	D	1	False	24	(6.3976909027708793, 6.4671534468265897)	(3.3884220562174505, -6.7183555634788314)	(-2.5774537530138684, -6.7228427021225938)	(-6.6488777925233542, 8.6221223210303002)	1.0	slash	0.752063
11	P	C	O	D	D	8	5	shapes	D	1	True	24	(0.60831171855322985, 3.5675009779871392)	(4.6362029002830543, 8.1600335629453546)	(-1.1841730439382641, -3.4561652493994641)	(5.7447037039776827, -3.7394911739693777)	1.0	z	0.781835
12	P	D	C	C	O	4	3	shapes	C	1	False	24	(-7.7288527575660648, 7.5725452617521896)	(7.8712383252402205, -7.7791684714855371)	(-3.9693708683702518, -3.1344403904755529)	(2.4759957592735109, 5.1330722003674349)	1.0	slash	0.7154
13	O	D	C	P	D	4	1	shapes	D	1	True	24	(7.1076332493463337, 5.3906575104097953)	(-3.3107750110384329, -0.66862221519675735)	(-8.358866269356378, 8.2347647004267301)	(3.1433599991700927, -5.7564784139775442)	1.0	z	0.56693
14	P	C	C	C	D	4	0	shapes	P	1	False	24	(0.57989613467369949, 2.6596644523818647)	(4.9001847590187069, -5.188372166287051)	(-3.8624458049525767, -8.2737096733425961)	(-7.3105661863619815, 6.8795459793139688)	1.0	slash	0.624801
15	O	D	O	P	O	4	0	shapes	O	1	True	24	(-0.45594346625593118, -5.8551278763179955)	(-6.9123087838657513, 3.8906825419221764)	(4.0161602453565948, -7.5996096597959761)	(8.6911428993958388, 1.8381095133751462)	1.0	z	1.46245
16	P	D	C	O	P	4	3	shapes	O	1	False	24	(-3.207293689852091, 0.082065186640274845)	(0.13416706736339279, -2.9791579597840343)	(4.4948859727081931, 4.7275686304254894)	(-3.6015453103445649, -7.5749166726699961)	1.0	z	0.764123
17	O	C	D	P	O	8	6	shapes	C	1	False	24	(-2.6276229536886486, 5.2856033710749291)	(7.114991218821924, 1.8806322606921189)	(-1.325003599625143, -0.16925696801744294)	(2.4963445148837504, 7.3930153380932637)	1.0	slash	0.967523
18	P	C	C	C	P	4	0	shapes	P	1	True	24	(-5.3312368331758604, 7.8002379019732011)	(2.7108696122797795, 7.5248278709871883)	(5.9223090504324531, -2.2365540594866875)	(-3.7004846460113576, -5.2769073753929154)	1.0	z	1.71453
19	O	D	C	D	C	8	7	shapes	C	1	True	24	(-2.3353305565762943, -4.359050307508344)	(2.8259449694708429, -1.0605222691878078)	(5.7154606436559625, 7.6454255524261647)	(-4.89873155255769, 0.87732872138620976)	1.0	z	0.734868
20	P	D	D	D	P	4	0	shapes	P	1	True	24	(-6.193230353063921, -1.1590786553299361)	(8.090232746086599, 4.5697755525927199)	(3.0307091353084381, -4.3972441523284678)	(-5.3960041001695824, 3.6896193162679527)	1.0	z	0.398535
21	O	C	P	P	D	8	6	shapes	C	1	False	24	(-7.3942916936403629, -0.65589109953572589)	(2.1048523689114269, 3.3881271957318866)	(-0.30449987446773363, -3.1947102580364684)	(8.7405813767864053, 2.9760185500198979)	1.0	slash	2.81416
22	O	D	D	O	D	8	0	shapes	O	1	False	24	(1.6219935907272998, 0.25695228805398962)	(-4.3721277478201745, -2.2111706496759034)	(6.6732820293558124, -4.7171516587661628)	(-7.0363722513595359, 7.6427117011268741)	1.0	slash	1.28782
23	P	C	D	P	D	8	2	shapes	D	1	True	24	(4.4253780792930559, -3.3984280934001472)	(-7.8696873570645645, -5.623466512260145)	(6.7700455799904908, 5.1505102083499139)	(2.260317475193343, 4.4144432240851827)	1.0	z	0.811327
24	O	D	C	P	P	8	3	shapes	P	1	True	24	(7.2341318582977134, -1.9530714959534805)	(-7.0298166032900369, 7.6917562291890604)	(3.5492799261859478, 2.3306779431719935)	(-5.2459375882063837, -2.1175824813708148)	1.0	z	0.597097
25	P	C	C	D	D	8	3	shapes	D	1	True	24	(8.5377240199324298, 8.2279667338873423)	(2.2351814671455941, -0.5134174210529352)	(-7.5356489539831131, -8.6615420677927268)	(-8.5265282563588674, 0.085940553871182601)	1.0	z	0.674643
26	P	D	P	P	O	4	2	shapes	P	1	False	24	(-3.2838012510782004, 7.190777356054836)	(4.9651860437431754, 8.0054162016056374)	(4.7439364339129337, -0.39891879650625661)	(-2.7600299970753044, -2.4470334628447539)	1.0	z	0.702391
27	O	C	O	O	O	8	5	shapes	P	1	False	24	(-1.7901054600727058, 5.9649117769084761)	(-8.2338677272259773, 8.2477315882821074)	(4.9384932367005732, -6.2030250337590376)	(-6.0666204231264826, -0.26163342086168306)	1.0	z	0.629958
28	P	C	P	D	C	4	1	shapes	C	1	True	24	(-7.4054840565897049, -4.9781498945203726)	(7.4096816696912988, -1.5683793634081686)	(-0.24928243483416068, 1.7878637668790027)	(2.1212480975570998, 6.991127807541563)	1.0	z	0.681794
29	O	D	C	P	C	4	1	shapes	D	1	False	24	(0.28712721644904349, 7.3702041607986253)	(-3.7236319469508388, 3.9258521295156648)	(-6.10363851254648, -3.694224757490348)	(7.6665952369955299, -0.066249217026918217)	1.0	z	0.627332
30	O	D	D	D	D	8	7	shapes	P	1	False	24	(2.4159673704133287, -7.4332791382337087)	(3.0119609067389703, -2.3386383513230973)	(-1.5814458272978698, 7.8685273179580442)	(7.7367051845769161, 1.4535159174153431)	1.0	z	1.29697
31	P	C	C	P	C	8	7	shapes	D	1	False	24	(5.5387875600062042, 8.7407414366379719)	(-8.1946197732242698, 7.3067227503075642)	(-1.6504543228443316, -7.0022572844458253)	(5.4123827387532426, -1.9527296297710759)	1.0	z	0.962527
32	P	D	P	O	P	4	0	shapes	P	1	True	24	(-8.2798004250686912, -8.1318417871106004)	(4.7510292947841695, 5.1858780301646163)	(-4.7574160298263291, 7.4483713324767571)	(0.60745568099390113, -6.3685003630528634)	1.0	z	0.644148
1	Q	F	Q	Q	Q	4	0	shapes	Q	2	True	24	(5.4388654908282561, -8.383294056722816)	(-5.0008008204888519, 2.5771928862553271)	(8.0097838162049122, 5.9569925495853049)	(-8.5285856245221705, -5.768512677429376)	1.0	z	0.675899
2	R	E	F	E	Q	4	0	shapes	R	2	False	24	(3.9416601037389896, -0.87414995435320453)	(-3.3173444068235209, 0.46295200725330332)	(8.4712292479980569, 3.9157358472152914)	(-7.8775473339742934, -6.0911591808312977)	1.0	z	1.56164
3	Q	F	Q	R	F	8	1	shapes	F	2	True	24	(5.8432891161353488, -0.69379345535842241)	(5.5658570921814334, 5.0647901033202096)	(-1.8160932921187882, 1.5423115992088121)	(-3.8075010236894347, 8.0737371304121304)	1.0	z	0.694819
4	R	E	F	R	F	8	1	shapes	E	2	False	24	(6.428158224968616, 1.8575879103588164)	(4.1846438221279563, 7.3065967265518701)	(-0.18693443295730106, -2.9860589283816719)	(4.1372119510470409, -6.6442234639818194)	1.0	slash	1.1287
5	Q	E	F	R	Q	4	0	shapes	Q	2	True	24	(7.8034187330617897, -4.1430584497276772)	(-8.6464403903785012, -4.206909500528047)	(-1.8903140432508518, 3.3284578286278155)	(8.2907184834727303, 4.9991199684881202)	1.0	z	0.912489
6	Q	F	Q	E	Q	8	2	shapes	Q	2	True	24	(-2.3682335813618103, 3.6997212841819422)	(5.9775420718822243, 6.1000179095797371)	(1.7230138138559585, -0.78094000248870987)	(5.8308514110280818, -4.8032896609037499)	1.0	slash	1.54391
7	Q	E	F	R	F	8	5	shapes	Q	2	False	24	(-8.4052632982839466, -2.3071091851427648)	(0.086065437384444721, 5.5447237165633556)	(-1.8108114547087002, -7.8100602652864577)	(-4.4794065668019538, 3.0386775391247749)	1.0	slash	0.935651
8	Q	F	F	E	Q	4	0	shapes	Q	2	True	24	(1.1593119025615835, 7.6564139979212698)	(-2.3494205917758801, 3.771481205693247)	(-7.0425920382318052, -7.3388628908520737)	(8.4281296427917134, -2.253542584634701)	1.0	z	2.22319
9	R	E	F	Q	Q	8	3	shapes	Q	2	True	24	(0.60543245978118065, 2.1952364139143103)	(-7.7317171651013084, -3.7977564144291316)	(1.041585963494688, -7.9759101059877615)	(-3.9649439285834793, 0.37399389122565907)	1.0	z	1.50281
10	R	E	E	F	R	8	0	shapes	R	2	True	24	(-0.91412149287545041, -1.2545681204313786)	(3.5086306739711457, -2.1103885716823942)	(-4.1542251179912046, 2.8092473586698912)	(-7.8952232861834171, -4.295011969556648)	1.0	slash	0.774564
11	Q	E	Q	E	E	4	3	shapes	E	2	True	24	(5.6783075314536475, -5.5672407604954746)	(-2.8868999571883638, -3.7043408191009704)	(-7.730804183482622, 2.6925651324932645)	(1.5936653185025165, 3.1480155590006422)	1.0	z	0.686026
12	R	F	F	F	R	8	6	shapes	E	2	False	24	(-0.60725987350820709, -6.7736947605314342)	(3.2906717043320448, -5.4127675152140853)	(-5.0607546087037747, 1.2233321305468099)	(7.2567447732629269, 2.9427686401460313)	1.0	z	0.633885
13	Q	E	E	Q	E	8	1	shapes	E	2	True	24	(1.6264973363265831, -0.35897844621677599)	(4.3423478513558855, -7.9757759626064537)	(-0.8056828244317682, -6.2027425925449773)	(5.6382177912875111, 1.7835357064134776)	1.0	z	0.751399
14	R	E	R	F	E	8	1	shapes	E	2	True	24	(2.6664958456872387, -3.5048933427805808)	(-1.7214163930559483, 4.3232350891153555)	(5.1571980808567481, 2.721717348247898)	(-3.1677033777063484, -4.5812190472683749)	1.0	slash	0.48724
15	Q	F	Q	Q	E	4	2	shapes	Q	2	False	24	(0.1725357575252815, -7.609583723143464)	(-5.1914159011999494, 3.1795682616339409)	(-0.38900874001619457, -1.2114403982303363)	(6.0669707145133742, 1.81149785021627)	1.0	slash	1.51282
16	R	E	Q	Q	Q	8	5	shapes	F	2	False	24	(-8.7205304687655492, 6.7346923116523243)	(7.3480529443825304, 6.2051906843606446)	(-6.6318683322121599, -5.3979416173532959)	(1.286344426036111, 7.9626980492851303)	1.0	slash	0.862423
17	R	F	E	R	E	8	7	shapes	F	2	False	24	(7.9853712499958895, -7.560194869754552)	(5.2823316028498919, -3.8821806513756627)	(-0.014482956751859177, -7.6425548051620478)	(-6.8261034240155034, -2.5229564483811062)	1.0	slash	1.05593
18	Q	F	E	E	E	8	4	shapes	Q	2	False	24	(4.0152457808245288, -0.66983655773853457)	(8.6689433154385966, 2.0702045648704157)	(-4.4459968719641028, -3.1646436445354063)	(-2.0278154208444104, 3.2814483012569191)	1.0	z	1.39371
19	Q	F	R	E	F	4	1	shapes	F	2	True	24	(-5.6072268040099758, -4.9862895520270643)	(8.3924409146500629, -6.8693027705263985)	(5.0211489311524229, 5.4182605663253689)	(-2.5175946545837382, 1.3080050960209277)	1.0	z	0.597225
20	Q	F	F	F	R	4	3	shapes	F	2	False	24	(3.9602969496843077, -3.5705082628077189)	(-2.6320435767243611, 1.6481512544873045)	(1.7393360568181837, 5.2894301330754772)	(-3.9909743629196894, -7.5312172447952541)	1.0	slash	0.657037
21	R	E	F	F	Q	4	2	shapes	F	2	False	24	(-6.2375095603623985, -3.1039790726003611)	(7.5366853129037708, 1.8871960315864271)	(-5.5483165944523432, 6.3312369120718071)	(4.4501233270893419, -7.5002274559439961)	1.0	slash	1.14467
22	R	E	E	E	F	8	5	shapes	F	2	True	24	(-1.2569785024795808, -2.7924285497274344)	(7.9798398000213879, 2.2110680237215963)	(-6.0684293247924606, -2.8093553923607955)	(5.4388784077174464, 7.7369477398692581)	1.0	z	1.37813
23	Q	E	R	R	Q	4	2	shapes	R	2	False	24	(8.5449523587705087, 2.5383707651991472)	(-0.18186889539068574, -0.81498425110384076)	(-8.4136310166301147, 4.6795879532547264)	(1.5503502742434172, -7.0610716241629143)	1.0	z	0.655958
24	Q	F	E	F	E	4	3	shapes	F	2	False	24	(-4.7873287625089755, -1.711776186418323)	(1.4911287569782044, -1.1988165088366554)	(4.9273998677745112, 2.9972237334191814)	(-4.9031635247952359, 5.5570495053764137)	1.0	slash	0.719478
25	Q	E	E	Q	E	8	3	shapes	Q	2	False	24	(-7.670977894102526, -5.4454431352390547)	(8.2407879680083624, -3.6135174581761316)	(-2.6314500200787725, -2.3314581198270297)	(1.0657927609251789, 0.21685968991666904)	1.0	slash	0.597212
26	Q	E	F	E	Q	4	3	shapes	E	2	False	24	(5.8659205715873561, 1.5595350824225349)	(7.3905422414067488, -5.4511562033020269)	(-5.1946545180466455, 7.6456408026151621)	(-8.4855870280194683, -1.3060261593755964)	1.0	slash	1.0408
27	Q	E	F	Q	E	4	3	shapes	Q	2	False	24	(6.4537501206192882, 4.804324884568274)	(-1.4542696180731118, 5.3867548535092169)	(1.1117053194247344, -3.1166724748816446)	(-1.2018434998781382, -7.344648483520146)	1.0	slash	0.978676
28	Q	F	F	E	F	4	2	shapes	F	2	True	24	(-1.8684312905580294, -1.3696474175599853)	(1.5218063505598689, 3.8684156174021584)	(-1.7226390527773816, 6.5717010926647763)	(3.3405884350952864, -3.5996789124571507)	1.0	z	0.975963
29	Q	E	R	R	E	8	6	shapes	Q	2	False	24	(0.3953131671389869, 2.6904388550078551)	(5.7409301114348938, -5.6502810026895567)	(-0.49878062847816551, -2.5901745388099791)	(-4.1400817329461885, -6.9203560020448238)	1.0	slash	0.657975
30	Q	E	E	E	E	4	3	shapes	E	2	True	24	(-4.2424826155104292, -7.8890615838951668)	(1.1020489192263003, -5.2559329241749975)	(1.9837570810278873, 7.5225934018198863)	(-0.43128459489454762, 2.6702478431986556)	1.0	z	1.94553
31	Q	F	E	R	R	4	3	shapes	R	2	True	24	(2.2297157507629279, -6.0856941005793743)	(2.5869093818701696, 5.3421607352020075)	(-3.6322120534497602, 5.1429492723559527)	(-5.9037087514124629, -1.4704706239954435)	1.0	z	1.48691
32	Q	E	Q	F	Q	8	0	shapes	Q	2	True	24	(2.1946111587364712, -4.4193538479169767)	(8.0327823463604879, 7.9080150759422807)	(-3.9438903172110056, 5.5816351621601843)	(6.1218721883848186, -6.9028724786972093)	1.0	slash	1.45047
1	N	A	N	N	N	8	2	shapes	N	3	True	24	(6.2930209333662859, -0.77715686026798991)	(-3.5029723043469767, 4.8576622220076615)	(-3.1201216325524737, -7.2248173559811821)	(3.6017883660092558, -8.5015727855503638)	1.0	slash	1.04625
2	N	B	M	N	B	4	1	shapes	B	3	True	24	(-8.2891350507214767, -4.7802393032436612)	(2.5833789556952773, -7.7313641082834863)	(5.681945547540403, 6.281301612589262)	(-5.6254401791230775, 1.9254371547674172)	1.0	z	0.567907
3	N	B	A	A	B	4	1	shapes	B	3	True	24	(-7.5636668832728748, 4.2634637116297132)	(-0.30818443174244159, -0.78249753012997303)	(3.0765239514770997, -6.4038315913339705)	(5.1785346033512631, 7.1660388852531796)	1.0	z	1.00751
4	M	A	N	M	M	4	1	shapes	A	3	False	24	(-7.9437396116972838, 5.7022177108990544)	(7.7738965077314859, 6.016809165504716)	(-8.7390812342299551, -7.7549126101955075)	(8.3921699613974035, -0.97506880981906896)	1.0	slash	0.761203
5	M	A	B	N	M	4	0	shapes	M	3	True	24	(-8.2056174706997158, -7.6516996044600951)	(-6.8844148789021613, 0.32592048265305351)	(5.5187299289229053, 1.5018954624509959)	(0.34886407311333301, -2.4254266029061604)	1.0	slash	1.3708
6	M	B	B	M	N	8	6	shapes	B	3	False	24	(-0.18545493147514236, 3.7548641556670184)	(-4.8845344336505221, 5.4786504043205735)	(3.6037261729241283, 8.2001238579876308)	(-2.5149076715578751, -6.6717294279358059)	1.0	slash	0.972452
7	N	A	N	M	M	8	3	shapes	M	3	True	24	(0.8251956854655571, 1.4743478965177701)	(5.7002899849820938, 0.79655243037452905)	(-0.67084971405915184, -3.8876974451708897)	(-4.4677849889221681, 7.9844528961929022)	1.0	slash	0.758187
8	M	B	N	N	A	4	3	shapes	N	3	False	24	(4.2017088543540897, 7.4078494473413663)	(-3.0423120490350124, 4.152999080448577)	(5.0974804056709999, -1.7737270290050127)	(-2.6185807949195441, -5.0401646425230791)	1.0	slash	0.807697
9	N	A	M	B	N	8	0	shapes	N	3	True	24	(3.8571225222246834, -1.0304457202028789)	(7.1912083114500369, 1.8167119949949928)	(-6.7788015999014348, 3.8785818484670536)	(2.6865644702796718, 7.3210187042898234)	1.0	slash	2.38744
10	N	A	B	B	M	8	4	shapes	A	3	False	24	(7.4206705647925233, 5.146438464394766)	(-5.7765496684418594, -4.4322024510264155)	(-5.1443339462178681, 1.6298455799186691)	(-1.1952063224030605, 6.3960892977180794)	1.0	slash	0.714982
11	N	B	N	B	N	4	2	shapes	N	3	True	24	(-1.5639097639768114, 2.9892597667954171)	(-1.8912949521058602, -7.8103595270403519)	(2.7228852040641449, 3.2474416854085799)	(8.740739843577515, -7.7412009627982687)	1.0	z	0.678557
12	N	B	A	A	B	8	2	shapes	A	3	False	24	(5.531316682300444, -0.94424989314043284)	(-1.247691320478717, 6.8509677977208838)	(-5.6621723394294436, -1.5174156826178677)	(5.5909466519568625, 3.1025328424582614)	1.0	z	0.73234
13	M	B	A	M	M	8	1	shapes	B	3	False	24	(-5.6758903447655094, 6.7048513877333153)	(1.2887082409498571, 1.0969083173513212)	(8.2408466341469477, -5.57611688594816)	(4.3868598899521913, 6.3554355111774647)	1.0	slash	0.533892
14	N	B	M	N	M	4	0	shapes	N	3	False	24	(-7.0548213421522803, -1.6503730025670826)	(-2.843043751754549, 5.8421287229770051)	(5.3182157625299951, 4.5096845492586031)	(4.7884715835853378, -5.4709061611259608)	1.0	slash	0.133541
15	M	B	B	B	M	8	4	shapes	N	3	False	24	(-2.7776434228817415, -3.5123970155629554)	(5.9280622413103607, -2.986672058384948)	(-4.7255677010954917, 3.800251575662827)	(2.3625115418164064, 3.7078386579433786)	1.0	z	1.59325
16	M	A	N	M	A	8	1	shapes	A	3	True	24	(-0.75823459677810057, -4.6168646722991555)	(-2.2177028055393739, 3.6748684390927888)	(-6.9792494381731291, 4.1563229697426927)	(4.4418141092048611, -1.5734238198547059)	1.0	slash	0.686783
17	N	B	A	M	B	4	1	shapes	B	3	True	24	(-5.3143782195594778, 4.6011742062158056)	(2.747048470083751, -0.034167517705107286)	(-7.6516478187836841, -0.59072109730825595)	(6.9065665476902414, 0.095378624281481805)	1.0	slash	0.886616
18	M	B	A	N	A	8	5	shapes	A	3	True	24	(7.6991778226705812, 8.6528158513620426)	(-4.6477074504716791, 4.4327199062227471)	(3.4435948460370369, 7.460523016482135)	(-8.2851168370408068, -0.92088876304861778)	1.0	z	1.13807
19	M	B	N	B	N	4	0	shapes	M	3	False	24	(8.2418421443858492, -6.6629185651176881)	(-7.1652864173906048, 0.46039403583698579)	(-0.058906481922686993, -1.5947756128696984)	(1.3389368817814233, 3.8716385531884789)	1.0	slash	0.799707
20	M	B	B	B	M	8	0	shapes	M	3	True	24	(-6.3866619227053114, 2.5508215442326136)	(-4.863839940396316, -2.678253472243151)	(8.0032662957182339, 4.5344448517521254)	(-5.16974486194853, 6.8484651751431169)	1.0	slash	1.19747
21	M	A	A	B	N	8	5	shapes	M	3	False	24	(-8.4059076410916767, -5.195164009334011)	(1.0659391134363698, 0.04643102954648981)	(6.1315377317335802, -6.6752403273088721)	(4.7059920376175004, 8.1665120285463217)	1.0	z	0.39518
22	M	A	N	B	A	4	0	shapes	M	3	False	24	(7.1328606451691599, 5.9143846814570029)	(-0.13624544195386967, -3.0111910583520221)	(-3.0512221079783446, 7.3676679834262089)	(4.36652205735788, -7.4556934096113761)	1.0	slash	0.57474
23	M	A	B	A	B	4	2	shapes	B	3	True	24	(5.682951086769652, -1.6737908426856043)	(3.1064889096443693, 6.1830908684674206)	(-5.2760772510173766, -0.23440761589398207)	(-8.7096854626059219, 3.3222546766221761)	1.0	slash	1.03842
24	M	A	N	B	N	8	3	shapes	B	3	False	24	(6.1841363556875919, -3.7740593456364939)	(8.3320042552553737, 1.5734498833837183)	(4.4856955612833378, 5.6996986079036898)	(-6.1903871786974891, -3.2959393969608195)	1.0	slash	0.899977
25	N	A	M	N	A	4	3	shapes	N	3	False	24	(-6.4137211974278427, -2.3239172587117345)	(1.2223037194972513, 8.4513394157883752)	(7.2271453047605814, -7.8920445111744444)	(-8.1187996659836141, 8.4418138762653996)	1.0	slash	0.561688
26	M	A	B	B	N	8	7	shapes	N	3	True	24	(-3.859622730456163, -6.6031227669968544)	(-1.3340377818486324, 0.17252347558841841)	(5.3392507711959638, -5.0825580972742621)	(-6.5560723576198843, 6.2080958380808617)	1.0	z	1.02141
27	N	A	B	M	B	4	3	shapes	M	3	False	24	(3.7074394668799684, -0.67904362879540336)	(-3.4602738442726722, 3.75054853185482)	(-8.6340373917164559, -6.9364888509742064)	(0.79711965137418339, 2.7371324193615241)	1.0	z	1.48305
28	N	B	N	A	B	4	1	shapes	B	3	True	24	(-1.5763696312158508, 3.7823311389793464)	(-3.8701873561207139, -1.9408235276079875)	(0.20686438064840118, 8.5253726240402834)	(5.9202473014367438, -5.5187646141572051)	1.0	z	1.07668
29	M	B	A	N	M	4	0	shapes	M	3	True	24	(3.8252066037935464, 3.0339844125995246)	(5.3830677665635669, -5.9568255608206062)	(-8.3911434893869412, -0.78199698890736524)	(-3.5655084539438739, 4.564011614088173)	1.0	z	1.17609
30	M	A	A	N	B	8	0	shapes	M	3	False	24	(5.8718813298761159, -8.2704099878261168)	(-5.1568512286160653, 8.4862124935138077)	(3.4252872906815437, 8.4700804832470595)	(-8.7438450242354655, -6.9331732188091548)	1.0	slash	1.93779
31	N	A	M	N	B	4	3	shapes	N	3	False	24	(1.0645719961619893, 6.1389113246960285)	(-1.6254537038689225, -3.8175187962191286)	(-3.2547578900449823, 7.7425736714355295)	(0.55693771601330866, -7.2847314641388561)	1.0	slash	2.62332
32	N	A	N	B	A	8	4	shapes	A	3	True	24	(-1.5926592389881442, -8.6552515486758494)	(-0.80051665524627769, -3.2264721079736587)	(-2.9477554831626724, 4.6541933651125795)	(6.2488549097383412, -0.32605052672990453)	1.0	z	1.34286
1	O	D	O	C	C	4	2	shapes	O	4	False	24	(6.6527388527315754, -7.732254914533601)	(-0.31295695507720822, -5.3346316317655535)	(-3.956075412902333, 3.6118113472670519)	(4.5376925654230149, 3.6760205348911601)	1.0	slash	1.72839
2	O	C	D	D	C	8	1	shapes	C	4	True	24	(-6.9061620565618291, -6.945190722422848)	(8.5697822162878907, -5.9120731257233388)	(2.9687787085703405, 8.56365869075562)	(0.73823152405992154, -0.13827337567369113)	1.0	z	1.3243
3	O	D	O	O	P	4	0	shapes	O	4	False	24	(-5.4914614711686784, -4.0987358410689314)	(0.56791614029322091, 6.1018331192684627)	(-4.4889581823601556, 7.122940492989196)	(2.9858652425792247, -5.6942378498831427)	1.0	slash	1.58985
4	P	C	P	P	D	8	7	shapes	D	4	True	24	(4.0669859574176659, 1.9097478062205848)	(6.9019591949736938, 4.9718847809329034)	(-4.6388055679230371, 6.0136456766129385)	(-3.9679527306745923, -6.7149731753431912)	1.0	z	1.45352
5	O	D	P	O	C	8	0	shapes	O	4	False	24	(-3.1502180811126959, 1.1738671163088714)	(6.5294789773770567, -4.3220883352548292)	(7.8605887692883911, -8.5829501758608959)	(-6.0578639670362406, 8.5987964162804538)	1.0	z	2.23913
6	O	C	P	D	P	4	3	shapes	D	4	False	24	(-6.5278019991429952, 7.5591569844290056)	(-0.96953689349558037, -5.2132753122768136)	(3.7950491069696106, -8.1267825778787071)	(7.5809865912071075, 0.51285257787156979)	1.0	slash	1.60844
7	O	C	C	C	O	4	2	shapes	C	4	False	24	(0.99573161877905036, 5.269342532596065)	(6.6319283736488277, -3.2154050801437535)	(-5.1165879881139187, -5.547313872802162)	(-8.0876662521896865, 8.1129645954841223)	1.0	slash	1.34399
8	O	D	P	P	C	8	7	shapes	P	4	False	24	(3.8714197579775966, -1.8148099191812888)	(-3.485916685473522, -7.0651280498806424)	(6.2373033816343888, 8.2824801473235752)	(-7.9473339724140244, -5.5994921655460503)	1.0	slash	1.7997
9	P	C	P	P	P	8	7	shapes	O	4	False	24	(-1.9405006892024215, -5.2299897703704792)	(-2.4613064742441662, 7.8644658405209853)	(0.8263300450882447, 3.0247006529417124)	(6.7980511283306058, 3.0961556595751087)	1.0	z	1.35541
10	P	D	D	C	D	8	1	shapes	D	4	True	24	(5.0064923906604406, -6.0088056048871357)	(4.456623279032625, 1.6210006120256928)	(-0.055248989455261466, 7.082809082384621)	(6.8271331201168231, 4.8882663795884458)	1.0	z	1.21687
11	O	C	P	O	P	4	3	shapes	O	4	False	24	(-2.3272680922979747, -6.0358408516815176)	(3.5496481529791648, -5.3251979040851154)	(-0.31154072098298258, 3.2240253396978602)	(5.0258727538804013, 3.4114306523352909)	1.0	z	1.27249
12	O	C	P	O	D	8	3	shapes	O	4	False	24	(3.685991782908939, 6.2888928215026176)	(2.9223275058015741, -6.3841182076645548)	(5.2309117306717514, 1.2109506188353762)	(-5.7049294738514877, 0.28441563837295902)	1.0	slash	1.24606
13	P	D	C	O	O	4	1	shapes	D	4	False	24	(2.0404714441913647, -3.5007903801129991)	(-6.8721956442207413, 2.828202913521757)	(6.8773247652397984, 2.4378608206142545)	(-3.5077500433309536, -0.700540934484426)	1.0	slash	1.20769
14	O	D	O	O	D	8	4	shapes	O	4	False	24	(5.8672613566650806, -3.0912934357969508)	(2.0557954212110641, 3.6371545827662093)	(0.24140992260730698, 7.7759470362047836)	(0.96677055914496357, -3.6146400857601586)	1.0	slash	1.31532
15	P	C	P	C	C	4	0	shapes	P	4	False	24	(-7.5471491156655848, 3.275044098306088)	(2.9891603001348983, 3.966412599741771)	(3.751842616103044, -6.3853219343876955)	(-6.424261167361216, -5.7366627638382299)	1.0	slash	1.37696
16	P	D	D	C	C	4	3	shapes	C	4	True	24	(5.0441694144934637, -4.5471608339425194)	(-2.0090242371093341, 0.78628845623688903)	(-7.9084194059164306, -2.0372629179461752)	(2.1128743276614532, 5.1378409353538057)	1.0	z	1.15852
17	P	C	P	P	D	8	6	shapes	P	4	False	24	(-1.0267177229091713, -4.3155609708526601)	(7.1272170842982838, -6.9240041126868981)	(-7.2294800895036548, -6.7984502420870099)	(1.671670552108619, 6.5486787546086571)	1.0	slash	1.36417
18	O	C	C	C	C	8	1	shapes	C	4	True	24	(-5.7647002724150651, 4.7148693031303122)	(0.28830005708568862, 7.0333952861433957)	(-0.70691077710384498, -0.94722712466864323)	(5.477896565159309, 3.0201875870721349)	1.0	z	1.14384
19	O	D	O	O	O	4	3	shapes	O	4	True	24	(-3.013566919223357, -8.189729536138401)	(7.4982292425078185, -8.444340177959921)	(-5.9927820026804044, 6.3549480629198882)	(0.97962778960340913, 7.0678776250008646)	1.0	z	1.46934
20	O	C	P	C	O	8	4	shapes	O	4	True	24	(-2.1877400579320128, -7.5982544570785064)	(-7.1543631988187339, 7.1782431028835791)	(4.3095906543803331, 3.8052646924697111)	(-0.10729921335620674, -2.3014098454101415)	1.0	slash	1.61107
21	P	C	D	C	D	8	2	shapes	D	4	True	24	(5.178270130171656, 7.509425594493365)	(-2.8067095835570832, -0.54686545927550512)	(5.7999714644803593, -0.18018865316873978)	(-3.7960838824689693, -5.7573765189949295)	1.0	z	1.26999
22	O	D	O	P	O	4	0	shapes	O	4	True	24	(-0.32258990772415252, -0.062373747102604682)	(3.6775216686244558, -4.1039480433676809)	(4.9319085306660551, 7.7189275225305103)	(-7.7321952174589974, 3.7959143529636332)	1.0	z	1.38424
23	O	C	D	D	P	4	0	shapes	O	4	False	24	(-7.4542512522427762, -1.1658802771508538)	(6.0331940637804546, 2.3594462909759937)	(-3.386805774889706, 4.8838527162223624)	(6.422593562902529, -6.0376327480363106)	1.0	slash	3.77372
24	P	C	D	P	P	4	3	shapes	P	4	True	24	(8.2115009986520739, -3.1107892423836505)	(3.3666957933370441, 0.81239562638010554)	(-4.5322375491209828, -4.8769817175740684)	(-1.6776415407026555, 5.995208141834345)	1.0	z	1.17332
25	P	C	O	O	P	8	4	shapes	P	4	True	24	(6.5575774624657175, -6.499582195094554)	(-5.6329232528715227, -8.042398759419461)	(6.8804228046947227, 7.4041883722562538)	(-6.4346227750678171, 1.0598155373061946)	1.0	slash	1.30101
26	P	C	C	O	C	8	1	shapes	C	4	True	24	(-2.8704506357136195, -5.1940979451683411)	(2.8372767135654442, -5.9108460913496854)	(4.972058642072966, 0.59967213407792386)	(-3.1411478059207614, 4.8677075503395617)	1.0	z	1.07045
27	O	D	D	O	O	8	5	shapes	C	4	False	24	(-3.4697042282468562, 3.641143304912962)	(1.2598354139444492, -1.3494190846084457)	(-2.80847106059068, -0.61287095780102874)	(-5.0634954907396876, 7.467873921094867)	1.0	slash	1.07821
28	O	D	O	D	D	4	1	shapes	D	4	True	24	(2.8518855105499856, -0.02052963097920113)	(4.2732656851862512, 7.8390076230853971)	(-2.5733713894456685, 5.4155641529694254)	(-7.1130903138235819, -2.6669568967329127)	1.0	z	1.11978
29	P	C	O	C	C	4	3	shapes	C	4	True	24	(3.8147381550026918, -2.3684604341876581)	(-7.6236453765046743, -3.7527418692844599)	(-4.8193635490491449, 3.6944389033838441)	(1.8376596159233944, 6.5908449438327921)	1.0	slash	1.3853
30	O	C	D	O	D	4	2	shapes	D	4	True	24	(-0.79765808151711681, 8.1470180965814905)	(7.7553082417648582, 6.3336241135919931)	(-4.8257910580161427, -3.9797348105290062)	(0.4799852525058359, -6.8336020071093824)	1.0	z	1.03107
31	O	D	C	P	D	8	3	shapes	P	4	False	24	(3.3882496533769935, -3.1255650286916117)	(-4.8944875802522603, 5.4411956220718238)	(-7.5023203732170085, -0.14553820915993576)	(-1.3899350705933555, 0.83859048719976492)	1.0	slash	1.3887
32	O	D	D	P	O	4	0	shapes	O	4	True	24	(1.4374966518800729, -7.723035775770172)	(-6.9741807942938987, 2.7608873332334731)	(7.8847324416609759, 3.2204663348380826)	(-3.3120693562196672, -0.042771979799082871)	1.0	z	1.24829
1	Q	E	R	Q	Q	4	3	shapes	Q	5	True	24	(2.3444161428056027, -1.6310908512736209)	(1.2489046599317959, 2.3634001455692264)	(-5.2655848342756322, -7.2079521120153602)	(-7.984539784995623, 3.0348976999407462)	1.0	z	1.21385
2	R	E	F	E	F	8	6	shapes	R	5	False	24	(6.0784849731178099, 2.6170451673167978)	(-4.0105903737537387, 0.29261269918793076)	(0.18056716406861817, 5.9925014332148194)	(-8.5500550818175451, -8.1747332728672042)	1.0	z	1.26943
3	R	E	R	E	E	4	0	shapes	R	5	False	24	(2.0388415896950036, -3.7288219414711774)	(6.2211415878096776, 6.5238204931684365)	(-5.2729785637534565, 6.6526180308583243)	(-4.3288916205160559, -1.2462986912319813)	1.0	z	1.30506
4	R	F	Q	R	R	8	3	shapes	R	5	True	24	(8.10304425247217, -1.4137143941505252)	(2.3773372614821984, 3.2018044604091322)	(3.3555993664823109, -8.3335171477100527)	(-8.1527555127999456, 1.4349871654876711)	1.0	z	2.85669
5	Q	E	F	R	E	8	7	shapes	E	5	True	24	(-0.039211578150196047, -7.3229392545710583)	(3.5904303791414911, 7.2759205950651769)	(3.1687910430849353, -0.97864547976945548)	(-7.4614073694754612, -7.7190254598797434)	1.0	z	1.33822
6	Q	E	Q	F	F	4	0	shapes	Q	5	False	24	(5.8921476683866238, -4.9340497962038246)	(-2.6520622969365277, -1.7032984814140644)	(2.7343329820855011, 4.5341768519398702)	(-8.699713665419015, 6.918914588617314)	1.0	slash	1.0717
7	R	F	E	E	R	4	0	shapes	R	5	True	24	(1.4142531622186407, -6.3330549417747406)	(-3.6961407072210113, 5.8189911637575804)	(6.1234165422073321, 6.5143939606915655)	(-8.3057398070298163, -1.540972325309772)	1.0	slash	1.65951
8	Q	F	Q	R	F	4	0	shapes	Q	5	False	24	(-8.7235321045027252, 0.05432447447911315)	(1.7800347187620229, 1.6541276789370194)	(8.2188128470789685, -0.41979917862473393)	(-1.367700411239265, -7.9038297228323966)	1.0	z	1.12915
9	Q	F	F	E	F	4	2	shapes	F	5	True	24	(8.0932933919054122, 2.3284072254050194)	(-2.4426676095957696, 8.3500662030548867)	(-0.32018310452361654, -6.0993629782344687)	(3.9494752646452653, -4.6044240145707933)	1.0	z	1.31237
10	R	F	R	R	R	4	3	shapes	R	5	True	24	(-3.3164095328156948, 4.7133475084746745)	(5.0506555069641905, 7.3584273049982478)	(-7.9589332917346374, -1.6323233282114895)	(6.2321700735851646, -3.9350838347090127)	1.0	z	1.00435
11	Q	E	Q	F	Q	8	6	shapes	Q	5	True	24	(-8.3496253043374455, 3.3503615459102765)	(6.9838550580169905, 1.6992987948983984)	(-2.2170955521736317, -0.50981206689407621)	(6.6992977812311754, -5.5962046082335375)	1.0	z	0.949821
12	R	E	Q	F	E	8	7	shapes	Q	5	False	24	(-8.706216357093826, 6.5388788005699734)	(2.3379928784158643, 7.0041164588403326)	(-0.88840365662744958, -1.4879779102842798)	(4.9611293038995239, -4.2136120461404492)	1.0	slash	1.38162
13	Q	E	R	E	E	8	0	shapes	Q	5	False	24	(-6.1697896215847514, 0.42507089394014486)	(2.5406155663891568, -1.9154886713186681)	(4.8510704256099046, 5.2833983730191978)	(7.7914172852701533, -5.2323085056406988)	1.0	slash	1.21519
14	R	F	F	R	F	4	3	shapes	R	5	False	24	(3.004733968835918, -4.3901079449983165)	(-5.9175224487102147, 2.6593557006750626)	(-8.3317586446848448, -4.4406883129886552)	(6.1616632844259858, 7.6719825600914682)	1.0	slash	4.99873
15	Q	E	Q	F	F	8	2	shapes	Q	5	False	24	(8.5411361515287716, -0.96632905132155766)	(7.8561673694856147, 5.6317921675848996)	(1.7476234672253383, -5.4616627702792266)	(-8.4407443377946425, 8.1096336234974409)	1.0	slash	1.75624
16	Q	E	Q	R	E	8	7	shapes	E	5	True	24	(-3.2030959795907767, 8.5665317086100181)	(-7.9728345675202847, 0.78318174259060847)	(-3.4602606475970186, -0.074430303521761942)	(3.7483739001324086, 6.0101141757847021)	1.0	z	1.18558
17	R	E	R	F	F	4	1	shapes	E	5	False	24	(-6.1177072512787412, 0.067011491461995476)	(0.25372122309830303, -8.5178740559488837)	(3.801217833928435, 2.4596224788637588)	(-5.4378438942587648, -4.2836189965591611)	1.0	z	0.567245
18	Q	F	E	R	F	8	4	shapes	F	5	True	24	(-5.5198179604492932, -5.2373889738170405)	(-8.3938698188337266, 0.99130611847764172)	(6.0125277574576863, -4.2884694272226369)	(-4.2398499058753512, 1.513034010765212)	1.0	z	0.561288
19	Q	E	F	R	R	8	7	shapes	R	5	True	24	(-3.9345139621711427, -1.1116696314400727)	(7.5010090420005326, -6.9755144206631101)	(-6.874861302390725, 3.6009198831673448)	(4.3416976254686261, 2.0546745085975449)	1.0	z	0.828863
20	R	E	Q	E	R	4	2	shapes	Q	5	False	24	(-3.809819078062449, 7.1073917623915861)	(4.5670124182610365, 3.0726972201865017)	(4.2661759768901444, -4.5472756742966167)	(-0.38443868355391331, -3.6660671224952317)	1.0	z	0.720308
21	Q	E	E	Q	E	8	7	shapes	Q	5	False	24	(3.4893615641310234, -8.182113120809003)	(-7.6478934769146942, -4.2973451600458423)	(-6.7559208351874096, 4.5620811051785886)	(3.9244586397321868, 4.3796935493621287)	1.0	slash	1.26191
22	R	E	Q	R	Q	8	0	shapes	R	5	False	24	(-7.7100076646448592, -8.6334876469239408)	(-7.1194664190525456, 5.656112674269659)	(3.6978767603132816, -5.5247556450162696)	(-4.7043798051881822, -3.2018342272167137)	1.0	z	0.597767
23	Q	F	F	R	R	4	3	shapes	R	5	True	24	(-1.4971126740242653, -5.0969687383971927)	(-0.85084062994125809, 8.0784747938141592)	(4.9766986508800954, -0.53059667095403107)	(3.9401664998687398, 3.5936099642388672)	1.0	slash	1.84915
24	R	E	R	F	E	4	1	shapes	E	5	True	24	(0.95452377370585317, 4.5474928022158476)	(-3.0969789505237051, -6.3741833156470626)	(8.5746436050640256, -8.6560209659031333)	(-4.4840431610013338, 3.005830326750548)	1.0	z	0.504994
25	R	F	R	F	F	4	1	shapes	F	5	True	24	(5.1646375254683328, 6.7622094105549699)	(4.0872017634435664, -5.7870243571312914)	(-2.1022509304749706, -6.6464233204522971)	(-1.1758949656763518, 6.9569642647888195)	1.0	z	0.590627
26	Q	E	R	F	E	8	1	shapes	E	5	True	24	(5.9529398968073579, -5.2365397903446045)	(-0.096408477231213041, -7.3183904237773048)	(3.5356792728009747, 2.2572288143220742)	(-1.2759408919620236, -3.2539648458791568)	1.0	z	0.510211
27	Q	F	F	E	Q	4	0	shapes	Q	5	True	24	(8.1589511611127108, -0.93860216325462265)	(-5.9853566985880491, 1.041371739879061)	(-0.36398281136338184, -6.9329218441280229)	(1.4286989184243151, 4.5029651104493436)	1.0	z	1.22591
28	R	F	F	F	E	8	6	shapes	E	5	True	24	(-3.96559280670236, -0.50088946215410246)	(8.5400412951720597, -2.9173717803565253)	(5.2468583544106675, -7.6869599102701667)	(3.4851298691787846, 6.1999255601560996)	1.0	z	0.617381
29	Q	F	E	Q	Q	4	1	shapes	F	5	False	24	(-3.3918428327511814, -0.38187632738426025)	(2.6086726675675624, 3.1766111845454539)	(-6.3291393717384175, 7.7738294134631438)	(8.2051608201141306, -4.1126232574100916)	1.0	slash	1.48917
30	R	F	R	R	F	4	2	shapes	R	5	False	24	(2.2780164281507957, -2.0643494040149717)	(-6.3079567104109957, 7.7740981030594689)	(-8.419699825909932, -1.336793980618622)	(2.7500496661758813, 7.2970250099295662)	1.0	slash	1.1768
31	R	E	F	F	Q	8	5	shapes	R	5	False	24	(-6.6263482035298384, -2.7368040633421638)	(8.0979108581120336, -8.5034884424478463)	(-8.675257951378871, -6.8689785220947659)	(-7.6116759446437037, 8.0558055426945607)	1.0	z	1.18643
32	R	E	E	F	F	8	0	shapes	R	5	False	24	(2.9934171930485398, 3.5291966887331121)	(7.7649125379477795, -6.6873545856046537)	(1.2322633456780867, 7.290273403386518)	(2.9126242141279874, -0.76503919456620118)	1.0	slash	1.17014
1	M	B	A	N	M	8	3	shapes	N	6	False	24	(-6.7950995795208806, 6.5470556009647645)	(-2.2821388971477248, -5.2023997046543586)	(6.6588872479277263, -5.785345786931626)	(3.1356911372930316, 5.5610379529036482)	1.0	slash	0.735785
2	N	B	N	A	A	8	1	shapes	B	6	False	24	(-5.2656430835793371, 5.6951763547832357)	(5.2372370972542548, 7.1193153997125851)	(-0.44040134503340589, -5.2787034474144896)	(-7.0374474946627288, -4.7994845656935041)	1.0	slash	1.78525
3	M	A	B	B	M	4	0	shapes	M	6	True	24	(2.7570894714128862, -0.12574693379972146)	(-2.5909114684785601, 7.7725307739331733)	(-5.8623501781210017, -2.3862940997161006)	(5.4300292972699413, 6.7561451904319298)	1.0	z	1.80694
4	M	A	A	N	N	4	3	shapes	N	6	True	24	(-6.6400464790083991, -7.8764417391007511)	(-4.3089227058777215, 5.7692836824476359)	(5.0896622846863835, -7.6496085804661638)	(3.4318165920663386, 7.7083736730139769)	1.0	z	0.646407
5	N	A	B	B	A	8	7	shapes	A	6	True	24	(0.74109060573690932, 7.1919865758721997)	(8.0196951294717209, -1.9689390288713424)	(5.2698361843932258, 3.0484382447149496)	(-1.9725194337194774, -0.95840441291517475)	1.0	z	0.704128
6	M	B	B	M	N	8	2	shapes	B	6	False	24	(8.2639587367190757, -8.0840077753185913)	(0.99082351361653132, -4.3263377723594481)	(0.70258408825330676, 0.47811281333356881)	(-8.1122110249940675, -5.9447862939349054)	1.0	slash	1.03783
7	N	A	M	A	B	4	1	shapes	A	6	False	24	(-6.7735334870773301, -8.5776781597774168)	(0.0059361509510367227, -6.9462884609441993)	(1.2380825633451806, 8.1705739589607447)	(-7.5012410693956273, 4.0773458431447924)	1.0	z	1.31142
8	M	A	B	B	B	8	5	shapes	M	6	False	24	(7.1218585135589496, 2.6871857151606022)	(4.2351497502095352, -7.3654681160381275)	(-1.8122403363070063, -5.2328182018959577)	(-1.8476233077112898, 8.3721536907292169)	1.0	slash	1.30078
9	M	B	N	N	N	4	2	shapes	N	6	True	24	(2.2183453445666625, 1.6941698659822375)	(-8.0562537735120188, -3.3645439513763034)	(-1.8095809672531509, 2.7207959516050586)	(3.4465667678825973, -2.1653073260484472)	1.0	slash	1.05073
10	N	A	A	N	N	4	0	shapes	N	6	True	24	(2.1098700354314168, 2.10045129825623)	(6.1629170689459283, -3.0002607604620755)	(-1.2806740005500954, 4.4135596811436475)	(-6.3308848002998026, -7.7332539009914019)	1.0	slash	0.9063
11	N	B	B	N	N	4	1	shapes	B	6	False	24	(-5.6663164782373272, 0.28559715088219484)	(7.4582013430545047, -2.5224162281667324)	(0.69275482091848772, 8.2060001094883184)	(-6.4881020797702442, -6.2804963193515757)	1.0	slash	0.863864
12	M	A	M	M	N	8	7	shapes	N	6	True	24	(-2.8203752226084511, 4.0006680986833913)	(-2.0042719535539115, -3.4614991568111462)	(7.5074769075505259, -5.2214392261335494)	(-0.25927238038332412, -7.6215574839851996)	1.0	z	1.31166
13	N	A	N	M	M	4	3	shapes	M	6	True	24	(0.22922716691052614, 6.1515754125839077)	(3.1309010310645924, -3.3229628581570525)	(-8.6266522539820034, -4.3564365861045129)	(-5.5479656663261547, 1.9404333665234343)	1.0	slash	1.13929
14	M	A	N	A	B	4	2	shapes	N	6	False	24	(1.1159770727850571, 5.1136397028180678)	(-2.5383967869394448, 0.034121956530549724)	(8.5064980650609066, -6.5219405199167255)	(-6.0229761259254477, -2.5566704715807838)	1.0	z	0.984999
15	N	B	A	M	A	8	2	shapes	A	6	True	24	(6.8367148188531424, -0.066684216858677203)	(1.0861061692563041, 5.9511691582890887)	(-8.5024655332912342, 7.4128147551156083)	(3.3405595358861966, -4.1683060737038797)	1.0	slash	1.16053
16	N	A	B	B	N	4	0	shapes	N	6	True	24	(6.2873908316296774, -4.741675648782044)	(6.211854524439687, 8.3755899142365706)	(-7.360186894519904, -3.7727691811654172)	(-0.92704991254943181, 5.9273406738956922)	1.0	slash	0.794144
17	M	B	M	N	M	4	0	shapes	M	6	True	24	(-6.7935215989778825, -6.64749210285943)	(-7.0335816917710794, 2.6345961886164098)	(2.2850489049852438, -4.1227115030999153)	(5.7201026119859666, 1.3368058254699697)	1.0	z	0.781747
18	M	A	N	B	A	8	1	shapes	A	6	True	24	(6.3796697435330003, 1.0449159089054447)	(-0.6538182719780874, -7.594188141431979)	(7.8938389401792364, 8.3987845606266767)	(-3.8820541841907632, 1.3378761299955411)	1.0	z	0.957448
19	M	B	N	B	B	8	3	shapes	B	6	True	24	(7.6120106666765821, 4.1426826618368917)	(-0.1338017001978038, -3.6629482171007135)	(-2.989772340173281, -6.9024648404371556)	(-3.5776739214552631, 1.7373784164965311)	1.0	z	1.50653
20	N	B	M	N	B	8	7	shapes	B	6	True	24	(2.0826089450360001, 7.9899065384245205)	(2.7396507969092436, -0.05185613935950073)	(8.4611141289159555, 6.8667145969897962)	(1.118431477301904, -6.9491856016734381)	1.0	z	1.96252
21	N	A	B	N	M	4	0	shapes	N	6	False	24	(-3.6005529212128113, 6.6459657746232335)	(8.0170517539688646, -7.6720693668761379)	(-4.0740486904856681, -7.1604863229793487)	(0.37395654976064208, 4.7852900055532146)	1.0	slash	5.42802
22	N	A	B	N	B	4	1	shapes	A	6	False	24	(7.0347008992455322, -7.7086511935540587)	(7.2461839285837382, 6.8622955416138378)	(-0.10536225104175401, 2.6623015871878799)	(-5.2735405760403058, -4.4628928718005358)	1.0	slash	0.919597
23	M	B	A	M	A	8	6	shapes	M	6	False	24	(-6.9632556371416872, -0.31900167405821378)	(-2.7366759841105841, 5.9043480575040359)	(-1.8173200683577351, -4.1971956961779355)	(6.5855215078283944, -4.613422184009516)	1.0	slash	0.701267
24	N	B	N	B	B	4	0	shapes	N	6	False	24	(-0.55759535977581898, -5.8173745939322927)	(6.7051319737975046, 6.9151239560355471)	(-2.0154588559805511, 5.5511906826684623)	(3.535948830216487, -0.047542251298164473)	1.0	slash	0.986533
25	M	A	M	B	A	4	3	shapes	B	6	False	24	(6.30305056195939, 6.2206494987840415)	(-6.5990852414879013, -1.6320557086243612)	(-5.954113883348958, 5.5970668380673398)	(4.4992152540716717, -6.5662812609460044)	1.0	slash	1.20057
26	N	A	N	A	N	8	0	shapes	N	6	True	24	(-7.0917516199790489, -7.9286799616840042)	(-0.78808377460428325, 4.7950616732796956)	(7.3970112793193898, 1.9834350502133145)	(-3.8086832988751187, -1.7762896061893638)	1.0	slash	2.04611
27	M	A	M	N	N	8	2	shapes	M	6	False	24	(-3.0843555896822448, 2.2710836406208248)	(-3.1392518407377628, -5.5910459584673511)	(-8.0950609105867706, 5.2672880001522433)	(7.4264835192058598, 7.613509326573034)	1.0	slash	1.64162
28	N	B	M	N	M	4	2	shapes	M	6	True	24	(3.9819458861690613, -4.9272430950299846)	(2.6718882871245171, 1.8489517987589625)	(-5.1208056762449274, -7.8393319136259612)	(-5.209793561514469, 8.4372523475174432)	1.0	z	0.835182
29	N	A	N	M	A	8	6	shapes	A	6	True	24	(2.1762780752034487, 0.59564598156294579)	(5.6959438255525061, -5.9460483735861267)	(-4.8435175246187052, -6.7806325463892669)	(0.079384030776948222, 7.5051614733867282)	1.0	z	1.12096
30	N	A	N	B	M	8	3	shapes	B	6	False	24	(-8.3245078559064485, 3.2716380964947298)	(5.4472178847553572, -1.7809595936120122)	(7.5794751176642237, 7.7798218058903963)	(0.30029765132830732, 1.561508737113865)	1.0	slash	1.1405
31	N	B	N	A	M	8	1	shapes	B	6	False	24	(3.8285568321910901, -8.0090864805180058)	(-3.4539557332190673, 0.77110093184712625)	(8.3787248217202048, -5.2824663833289671)	(-8.5675270757267175, -6.8620421318223919)	1.0	slash	1.19616
32	N	A	M	A	A	4	2	shapes	M	6	False	24	(0.85915697500872668, 7.3850921430579888)	(-3.8220337117644636, 4.2604747628198183)	(-3.9033720819506028, -2.8985480162365445)	(4.563938159389604, -0.52642193971349016)	1.0	slash	1.13579
1	P	C	D	C	C	4	1	shapes	C	7	True	24	(-5.2121002482314704, 1.1937856888994514)	(-2.3031191508041662, -2.7153140761933026)	(4.2602694772307395, -4.9925684691100667)	(7.1452302498995941, 1.789147719541111)	1.0	z	1.00535
2	P	D	P	C	D	8	1	shapes	D	7	True	24	(-7.629393810257378, -6.6101640350600519)	(0.6530863702735541, 3.0235177415332473)	(8.3309681699801672, 7.8652132031310948)	(-4.2832510053070649, -3.491280082768152)	1.0	slash	1.45497
3	O	C	C	C	C	4	1	shapes	C	7	True	24	(6.3317057035043529, -2.2074231890612372)	(-7.8109695437149291, 2.7725810951968555)	(0.91569185921837537, 4.6901571447972454)	(-3.749678112726194, -4.5602773200032738)	1.0	z	0.838708
4	O	C	O	C	P	8	5	shapes	O	7	False	24	(7.7471942381339787, -3.2050715629432176)	(-7.829574932247187, 5.6639850059876267)	(-7.4628506455894286, -3.0272958693092207)	(-2.9833829534165419, -6.5394768520656559)	1.0	slash	1.09225
5	O	C	P	P	O	8	5	shapes	O	7	True	24	(-8.1680657672261354, -7.841917885085226)	(-8.4716561350525836, 3.0212556812602624)	(2.6561431952044927, 8.2129249256329011)	(5.0641928917622216, -8.28662805843698)	1.0	slash	1.5579
6	O	C	O	P	O	4	0	shapes	O	7	True	24	(-5.1428880753976358, -7.8132479009980296)	(-3.8065383972659497, 7.6361210970472477)	(5.4083652757918976, 4.9915272004498679)	(5.0197805039361469, -5.5685009690563598)	1.0	z	1.54311
7	P	C	D	C	O	4	1	shapes	C	7	False	24	(-7.486553748234364, -7.9244736485672087)	(5.4541007795302541, -0.68378401379256459)	(7.807262350279359, 4.125777244620954)	(-7.295304293029977, 1.6553803909309988)	1.0	slash	0.925166
8	P	C	D	O	C	8	6	shapes	C	7	True	24	(7.51034164192885, -6.8665718537857625)	(0.50551177164108552, 0.78081374588630759)	(-6.5214358267182888, -0.647765569945701)	(4.8489334019043149, 3.2892211164516105)	1.0	z	0.984705
9	P	C	O	O	C	8	6	shapes	P	7	False	24	(3.5651519979448985, 5.9551519295361537)	(-3.1587005551074006, 0.87432530529039099)	(5.0638117539727983, -8.5998507874793724)	(0.61393849650291976, -6.6523878975735613)	1.0	slash	1.21649
10	P	D	D	O	C	8	0	shapes	P	7	False	24	(-0.67214192122677119, -7.3201018462691207)	(7.7484803365977584, 2.9828400674262774)	(8.2536019450679738, -3.2173006881985131)	(0.48285225874920101, -3.4004313156759638)	1.0	slash	1.35197
11	P	D	C	P	P	4	3	shapes	P	7	True	24	(5.7772284312939863, 4.3326756812993388)	(6.9585408365958603, -7.5671891348256226)	(-6.3014778616245213, -6.8667749710581365)	(-4.4880627234805051, 0.27442557481317742)	1.0	z	0.875654
12	P	D	C	C	C	8	4	shapes	P	7	False	24	(2.6032681149458288, 7.7673703325658252)	(-0.03722598057731652, 4.1307605945491854)	(4.5064892076163545, 1.3906455916507525)	(-3.9659944394747946, -4.0889467629225358)	1.0	slash	1.43315
13	O	D	C	D	C	4	0	shapes	O	7	False	24	(-2.2173175700696213, 2.7915982348496602)	(-1.6614656544561202, -2.4925808992747216)	(4.8898838927498254, -2.781477371913514)	(6.7328016353616142, 6.3150692282464824)	1.0	slash	1.23676
14	O	D	D	O	D	8	2	shapes	D	7	True	24	(1.1496417204592078, -8.6916678169301989)	(-2.4514291508070318, -4.0208961028799806)	(-4.2369992553829778, 5.9165023406406299)	(-7.039979626357586, -7.5277776766934803)	1.0	z	1.95458
15	O	C	P	C	C	4	1	shapes	C	7	True	24	(-0.17628422062097471, 2.7892290527288885)	(3.2876036163987319, 0.29471852795977149)	(-1.1740943051395991, -4.0435781393278978)	(7.8769065123479258, -1.1868972052775817)	1.0	z	0.958092
16	O	C	D	C	O	4	3	shapes	C	7	False	24	(3.8578899137023406, 4.3930432039132707)	(7.4295984004257249, -1.7133973232233499)	(-3.2570288096933009, 8.7040967998200358)	(-1.7570292761414477, -1.1662966997034312)	1.0	slash	1.37567
17	O	D	C	P	O	8	0	shapes	O	7	True	24	(7.7717779841235739, -8.167846497559383)	(3.1392612150052202, 0.37081760044307721)	(7.379030448474257, 7.1525338692983418)	(-2.1111211985385792, 7.690206827534265)	1.0	z	1.24922
18	O	D	D	C	D	8	5	shapes	C	7	False	24	(6.7957868434492372, 0.36082297211408765)	(-1.742133802048671, 2.9541683019469485)	(-5.6494996163690692, -2.7036908012404668)	(-0.66282978119241243, -4.6550689047994416)	1.0	z	0.602843
19	O	D	O	D	P	8	7	shapes	C	7	False	24	(-6.4461134124577093, -2.7064907436975716)	(3.305331184829047, 6.0899570670982026)	(4.9087261569918876, -6.2693649623948922)	(7.8076103367021119, 2.9984321102556262)	1.0	slash	1.09463
20	P	C	P	D	C	4	0	shapes	P	7	False	24	(2.1646683950094463, -0.18774632182612194)	(8.7058077955222437, 2.8664491518366795)	(-5.0856460483899992, -8.0538274766614588)	(-5.7664376848915397, 1.9977477231909599)	1.0	slash	1.12614
21	P	D	P	D	O	8	2	shapes	P	7	False	24	(-8.4173891626477388, 6.1783320849421379)	(4.3377232368665748, -5.6986784211611825)	(1.5992313263387441, -2.2707931983556886)	(5.6059387025881531, 0.37359432408462823)	1.0	z	0.905982
22	O	C	O	P	O	4	3	shapes	P	7	False	24	(-4.8015884876571331, -0.73464540673166567)	(6.0918098969502434, -3.9619603389969908)	(8.0376765321460404, 6.9149010484262039)	(-7.1602232917452113, 3.841220454674394)	1.0	z	0.551445
23	P	D	C	P	D	8	6	shapes	D	7	True	24	(-2.2717653827519939, -7.8243789391239771)	(-6.3170924093274943, 1.331649969499777)	(1.1491615101622443, -5.6509425486985849)	(1.8362592794065371, 1.6383390641331594)	1.0	z	0.924962
24	O	D	O	C	C	4	2	shapes	O	7	False	24	(6.2643278983590402, -0.29421469532288036)	(-4.8797189930726956, 8.6582797913521148)	(-3.0733441451598358, -8.1615231535052324)	(2.5225276197553796, 5.1145513479375246)	1.0	slash	1.07077
25	O	D	O	P	C	4	0	shapes	O	7	False	24	(6.7887019207952317, 8.0365996372662494)	(-1.8389644831628118, -6.0118948664294622)	(3.3947230930963705, -3.6893997085434398)	(-7.0330710644109278, 3.3945923655686769)	1.0	slash	1.1619
26	O	C	O	O	D	4	0	shapes	O	7	False	24	(4.438236971436794, 4.1870371050065209)	(0.24625290763621877, -8.554549263665681)	(-1.7737577849818011, 0.4951417804206244)	(-6.8382828008969678, -2.1142981514885655)	1.0	slash	0.507994
27	P	C	P	D	C	8	4	shapes	C	7	True	24	(-7.2158011299118918, -0.42135162429925721)	(-4.8743704952189635, -7.3887995044285173)	(6.4948979692305553, 5.444236458486607)	(2.3081961686683936, 2.2021494040670913)	1.0	z	1.09975
28	O	C	D	D	D	8	7	shapes	D	7	True	24	(-6.3911705786965625, -1.243210827120155)	(-2.5089218861334972, -4.1076269701824959)	(6.1251222653886188, 6.9736334726028719)	(4.4703834473579338, 1.9683605947989289)	1.0	z	0.50724
29	O	D	C	P	O	4	0	shapes	O	7	True	24	(8.0635403347618926, -3.438662993646016)	(-1.9565024145611867, -1.79181568857953)	(-7.5540359647438313, 8.2372401733465033)	(2.6497759113210471, 6.9199456895579345)	1.0	z	1.39911
30	O	D	P	P	P	4	2	shapes	P	7	True	24	(3.3597740447847606, 5.3132296686722711)	(-7.1735739854162901, -4.9090359120176643)	(8.2798649737872978, -5.5361384945967629)	(-1.3153820322700458, 4.4487936004028512)	1.0	z	0.512588
31	P	D	C	C	D	4	1	shapes	D	7	True	24	(5.6359932952447149, -2.6119435016492449)	(-1.6740757514676083, 6.2928969245847792)	(-2.2310314855056648, -6.3299422934186573)	(6.4458706532512622, 2.0271479296768806)	1.0	z	1.11645
32	O	C	C	P	P	8	0	shapes	O	7	False	24	(-4.4527912306929753, -6.5493841627704823)	(5.5869859940730624, 2.9063861545091978)	(2.3918711858896167, -4.0539814755938366)	(6.3012324260218442, 8.4228741547110282)	1.0	z	0.713387
1	R	E	E	F	E	4	0	shapes	R	8	False	24	(8.5626715361124397, 4.4754357738269857)	(6.0558801794950572, -5.0620203270051931)	(-5.322874330896088, -1.4477914241520251)	(-5.5574169168861545, 4.8364456125588653)	1.0	slash	1.05785
2	R	E	E	F	Q	4	3	shapes	F	8	False	24	(-0.8209529071370687, -3.4587889586363127)	(7.8463112879349133, 6.6613049936577635)	(-5.3102075394319384, 0.94333396039878714)	(8.7261905328139875, -0.24519342294222923)	1.0	slash	0.689308
3	Q	E	Q	E	R	8	6	shapes	R	8	True	24	(-7.8732349909947246, -3.0703142954298528)	(-5.6899666414315782, -6.6408438089924768)	(-5.7066584353181131, 6.3324743624622588)	(8.3756983517648322, -0.68669418504945234)	1.0	z	1.44294
4	R	F	F	R	F	4	2	shapes	F	8	True	24	(-6.2386018157058771, 2.1923117857110199)	(-4.0316891527688394, -6.8016305437961666)	(1.4344014795840057, 6.9061023841097349)	(3.4214959026510527, -0.16555032812523329)	1.0	z	0.572456
5	Q	F	E	R	F	4	1	shapes	F	8	True	24	(6.094236449678867, -5.7806268556428826)	(6.7376704579389912, 5.7402907999711204)	(-0.92815853308468643, 1.372881548857535)	(-4.6089841374981955, -6.7535108414765972)	1.0	z	0.580415
6	R	F	R	E	E	4	2	shapes	R	8	False	24	(4.3601544081007724, 0.54344928973486972)	(-2.3253288388429434, -2.1237108802395372)	(-0.08364401950595024, 5.5554764434044177)	(0.55083016992163714, -6.0864661237435689)	1.0	slash	1.08986
7	Q	F	E	F	F	8	1	shapes	F	8	True	24	(-4.8489517006128322, 2.6298720629845445)	(2.6737875091859173, 7.3398411474557257)	(3.0986710931315447, -5.5091158124407293)	(1.9190294296102, 0.070456896150831838)	1.0	z	0.947586
8	Q	E	E	R	F	8	4	shapes	Q	8	False	24	(-7.1846125817773601, -1.6933207200977369)	(5.2872968613689295, -0.48704617373421044)	(-1.8366990747036862, 5.8959999813453532)	(-8.3457627426001544, 3.4799929903729918)	1.0	slash	1.22529
9	Q	F	R	F	R	8	7	shapes	R	8	True	24	(0.21717368034015117, -7.2428262127395744)	(-7.851974609032129, -2.2518341039002943)	(8.7478035802670782, 0.22836351658403764)	(-0.16012757153225188, -2.1883999802105221)	1.0	z	0.920577
10	R	E	F	E	E	8	1	shapes	E	8	True	24	(-2.9895528569980865, 4.9899513255491872)	(-4.6260638028750565, -4.6371435458425232)	(2.7258079140248928, -7.546726409008266)	(5.3576981763305334, 5.1102351751146156)	1.0	slash	1.75048
11	Q	F	F	F	Q	4	0	shapes	Q	8	True	24	(1.8492644780854217, -1.9376693628188821)	(-6.8414540705371651, -1.6189885431268207)	(7.2060387890561337, 2.5477528918008705)	(-5.9109639001495404, 7.6013172976889223)	1.0	z	1.00204
12	R	F	E	E	R	4	0	shapes	R	8	True	24	(-3.059737806208692, -3.6362855877865172)	(7.2868250958895473, -8.2068059395385458)	(1.6692615635130164, 7.4770631305706274)	(-2.9970526147817091, 6.9499591719778557)	1.0	z	0.451755
13	R	F	F	F	F	4	2	shapes	F	8	True	24	(1.7901140738730987, 2.0965399972540801)	(-5.9093224100414101, -8.7485259324934823)	(8.6579075094023565, -7.3866379131849342)	(-7.980074276461889, 4.9313813432084359)	1.0	z	0.859361
14	R	F	R	Q	R	4	0	shapes	R	8	True	24	(-7.7595845060348196, 5.0748232691921835)	(7.6589625550795724, 8.2917983238921913)	(1.0341212282467591, -4.2373208577199506)	(-7.7189796011775638, -3.552004061991715)	1.0	slash	1.36913
15	Q	F	R	E	F	8	1	shapes	F	8	True	24	(6.0379936873496103, 5.3381858826510094)	(-3.2183514107458073, -7.7166322593625587)	(5.6841655103475581, -8.3904178015442401)	(-5.7025394253431969, -1.104771306434233)	1.0	z	0.5427
16	R	F	R	Q	Q	8	4	shapes	Q	8	True	24	(3.5894354743615029, 6.3554841172187828)	(7.3335451612814175, -1.9844852907982125)	(-5.561140476305825, 1.3586918644403596)	(8.6693410315371437, -6.6708300887717975)	1.0	slash	0.98428
17	Q	F	E	F	Q	8	1	shapes	F	8	False	24	(-4.6404562109225562, -6.860834733711286)	(-5.1147199060111932, 8.1350186855589399)	(-0.26360635241808161, 0.52978936989614667)	(8.0761226078001158, 1.7569712136526761)	1.0	slash	1.00771
18	Q	F	F	R	F	4	3	shapes	R	8	False	24	(6.2238517204561159, -2.8803254278356336)	(-2.2857573103772912, 3.1736348698514565)	(-5.7355568988896781, -4.7764099016609816)	(0.75839451941320846, 6.4778176491206985)	1.0	slash	1.07948
19	Q	F	Q	F	R	4	0	shapes	Q	8	False	24	(8.3913351370798424, -6.6200977962391336)	(-5.2669563732999496, 7.8432507878250703)	(-0.75672616311315455, -6.8267159135358684)	(0.027862706542839177, 0.36284936580566018)	1.0	z	0.665225
20	Q	F	R	R	R	8	2	shapes	R	8	True	24	(-4.9799338885072757, -0.83146174517335858)	(7.0230280954974713, 3.2392167700320904)	(-8.5852365930661616, 2.9588793835545921)	(8.7360441010637793, -5.1752617035191166)	1.0	z	0.512969
21	R	E	F	R	F	4	2	shapes	F	8	True	24	(5.5053259751743635, -6.1950111603001243)	(6.2513537344429491, 6.4545749790095091)	(-3.3506939830530476, -7.8410722108587985)	(-4.766458535280707, 2.4201054756066664)	1.0	z	1.57253
22	R	E	E	E	R	8	1	shapes	E	8	False	24	(6.8876170515545034, -6.2964955641001037)	(-2.2580693636846831, -4.4394502556379889)	(-5.412422637492659, -7.2395169543364801)	(-0.69260669605473169, 5.595096540039691)	1.0	slash	1.05412
23	Q	F	F	R	F	4	2	shapes	F	8	True	24	(-0.75632175347611241, -4.3515636414823131)	(6.2941202037855497, -2.3972605811131187)	(3.2271935337957451, 4.528086004333451)	(-5.2712827542268874, 7.5230763031728038)	1.0	z	1.04577
24	Q	E	E	E	F	4	2	shapes	E	8	False	24	(5.8410498202839829, 6.0177238543620462)	(6.7937631842402695, -2.4836231862915223)	(-0.11168778629206244, 7.5592985493747591)	(-5.7959526426879275, -1.52131235851484)	1.0	slash	1.94329
25	Q	E	E	E	E	4	0	shapes	Q	8	False	24	(2.9054150258214531, -4.9082634943284225)	(-5.163751224406818, 5.5777207421137636)	(-8.5798466332023722, -7.3038672578899622)	(6.8775231594227595, 4.5464001245430765)	1.0	slash	0.820973
26	Q	F	E	F	R	8	6	shapes	F	8	False	24	(-8.7308402979654396, -8.6647422444059057)	(5.9090226667168189, -8.5052488009986753)	(1.5543303556006425, 1.8922838287513688)	(4.5097316344813994, 5.3790731594582457)	1.0	z	0.94258
27	Q	E	R	Q	Q	8	4	shapes	F	8	False	24	(-5.6100078614081959, -1.8310169890807177)	(2.8059274990100054, 5.9138200892340311)	(7.2736062109277064, 5.1757031340403312)	(-2.4783471198100973, -7.5983315968246288)	1.0	z	1.17436
28	R	F	R	E	R	4	1	shapes	F	8	False	24	(7.9686372606068225, -1.2282106653225418)	(-4.8049678821842763, -5.7615778673702049)	(-6.4824888130858991, 7.5618838170623199)	(4.8226227954812195, 8.1474808042520763)	1.0	slash	1.29374
29	Q	E	E	Q	Q	8	2	shapes	E	8	False	24	(5.1044682726761881, -3.5249995891806263)	(5.5180688876501289, 0.65276633701082787)	(-1.1843971291994855, 3.5736888033465029)	(-3.0636497718846245, 8.6883338239201642)	1.0	slash	1.51136
30	R	E	F	R	Q	8	6	shapes	Q	8	True	24	(7.4563394529996074, -6.7645810872356957)	(-8.4664214437676879, -2.684201539671097)	(-7.0655955880453289, 8.1557377831290907)	(-7.976794096898427, -7.7203347136392928)	1.0	slash	1.20517
31	R	E	R	R	F	8	1	shapes	E	8	False	24	(-4.0017678285254314, 4.906321391268996)	(-7.1118687627614925, 2.30987775354461)	(-0.076115150609238569, -1.1721253682423525)	(-5.9976253896752407, -8.0545005154903446)	1.0	z	0.568586
32	R	F	E	E	R	8	3	shapes	E	8	False	24	(-8.2527783229967149, -0.53943478959507196)	(-1.064741070396666, 5.5142021885686159)	(7.4719341694696837, -4.1348677007981296)	(-6.9131720736996769, 8.4589197107477219)	1.0	slash	0.946245
