TrialNumber	stim0	stim1	stim2	stim3	stim4	stim5	stim6	stim7	stim.probe	ttl.stims	corr.num	trial.type	stim.corr	block	match	Subject	stim.pos0	stim.pos1	stim.pos2	stim.pos3	ran	resp	RT
1	M	B	N	M	A	B	A	N	B	8	0	shapes	M	Practice	False	25	(-7.6935198840210912, -7.6966705321503586)	(-0.17006673513961701, -6.4736582623047472)	(-4.5950445915332896, 6.5979728227208714)	(-5.5384402158271229, 1.0271116754645231)	1.0	slash	1.46679
2	N	A	M	A	N	B	M	B	B	8	5	shapes	B	Practice	True	25	(-5.3166732823925793, -6.7810231816736311)	(-1.0564171383819962, 4.475178129462785)	(-4.2593990915361086, -2.4678714399142319)	(0.055732118984771262, -7.8846648957392187)	1.0	slash	2.9063
3	N	A	A	M					B	4	2	shapes	A	Practice	False	25	(0.45429844154601717, 2.2996633588441426)	(2.5636888962791655, -2.1907952414439977)	(-7.3677527536859735, -1.5239374160545811)	(-8.1422780704487892, 6.5817462909069082)	1.0	slash	1.16759
4	N	A	B	B	N	A	M	M	N	8	0	shapes	N	Practice	True	25	(-7.6154111125633328, -6.3499587878124926)	(-1.3526911910776613, -0.55942478066526924)	(6.6006309586786429, 4.4073537722438392)	(-1.9658726235856561, 7.3969407336078383)	1.0	z	1.75524
5	M	A	A	B	B	N	M	N	A	8	3	shapes	B	Practice	False	25	(2.5171259019957883, 1.107640830394292)	(-1.2817164892865192, 2.9783732559034277)	(7.2755978836976567, 5.3615210595972016)	(4.5438771104774389, -7.9351566272270029)	1.0	z	1.65692
6	N	A	A	B					A	4	1	shapes	A	Practice	True	25	(-5.5696500058149558, -7.8550819331229373)	(0.45075431282886314, 1.5989378261695464)	(-3.7601461397533447, 0.49513164722498004)	(0.74503002731225365, -8.5700551601643795)	1.0	z	1.48863
7	N	B	A	N					N	4	2	shapes	A	Practice	False	25	(1.3503936582659186, -7.4839729721410251)	(-3.9998820892119591, -0.092419194168483543)	(-5.6484346675051365, 5.214488131484968)	(0.7467503608504753, 5.5806848482227149)	1.0	slash	1.35215
8	M	B	N	M					B	4	1	shapes	B	Practice	True	25	(-1.2868301805505702, -0.03605630768761614)	(-5.1340996382800901, 3.5438980094366457)	(8.5614597462402848, 6.3863104866192231)	(5.9261345232882974, -4.2675015932663092)	1.0	z	1.14769
1	N	A	A	M	B	N	M	B	N	8	4	shapes	B	0	False	25	(2.8698577663624469, 0.38487414973032585)	(-4.2241634206066223, -0.94666890098857248)	(-8.2734398454859495, 2.2453280668660032)	(6.6504245881191544, 6.3756104357266246)	1.0	slash	0.82651
2	M	B	A	A					A	4	3	shapes	A	0	True	25	(4.2641735949837045, 5.8324793264277464)	(-0.56704546272546175, -0.68643467335681763)	(6.1570055774294534, -7.7770851524879063)	(-6.2551683652342867, 8.6155572072337492)	1.0	z	1.7281
3	N	A	B	M					N	4	2	shapes	B	0	False	25	(1.4173092339410047, -4.0930486874116303)	(-3.7245505013846492, 3.4144989853058849)	(2.8045712515779275, 2.1797323729594318)	(-3.2196129343510487, -4.8694492713702946)	1.0	slash	1.71975
4	M	B	A	A	N	M	B	N	B	8	1	shapes	B	0	True	25	(6.2286275682617642, 2.5030630684806354)	(-3.729770266080517, 4.2374989223451287)	(4.3368418040982846, -8.5019605933856823)	(-4.2362781814522403, 8.4441294624720129)	1.0	slash	1.52535
5	N	B	M	M					M	4	0	shapes	N	0	False	25	(2.0753293822032539, -2.3468566478412525)	(1.2873602896268448, 8.4002193596121302)	(-4.792047576134971, 1.5850446587425928)	(-6.7162208414473481, -8.5616988707198338)	1.0	slash	1.68682
6	M	A	M	B	B	N	A	N	N	8	4	shapes	B	0	False	25	(-5.7696979446585752, 1.1207065644491259)	(4.8128083180531167, 3.8279555627224404)	(-7.7958355673209878, 4.7947498959231005)	(-3.0783752250013503, -6.9338042357122616)	1.0	slash	2.15455
7	N	B	B	N	M	M	A	A	A	8	7	shapes	A	0	True	25	(-2.8224653874660124, 7.0974378246322285)	(1.7432935505680884, -8.5308695643992696)	(5.2361005796993521, 0.2994481398807789)	(1.7390367381686289, 6.7828196791340325)	1.0	z	1.96795
8	N	B	A	M	N	B	A	M	A	8	4	shapes	N	0	False	25	(7.2527066849461441, 1.8245928865832646)	(2.883309547761538, 0.36158969650537465)	(3.0494337549452215, -8.6845412946312042)	(-6.0716688299055406, -2.6273190374694648)	1.0	slash	1.02773
9	N	B	B	A					M	4	0	shapes	N	0	False	25	(-4.4561490789527483, -5.3317492850726929)	(3.5146863618652961, -0.80759607565060509)	(-5.1615154073877321, 1.5978843048556577)	(8.0461644636866403, 7.6666505614839195)	1.0	z	1.57324
10	N	A	M	M	B	N	B	A	N	8	7	shapes	A	0	False	25	(2.8716418541135358, 4.3350968256166258)	(2.8963600675570191, -3.6021239956040993)	(-6.7786629797333413, 8.0181745832445905)	(-1.8543607683170551, -1.7485701686186559)	1.0	slash	1.05478
11	N	A	A	B					M	4	2	shapes	A	0	False	25	(0.10003473737946855, 1.0113706535177673)	(6.6905641490578116, -4.4230224224419992)	(-7.2167315361525652, 0.63255277277316502)	(-3.1625892487623766, -8.4020506171588654)	1.0	slash	0.97452
12	M	A	A	N	B	N	M	B	M	8	0	shapes	M	0	True	25	(7.9534026603086261, 7.2641864694894807)	(7.0477451021252779, -6.437513516463067)	(1.2216784393488744, -7.8071598160061271)	(-2.8105610284397775, 5.1244376273317549)	1.0	z	1.06008
13	N	A	B	B	A	M	N	M	N	8	7	shapes	M	0	False	25	(-2.9817060725671087, -6.2854982645301005)	(2.4312455540259972, 8.0816674155540014)	(-6.7281230363751758, -8.0925163618883076)	(2.1122646474400923, -7.7168009882116628)	1.0	slash	1.1237
14	M	B	A	N					M	4	0	shapes	M	0	True	25	(-7.2043185913274677, 2.6434767395759327)	(3.235115257425166, -6.224958424141839)	(-6.7687804666502371, -5.1654212051874957)	(5.2189722919220074, 8.6055025153700342)	1.0	z	0.87745
15	N	B	B	A	A	M	M	N	B	8	6	shapes	M	0	False	25	(-3.424942518071088, -4.5292008872393996)	(8.3885273197750898, -7.9500244711413188)	(7.3493575318181605, 3.873020206930855)	(-6.1183257298140514, -0.59625754128926545)	1.0	slash	1.72303
16	M	A	N	N	M	B	A	B	N	8	3	shapes	N	0	True	25	(-8.1571873993875759, 2.1718976979859388)	(-4.4675474927761929, -2.7648752679265245)	(-3.1547402596389107, 7.6301189512638672)	(2.60482670527092, 5.3651262700064013)	1.0	z	3.11863
17	M	A	B	N	A	N	M	B	M	8	6	shapes	M	0	True	25	(1.4185099421833982, 2.0630334318563985)	(-3.218339070587243, -6.9804872944337522)	(5.2913959481620303, -1.1010886749453066)	(1.226301759732161, -6.7652719677669859)	1.0	z	0.907936
18	M	A	A	N					A	4	2	shapes	A	0	True	25	(-1.7404110793223522, 4.8185938848718912)	(6.8766273436168639, -5.0743322490541374)	(7.7730352256980204, 6.1149114591852172)	(-2.1795801757380806, -6.3200907617844262)	1.0	z	0.919412
19	N	B	A	M	B	N	A	M	B	8	6	shapes	A	0	False	25	(1.9446946781814187, 5.0777887508690327)	(-4.2306655001327114, -4.1742604276323627)	(7.7481308202743264, -3.6521484918939029)	(-3.7195174505944006, 5.164302119034895)	1.0	z	2.05335
20	M	A	M	A	B	N	B	N	N	8	5	shapes	N	0	True	25	(7.1307450586405707, 3.6100378396512465)	(-7.9555003298668714, 8.5024045280649609)	(7.5606422597718854, -4.6811420491129949)	(-1.3489344813211632, -6.1606756693495219)	1.0	z	1.38278
21	N	B	B	M					B	4	0	shapes	N	0	False	25	(-4.451383985536185, -8.4577328620551366)	(-7.2206749296582515, 4.2625059286806959)	(2.3031584674408077, 2.9820201897241905)	(1.7370601532283345, -3.6015679424497717)	1.0	slash	1.62841
22	M	A	N	B					N	4	2	shapes	N	0	True	25	(-8.5437346237283531, 2.3961642286222808)	(3.1687297802577756, -5.4633373312336424)	(2.9740603844843907, 8.0198549267053636)	(-7.0169406982447127, -4.3403573969315863)	1.0	z	1.60024
23	N	B	B	A					A	4	0	shapes	N	0	False	25	(8.2025945362098263, -8.4418469936634857)	(-2.1517336142111905, -4.8317333125174722)	(-6.647033073704339, 8.3120709442271128)	(4.2986996488694977, 0.53640738970747393)	1.0	slash	1.6098
24	M	B	A	N	M	N	B	A	A	8	1	shapes	B	0	False	25	(-7.7388997347113806, 6.6772840019111719)	(-5.2055474243404563, -3.6117529334811271)	(0.79472525657331872, -6.4097384798397004)	(-8.6472531024585244, 2.0373899222983916)	1.0	z	1.05333
25	N	B	M	A					A	4	0	shapes	N	0	False	25	(-3.711069830899099, 6.0430526545439012)	(6.9422531679507262, -3.1962632199898602)	(3.0949648613536098, 3.324215304018896)	(-7.3314215365870599, -6.2690903811129859)	1.0	slash	1.22112
26	M	B	M	N					B	4	1	shapes	B	0	True	25	(6.9632767689228654, -5.3861486062845794)	(5.9825838953947095, 0.82038463848170551)	(-5.2613668439047512, -8.6278707103443537)	(-8.1130368331726164, 5.2832803658689169)	1.0	z	1.18642
27	N	A	N	A	M	M	B	B	A	8	1	shapes	A	0	True	25	(-3.823996134432587, 5.7700164273197654)	(-8.1267250314448471, -4.8398810083048618)	(-3.2211270002331585, -5.1617142030432506)	(5.2895491972560365, -4.6162877871600809)	1.0	z	1.77015
28	M	A	M	B					N	4	3	shapes	B	0	False	25	(-4.1438674823827881, 3.759076412323676)	(1.7825372088956701, 8.7111536902817868)	(1.339157161825586, -8.2644400010438073)	(-7.9277512656178919, -0.42778234738379872)	1.0	slash	1.40985
29	M	A	N	N					M	4	0	shapes	M	0	True	25	(5.9436217336151991, -7.9510660123799788)	(-5.4165988809543784, 5.6236463191911543)	(0.0079462289706704325, 8.4316471218679894)	(-1.4040182869174496, -2.0863642405966516)	1.0	z	1.22539
30	N	A	B	N					A	4	1	shapes	A	0	True	25	(6.9916925946758539, 1.8563541762753974)	(-1.9898330911038489, 3.8455891659183976)	(-5.0765613367837243, -4.4628631621388148)	(8.0395159772463387, -3.002419231920852)	1.0	z	0.719319
31	N	B	M	N	A	B	A	M	N	8	3	shapes	N	0	True	25	(7.0020431891693349, -2.947376084437674)	(1.4988775556363976, 4.1095654579606471)	(-4.0382848998498453, -5.6754364014163876)	(-3.6900955563174458, 6.820080846864327)	1.0	slash	1.49257
32	M	A	N	M					M	4	3	shapes	M	0	True	25	(-0.86571331102649385, -0.36332519703611865)	(-0.16730597073429898, 5.5805079198278573)	(7.0483886849853015, 2.8092289190296889)	(7.322531232439438, -3.467618786581693)	1.0	z	0.828313
1	M	B	M	N					M	4	0	shapes	M	1	True	25	(7.5145081837785348, 4.0627404724661496)	(-2.8149708855563818, -1.1609869554988643)	(7.944748464421334, -5.3096039782593332)	(-7.5507701287647064, 6.6019925449464107)	1.0	z	0.571937
2	M	A	M	N	N	A	B	B	M	8	6	shapes	B	1	False	25	(-8.4210559013736077, -2.4485115113322564)	(-4.0290250661026583, -2.1955334915106377)	(3.6601424476660007, -7.2620935970990868)	(2.4162801165500447, 6.0324666916660892)	1.0	slash	1.23765
3	M	A	M	B					A	4	3	shapes	B	1	False	25	(0.040795997733056311, -5.9749066116677811)	(-2.4790081611501842, 3.4145678343065189)	(5.2785080870372987, 3.354874922618162)	(-1.5531921200774859, -1.6481025225619845)	1.0	slash	1.92713
4	M	A	B	A					N	4	0	shapes	M	1	False	25	(1.4945998941251393, -7.7397796611056435)	(-7.4125181187733258, 3.6669039396504193)	(-5.9901751143392428, -2.6208375245327513)	(6.1398459064488708, 1.3416751503330246)	1.0	slash	2.36683
5	M	A	A	B	N	N	B	M	M	8	0	shapes	M	1	True	25	(-2.446310469352766, -8.2105630626644626)	(8.0838351036772096, 3.8678669598130391)	(-2.0123711015221977, 2.6777291632845603)	(6.5568646280697145, -1.2249831214864839)	1.0	z	0.930301
6	N	A	N	M	M	A	B	B	M	8	0	shapes	N	1	False	25	(-4.2413326294663278, 0.24208258170384056)	(6.5281209001928442, -6.375071581620336)	(0.85840610777413495, 4.2929499860193001)	(5.0578662609294938, -1.5334405265126652)	1.0	slash	1.40598
7	N	A	B	A					N	4	0	shapes	N	1	True	25	(2.0779279653551441, -4.5329972644715975)	(-3.4931100270601059, 1.7930474348335608)	(4.7036951853757039, 3.374475389169147)	(-5.2051041235496536, -3.2364003777264401)	1.0	z	1.8154
8	N	A	B	B	N	A	M	M	M	8	7	shapes	M	1	True	25	(-6.9154106850174824, 3.0433281086928243)	(5.2145033102568767, -7.000226601121712)	(7.928650456959506, 3.4556305052539269)	(0.20307709907129734, 6.4413092309071889)	1.0	z	0.91328
9	N	A	N	A	B	M	M	B	M	8	6	shapes	M	1	True	25	(6.5954364585809024, 6.2306533724795941)	(-0.019557067539892614, -5.3064977306894416)	(0.41865083006521076, 8.7279968405708992)	(-6.0632411334061667, -2.1818493251370654)	1.0	z	1.95091
10	N	A	N	M	M	B	B	A	B	8	3	shapes	M	1	False	25	(8.2209224355657504, -5.2641218251931221)	(6.2247188073272071, 7.7912946773125995)	(6.5091393119630787, 0.3325277938470439)	(-4.821057025137037, -5.3075586859277095)	1.0	slash	1.7162
11	N	A	B	N					B	4	2	shapes	B	1	True	25	(7.0348365582650274, 0.86172689693000137)	(1.0216345795254025, -2.6223469641725954)	(-4.736377659735755, 8.5772082275224051)	(-2.0959447820400339, -7.8951032484110195)	1.0	z	1.6559
12	N	A	A	M	B	B	M	N	B	8	1	shapes	A	1	False	25	(-1.2268086606136492, -6.7752373313244556)	(8.1413192126600187, -5.8809952141359823)	(-1.9809851496134145, 1.417790625640226)	(-5.9208655875307059, -2.484938236914334)	1.0	slash	2.01739
13	N	B	B	N					M	4	1	shapes	B	1	False	25	(8.1987230313785311, -0.16772018591517579)	(-0.31210304715731674, 7.8676262888199595)	(4.4213515122281937, 6.5495241045643979)	(-3.6097926895116883, -7.0732781984741591)	1.0	slash	1.585
14	M	A	N	A	N	M	B	B	B	8	0	shapes	M	1	False	25	(-3.950373810593808, 0.32379787923330561)	(0.27864237619660415, -1.4193751957537772)	(8.0121184276820792, 7.8263473653113174)	(2.6508688870573369, 1.9782711876946131)	1.0	z	0.864719
15	M	B	B	N					B	4	2	shapes	B	1	True	25	(1.120991241299734, 3.2713025247545833)	(-7.0485321296477874, 3.6321307495521982)	(-3.6865097505098134, -4.0534274438443418)	(5.7942409667409756, -8.3742100702296174)	1.0	z	0.822301
16	M	A	B	A					N	4	3	shapes	A	1	False	25	(4.3006131761311774, 4.1355885197744371)	(-6.6568354555436029, 1.0080146717457747)	(-3.491345519640511, -6.5972546326949857)	(8.2800983433936999, -1.0290855076012546)	1.0	slash	1.70607
17	N	B	B	N					A	4	3	shapes	N	1	False	25	(-3.66427112752437, -6.0609706756248736)	(-4.3967582122241069, 6.0880118519724427)	(3.5245449298646587, -3.4485174299959338)	(3.009085027652187, 0.80728982802060045)	1.0	z	3.75154
18	N	A	M	N	B	A	M	B	M	8	2	shapes	M	1	True	25	(1.0670556320956344, 2.0622118315122453)	(6.5379255357900341, -5.4052968809927684)	(3.5438673183114062, -2.4837770187051698)	(-2.8547659395345057, -8.2572846095289645)	1.0	slash	1.029
19	M	B	N	N	A	B	A	M	B	8	5	shapes	B	1	True	25	(-0.6956528932170869, -8.2778840530328797)	(-7.7007770123447594, -0.10649684724632635)	(-5.6370701846967712, 6.5880680287250417)	(3.4311131688396177, -6.0522971463200239)	1.0	z	1.53254
20	M	A	N	A					N	4	2	shapes	N	1	True	25	(-8.6913915011562484, -3.5765328393099374)	(-2.1022904358352195, 5.6247557109915078)	(0.2790384101972041, 0.48590209186473032)	(6.2907452667459545, -0.068143866847380608)	1.0	z	0.96412
21	M	B	N	B	A	M	A	N	A	8	3	shapes	B	1	False	25	(7.8948310262565045, -1.3695380841344766)	(-1.9941902972828416, -7.4581571177449808)	(5.5290408858201694, 2.2513260535035275)	(-5.3028536506693946, 7.5177021719973887)	1.0	z	2.51974
22	M	A	A	N					B	4	2	shapes	A	1	False	25	(-1.3956757813858989, 6.7733272757769942)	(-1.8086188737290261, -4.3292747058589116)	(7.2388890317835379, 1.8018929248619688)	(5.1166272160864157, -5.9425594941809416)	1.0	z	0.937342
23	N	B	N	A					B	4	1	shapes	B	1	True	25	(4.1691125094483592, -2.2202082350907801)	(-0.62091262125826319, -0.94731898880160426)	(4.8178002844382064, 3.8434098895899798)	(-4.3247290703579626, 6.5522190974443948)	1.0	z	1.16093
24	M	B	N	A	B	M	A	N	A	8	1	shapes	B	1	False	25	(-3.2436648673137354, -3.1762447014286135)	(-0.84780919593437964, 6.2260570654983241)	(-7.54944348255433, -6.7926613696023894)	(6.7810329553125523, 4.0682690883932473)	1.0	slash	1.22885
25	M	A	B	M					A	4	1	shapes	A	1	True	25	(4.368158009914719, 1.711068269173559)	(-5.4370032574222797, -5.5876109896778763)	(-1.6482986083203537, 1.3469159940349087)	(6.3953248784940016, -5.7672382601247865)	1.0	z	1.13622
26	N	A	M	M	A	B	B	N	A	8	1	shapes	A	1	True	25	(-6.8740869565046294, -8.5665171148691748)	(7.2770290443585637, -7.4381481349316534)	(3.2737838245916571, -0.048774776309709722)	(5.3771018714168335, 7.2910718264125549)	1.0	z	1.20179
27	N	A	A	B	N	M	B	M	M	8	4	shapes	N	1	False	25	(-7.1612831897765856, -4.4036407026302014)	(-1.6681768282760441, 7.5016522394868552)	(5.5556684077290441, -4.7449541759694531)	(-8.5775240025787376, -0.51088602942028416)	1.0	z	0.997385
28	N	A	N	A					B	4	3	shapes	A	1	False	25	(-7.3937208002850019, -6.5416284462473762)	(2.4232968455026054, -2.2742097689767826)	(4.1527660399375446, 7.4314368139731357)	(-8.6318470092938604, 6.7546964083875949)	1.0	z	0.727163
29	M	A	B	B	M	N	A	N	B	8	2	shapes	B	1	True	25	(5.738457767435003, -4.6347297818757118)	(-6.5521485489565539, -1.9823098637920298)	(6.2722276753041371, 8.124234053883395)	(-5.996702918077375, 4.6113157284015429)	1.0	slash	2.29081
30	N	A	N	A					A	4	0	shapes	N	1	False	25	(-0.49137446994438605, 0.098797298386402943)	(-2.6442238515712759, -5.2004411732093061)	(7.2171384677092938, 5.6773854831556214)	(6.0881402004321394, -0.8447203630751785)	1.0	z	1.21039
31	M	B	A	A	N	N	B	M	A	8	3	shapes	A	1	True	25	(0.48699343087814206, -7.3714452418012257)	(4.5342139374302395, 6.2555052474349591)	(-7.1369448899670545, 1.1676316063017147)	(1.0689321482119709, 2.6289257426967616)	1.0	z	0.813543
32	N	B	B	A					N	4	0	shapes	N	1	True	25	(-7.0632567225598102, 1.349008032330099)	(6.6263937952297756, 7.6692900490578921)	(2.5528809348213812, -6.4451466972075568)	(-4.8084768579748651, -3.2271980389016095)	1.0	z	0.637736
1	N	B	N	B	A	A	M	M	B	8	5	shapes	A	2	False	25	(4.0660274011497854, 5.7262353691507819)	(3.8715494428297568, -1.1073233576456714)	(-7.4893366953174247, 3.5999627644653334)	(-2.6292375535765489, -3.0268657909574621)	1.0	slash	2.85333
2	N	A	N	A	B	M	M	B	M	8	0	shapes	N	2	False	25	(-3.2116311554059225, 7.5953391628858107)	(8.4956333697105038, 8.5746270774298523)	(3.0034260661412162, 6.5179130377628383)	(4.7367229450978421, -0.50343102391226324)	1.0	slash	0.990726
3	N	A	N	B	M	A	M	B	A	8	7	shapes	B	2	False	25	(-2.3022150563850392, 4.0561638080808358)	(-5.8922021276762218, 6.9706197163114734)	(-4.8382215075456978, -3.0737228090719375)	(7.3380762680263274, 0.26930126189444081)	1.0	z	0.788391
4	N	A	A	B	M	N	M	B	B	8	7	shapes	B	2	True	25	(-2.8044181310706673, -1.8039514408718924)	(0.24871230671551281, 6.3683907279524128)	(-0.25916963394377213, -7.091404028749273)	(6.3568295197996409, 2.7578413698106488)	1.0	z	0.75625
5	N	B	N	M					N	4	0	shapes	N	2	True	25	(5.7920335158964722, -6.7223394614038199)	(0.72580756708571137, 3.1289963446054259)	(-3.5763530690081513, 8.7419330103902482)	(-6.8982019126987399, -7.9736316840624282)	1.0	z	0.591763
6	N	A	B	M					N	4	3	shapes	M	2	False	25	(4.4006478868650252, 8.5681304117400678)	(-2.8670804604109161, -0.056900995176489388)	(-3.0830852898816747, 5.4784388862129596)	(6.0771854867025237, -4.2073486650875784)	1.0	slash	1.82753
7	N	A	M	B					N	4	0	shapes	N	2	True	25	(3.7943192269215267, -2.228145514998257)	(-1.4746326170252981, -6.0784368097162478)	(0.52522516671646535, 2.5001250601256384)	(-3.6656016689580389, 4.2765888945371433)	1.0	z	0.583033
8	N	A	B	B					M	4	2	shapes	B	2	False	25	(-7.4659479272122269, -1.9775970232636642)	(2.9275052130605985, -8.0650049725638358)	(-2.6333608189930917, 2.1318551120289975)	(7.9212653845495602, 7.9999261698002897)	1.0	slash	0.868589
9	N	A	N	A					M	4	3	shapes	A	2	False	25	(2.7179929663155029, -0.49195034495759238)	(-1.464877975361393, -6.3051243345508663)	(-8.2472247790156263, 7.5031133794653293)	(3.2337957246233291, 3.6733020208894356)	1.0	slash	0.880279
10	N	B	N	M	M	B	A	A	M	8	4	shapes	M	2	True	25	(3.2780071806045843, -4.669104152352106)	(-1.247384435558355, -1.0979399721938554)	(-7.4118196461814874, -7.7693612684394466)	(-7.4169981117198418, 7.712323758091653)	1.0	z	1.87784
11	N	A	M	B	M	B	A	N	N	8	7	shapes	N	2	True	25	(-0.85707399020152586, -3.2259895763294075)	(2.5556079932968387, 0.1863847154929168)	(-0.24842357211476696, 4.946946476167895)	(4.1393383902501402, -8.6005816467955505)	1.0	z	0.70787
12	N	B	A	N					M	4	3	shapes	N	2	False	25	(6.1969523555166965, -4.1334015989110355)	(-1.8918727934171198, 2.6484987081507132)	(-7.2844953265809629, -0.2709022474007643)	(5.0730420380850951, 5.0338896475557711)	1.0	slash	1.81514
13	N	B	M	M	B	N	A	A	B	8	1	shapes	B	2	True	25	(-5.9567498557091003, 3.899753528435749)	(0.50741670241725956, 6.038195312895942)	(3.3333819306015471, -0.20001193411662044)	(7.6449330039146126, -4.4627164054340023)	1.0	z	0.944722
14	M	A	M	B	B	A	N	N	M	8	3	shapes	B	2	False	25	(-7.3052792976933727, 4.9741924977061025)	(8.2312210475347172, -6.754800169902988)	(-2.4382837076775505, -7.3090729767063092)	(-8.0904176477193648, -0.84522130150643715)	1.0	slash	0.896494
15	M	B	A	B	N	N	M	A	M	8	6	shapes	M	2	True	25	(-5.8021417439300036, -7.0175697108705091)	(3.4514591623398445, 4.2651539138598089)	(-4.9426596637708702, 4.8747650395438988)	(8.2544029604126763, -0.066143924173065471)	1.0	z	0.826147
16	M	B	M	A	A	B	N	N	N	8	4	shapes	A	2	False	25	(3.2558012766209199, -3.0388776794848287)	(-2.4155833118020311, -7.1009577670154043)	(-0.10741686642567672, 0.13705303628093546)	(-6.1775680502809056, -2.2576115231059761)	1.0	slash	0.985567
17	N	B	M	N	M	A	A	B	B	8	5	shapes	A	2	False	25	(-0.35595096794694925, 0.75238691798250201)	(5.1919376379426776, -1.7822032305521489)	(-4.327037454076395, -2.7489941985393962)	(-7.2899912619781508, 0.17994341884204523)	1.0	z	1.90518
18	N	B	A	B	M	A	N	M	N	8	5	shapes	A	2	False	25	(-4.444293549457103, 5.400828016109859)	(-0.19709800065508354, 5.8228687895274209)	(6.7140431564286551, 5.4298788828766185)	(6.5138898502011227, -4.9539941350648338)	1.0	slash	1.13691
19	M	B	B	A					M	4	0	shapes	M	2	True	25	(-0.61847457712050691, -7.0940268276497536)	(7.9395900535770068, 7.7323591388825754)	(1.5170403640993815, -1.8302298921662672)	(-1.9265304873890532, 4.5882897507686167)	1.0	z	0.782569
20	N	A	B	A					M	4	3	shapes	A	2	False	25	(-5.1365662383849688, -7.5402244454934912)	(1.4427707049964251, 5.0557502309878206)	(-2.5046699176306326, 1.4633188771680619)	(2.8681674296607724, -1.0672014353482275)	1.0	slash	0.94029
21	N	B	B	M	A	M	N	A	B	8	2	shapes	B	2	True	25	(5.5472404877682813, -6.9025794685580619)	(-5.3100819015468907, 8.0627977091944913)	(6.254364896372886, 7.1993422174698694)	(6.8475502162360797, -2.0014306441051204)	1.0	slash	1.02173
22	N	A	M	B					M	4	2	shapes	M	2	True	25	(3.955520136028138, -0.63127446629026451)	(-3.5428159362991538, 8.1432288759852547)	(-8.5423432124915504, -0.65043616283491446)	(1.9400021368718079, 7.7416196806346491)	1.0	z	0.723368
23	N	A	A	M					A	4	1	shapes	A	2	True	25	(3.6765109610841442, 3.5034289570405495)	(-6.3785891825064631, -4.391136087851069)	(4.6899062951347332, -4.6546134879327932)	(-7.0357630757376084, 7.2603896914161652)	1.0	z	0.732864
24	N	B	N	M					B	4	0	shapes	N	2	False	25	(6.7982823984179284, 3.2071849148128937)	(-0.81029517420519692, -3.0142905089180223)	(-2.6248184974850384, 1.0952551199138068)	(6.4783829672110649, -6.8804658264661791)	1.0	slash	0.964818
25	M	B	M	B	N	A	A	N	A	8	5	shapes	A	2	True	25	(-6.219512946297403, 8.1460724118614145)	(-8.0152208897389343, 3.452035555595792)	(6.1981535062779649, 2.9709385684313947)	(4.1756589987981894, -2.1021526147542264)	1.0	slash	1.02448
26	N	A	A	N					N	4	3	shapes	N	2	True	25	(2.1292618778731391, 4.4009258435784435)	(-6.0946378068095566, 4.6347076535746812)	(4.3918376026478807, -2.6802853791352463)	(-5.1510165216467776, -0.24351552326041315)	1.0	z	1.84599
27	M	B	N	B					B	4	3	shapes	B	2	True	25	(-7.9913625560405572, -3.2835471720347318)	(-6.8029028181488345, 6.9896050159172276)	(2.5400076146577675, 6.9818122308067174)	(4.0054015787823598, -1.062844030419396)	1.0	z	0.935367
28	N	A	B	A	N	B	M	M	M	8	7	shapes	M	2	True	25	(-2.5291430710901421, -5.5962321864320534)	(-7.7078233748713352, 0.097737340110677806)	(-7.0388952415557018, -3.9577107756203684)	(7.0118055295942572, -8.4052659591942298)	1.0	z	0.873215
29	N	B	N	A	M	B	A	M	A	8	4	shapes	M	2	False	25	(-0.7559084850857305, 0.73860237325713385)	(-4.3365404819877789, -5.9531860329249469)	(6.0544046688297168, 5.9402664431632708)	(-0.10294895444467045, 6.1208868995100367)	1.0	slash	1.03089
30	M	B	B	N					N	4	1	shapes	B	2	False	25	(-1.6518575562525761, -1.4363927188051324)	(2.8087309355683416, 2.9776241082895805)	(7.4451105962686128, -1.310741692757218)	(-5.8210643040693881, 3.133355874599884)	1.0	slash	0.514428
31	N	B	M	B					N	4	0	shapes	N	2	True	25	(2.4801067078212924, 5.4105655060314799)	(-1.1488718499619148, 7.864002174063625)	(-8.3601951464116109, -3.0915045656871971)	(4.3878306450156757, -8.4912764121912083)	1.0	z	0.766322
32	M	A	M	N					M	4	3	shapes	N	2	False	25	(-5.6019623753991716, 6.878244178536999)	(-6.5517267495389131, -1.6439269286648042)	(0.062656008138356256, -6.7315898422819931)	(1.9019977033638611, 5.0509237313669804)	1.0	slash	0.783939
1	M	A	N	B					N	4	3	shapes	B	3	False	25	(-6.6809438531908061, 2.2861606670047045)	(-4.5609042449172277, -1.3463980565895008)	(5.3854170651423967, -5.209544598927434)	(8.4187171886841909, 2.5172542681645567)	1.0	slash	1.45502
2	N	A	M	N					N	4	0	shapes	N	3	True	25	(6.1291493831454904, -4.4319984245469408)	(-8.552120064267255, -3.6516002858603889)	(6.8413601478693398, 6.2315045946933409)	(-3.1427232534207938, 7.777917287218024)	1.0	z	0.671107
3	N	A	N	B					A	4	1	shapes	A	3	True	25	(-1.7314048524023615, 8.31667081855527)	(0.98746019236949323, -5.6176679379911043)	(-3.7343471467995135, -2.5721116699818189)	(8.4642751754334391, 1.8259348236108597)	1.0	z	0.794909
4	N	A	B	N	M	B	A	M	A	8	6	shapes	A	3	True	25	(-4.7523016247593528, -7.368174027666571)	(-3.8078757415757787, 1.3996090478503849)	(8.6599503749835236, -0.52301915809010779)	(8.7445107718965041, -8.2701653989570527)	1.0	slash	0.936404
5	M	B	N	B	N	A	A	M	N	8	4	shapes	N	3	True	25	(-1.7400803818656643, -6.7774525284734759)	(7.1588269761879246, -4.5543041675636058)	(-8.447071857123742, 3.3829145283624538)	(1.3785048920343801, 0.41795871459696876)	1.0	z	1.79415
6	M	A	A	B					N	4	2	shapes	A	3	False	25	(-6.4608330305356514, -0.86693393776835048)	(1.1628748092078069, 8.6919043034191432)	(-5.6444545073670946, 7.0086336523425548)	(2.0538031157994645, -1.8630884065045974)	1.0	slash	1.84565
7	M	B	A	B					M	4	0	shapes	M	3	True	25	(-7.2350050453777941, -3.8040610554659162)	(7.5922624478986833, 3.7070667035768032)	(7.2520782686708039, -5.3016490493118074)	(-1.023939192612608, 2.1936840200092416)	1.0	z	1.15132
8	N	A	N	A					N	4	2	shapes	N	3	True	25	(4.9018907697694249, 1.2815933202673637)	(5.88594588235601, -5.3367885034732865)	(-5.8117428376601881, -1.0501448309913179)	(-0.63925853320315973, 0.26342868231694538)	1.0	z	0.563056
9	N	B	N	B	A	M	A	M	N	8	5	shapes	M	3	False	25	(-5.9833930025051609, 3.2866849953405595)	(1.3632841216007794, 4.0699983578454138)	(-5.4609466716247184, -7.3441654517814552)	(-1.3293076764445964, -4.112273436908775)	1.0	slash	0.830625
10	N	A	M	A	B	M	B	N	N	8	7	shapes	N	3	True	25	(-5.1326971568030446, -2.4437933430742405)	(1.8439994928678463, -4.5326004579210606)	(7.821520048688587, 5.4271106759662189)	(-7.5742654228549426, 2.6045308877975089)	1.0	z	1.0062
11	M	A	N	A					A	4	2	shapes	N	3	False	25	(7.2150738137040626, -6.4468940209108805)	(-1.5121450792021829, 0.25149221241330899)	(7.9995903661542798, 6.5187360009132149)	(-2.837551811879643, -5.269192934971036)	1.0	slash	0.799963
12	M	A	B	N					N	4	2	shapes	B	3	False	25	(-2.8799165212013298, -3.3380861646773319)	(4.716155187239492, -4.1821869152849178)	(2.1602353472902358, 1.0566055508069603)	(-5.860137635115148, 3.6417932115495013)	1.0	slash	0.665641
13	N	B	B	A					A	4	0	shapes	N	3	False	25	(-1.3428135948367483, -7.8186117313076835)	(6.5674471185090262, 3.6291680860842064)	(7.5744023695129563, -1.3533052668829413)	(-0.74301984528276854, 5.3481799204368361)	1.0	slash	0.951404
14	M	B	N	B	N	A	M	A	N	8	7	shapes	A	3	False	25	(-1.7715575717690477, -0.21600556266803395)	(-1.0643055689003935, 3.8111276400803984)	(2.3177490209660707, -1.5945312473455715)	(4.4734206620008798, 3.0080248370229548)	1.0	slash	1.53284
15	N	A	N	B	A	M	M	B	A	8	7	shapes	B	3	False	25	(-7.6994932919005405, -3.7350269213963738)	(-0.54200996132288282, -7.4851506500944129)	(-1.0109205519472413, 2.5159382451740466)	(-0.77315320804663568, 7.3008807780987617)	1.0	z	0.99048
16	N	B	A	M	A	N	M	B	A	8	4	shapes	A	3	True	25	(0.2338911999102713, -4.0848532671600868)	(8.3474827838882568, 2.1279837574996954)	(0.15627977695048756, 3.5403174863299789)	(-5.6782562959143021, 7.0140509388974568)	1.0	z	2.8461
17	M	A	A	B	B	M	N	N	B	8	3	shapes	B	3	True	25	(-4.7509779025855696, -1.6855944096761961)	(-8.423817152257465, 3.6645348622977245)	(0.94398036193831203, 5.4106438915563437)	(-8.2389230312972259, -6.4113669259331365)	1.0	slash	1.16982
18	M	B	N	A	A	N	B	M	B	8	3	shapes	A	3	False	25	(-7.9030849786752615, 6.3500102135495755)	(6.1519362388398875, 7.6539920507125068)	(-8.5356375512292537, -6.5807695998348184)	(-2.972647573046463, 4.7647248190299862)	1.0	slash	0.957081
19	N	B	B	A					N	4	0	shapes	N	3	True	25	(0.10300438734503992, 3.9297608171167866)	(-4.6895997841211008, 7.4494355869633289)	(3.6072355640409501, -5.5330819444424932)	(-4.9703690107555065, -2.9592303245353389)	1.0	slash	1.15061
20	M	A	B	B	N	N	A	M	N	8	7	shapes	M	3	False	25	(2.1805960243432931, 6.8551436337108438)	(0.98940740741564426, 2.252429870500583)	(6.8573125983964172, -2.5926111496356867)	(-4.0841396168008721, -4.4224280750990497)	1.0	slash	0.886545
21	N	B	M	B	M	A	N	A	N	8	0	shapes	N	3	True	25	(-1.2484941543453143, -0.071714108860641446)	(2.2068785768899843, 4.1975841018392455)	(-6.8053629241721882, 6.6895114466814327)	(-8.3611096127481144, -1.9871373882209618)	1.0	z	0.578177
22	M	A	M	A					M	4	2	shapes	M	3	True	25	(8.6134116243778216, 8.4657498252514287)	(-5.9597366125920272, 2.891695319444592)	(-6.5592045267696353, -5.146508146771489)	(7.008630062352065, -8.3193097816788715)	1.0	z	0.591927
23	N	A	A	M					A	4	2	shapes	A	3	True	25	(-1.0263989482869835, -7.0710550323615822)	(-2.3117947602512796, 0.26202640332995308)	(5.0479469510338024, 1.5504329035543343)	(3.6895264564314161, -5.2611045584072649)	1.0	z	0.619438
24	N	A	B	M					M	4	1	shapes	A	3	False	25	(0.48033750550940546, -6.9897208263647936)	(6.7918777098668315, 3.8177120441062016)	(-8.096673900395535, 0.96121135046622896)	(-2.5342612762258838, -1.3398088827563592)	1.0	slash	0.809212
25	M	A	B	A	N	B	M	N	M	8	2	shapes	B	3	False	25	(0.48594665742350251, 4.147833002210545)	(7.7434714820073474, -0.06569521887881713)	(-7.2834223627949282, 3.7364217932042365)	(2.1985381383565485, 8.2164745628500739)	1.0	slash	0.668819
26	N	A	M	M	N	B	A	B	A	8	5	shapes	B	3	False	25	(0.44378479581243724, 3.5522779052953553)	(-3.3843431459733688, -4.6979177819747848)	(5.0334623116132757, 4.5802816748058319)	(-2.8230490253724954, 7.0434674064392127)	1.0	z	0.980528
27	M	B	A	B					A	4	2	shapes	A	3	True	25	(3.7751977404850319, 6.1865996833464703)	(1.3375121698101999, -7.14372883940172)	(-3.1330962599394843, -8.3780627924520186)	(-8.3324450509679213, 3.9919301908150473)	1.0	z	0.761985
28	M	B	N	N					A	4	0	shapes	M	3	False	25	(-2.4936150976026505, 7.7539352892037599)	(-5.5322141056455418, -8.4382462612708942)	(1.2821010719532282, -0.65575778297069398)	(6.8117533420861438, 1.8650646447068091)	1.0	slash	1.44378
29	M	B	A	M	B	N	A	N	N	8	5	shapes	N	3	True	25	(-6.8059015656689965, 6.3770391386992475)	(1.0880601547685131, 0.13895452116086382)	(-3.3213287443907049, 0.64559343330663843)	(0.74370474119778684, -4.2271196089518535)	1.0	z	0.487416
30	N	B	M	B	N	M	A	A	M	8	5	shapes	M	3	True	25	(-8.7316064404174867, -0.2761943305289023)	(5.0447309392713553, 5.7057157845403736)	(-4.9604313837747362, -3.9506638551706112)	(7.8576897564626442, -7.2480816651212558)	1.0	z	1.86707
31	N	A	A	N	M	M	B	B	B	8	2	shapes	A	3	False	25	(3.6615682768149522, -7.3228413987340453)	(4.7767704688732149, 0.9317829118215144)	(8.008604191981437, -6.9871436061193783)	(-6.222187770795828, 1.4042640886503222)	1.0	z	1.22646
32	M	A	B	B					N	4	1	shapes	A	3	False	25	(8.3108786864491151, 8.2455245851319852)	(4.0964314536334729, -0.29488886216381971)	(-7.1077444281376865, 4.6320721643895357)	(-7.9675222103756873, -8.156843603820537)	1.0	slash	0.624022
1	M	B	N	B	A	N	M	A	M	8	6	shapes	M	4	True	25	(-7.1591911143130709, 1.0582431568875545)	(7.5641420515546969, -6.5593344617031288)	(4.634021860696766, -0.58657142602546841)	(-2.1598407949916467, -1.0471363537003455)	1.0	z	0.780059
2	M	A	B	A					N	4	0	shapes	M	4	False	25	(-5.7537652194020126, 2.4297227177116589)	(-3.6326447512088844, -3.0244941859378747)	(1.1366486588089693, -5.8504145423659537)	(7.938007233036533, 4.2374655072293965)	1.0	z	1.48962
3	N	B	M	N					M	4	2	shapes	M	4	True	25	(4.2205798759348045, 0.42784147693775409)	(-4.4640273227217628, 7.6738725624124555)	(-8.0137684673534242, -7.8698138513844427)	(4.0158152654313035, -4.1676853821718138)	1.0	z	1.07317
4	M	A	N	M	B	B	N	A	A	8	7	shapes	A	4	True	25	(-7.5706435554949971, -2.9009391173577868)	(7.6414524581150793, 0.41351593485253701)	(-4.4616125820904458, -8.3105034063166521)	(5.9949856081614517, 8.5564053184501212)	1.0	z	0.694664
5	M	B	N	B					N	4	0	shapes	M	4	False	25	(-6.0684485953919989, 1.2916383919455896)	(1.7135247756860021, 1.6159334054988772)	(4.4577388994410132, -2.6084717496851679)	(-8.190787606831293, -6.7899043644725374)	1.0	z	0.958454
6	N	B	M	N					A	4	2	shapes	M	4	False	25	(6.5303018491710265, -7.7369261911508511)	(-5.4979736408104865, 4.9450122423287883)	(-5.8869069606161677, -7.4153053220825011)	(2.4886381931490469, 2.4038646714408234)	1.0	z	3.01605
7	N	B	B	A	N	M	M	A	A	8	5	shapes	M	4	False	25	(7.4850686936509376, 3.4234066073905876)	(1.4419392542792817, -7.5532663391481778)	(2.3971698755905226, -0.65949704237901585)	(1.5432028695982876, 7.726336547229554)	1.0	slash	1.40091
8	N	A	B	M	A	N	B	M	N	8	5	shapes	N	4	True	25	(-5.0550067051917136, -6.7708293446936363)	(-0.54168949175278058, -5.8884765369967544)	(8.104908515625322, 5.5916131463524152)	(-6.9366321156570718, 2.9699732178144735)	1.0	z	0.957206
9	M	A	B	M	B	A	N	N	B	8	7	shapes	N	4	False	25	(0.29945226941892855, -3.9787981282304399)	(8.4405087506054066, 7.4594557134638713)	(-6.8292835090491746, 1.055353585439466)	(-3.1439619322687582, -0.97670691138514432)	1.0	slash	1.13869
10	N	A	N	B	M	A	M	B	N	8	7	shapes	B	4	False	25	(-2.159041135633105, 1.239572991612107)	(0.96304066471500249, -3.9037093742294742)	(7.0958408643685047, 0.76532702322649726)	(-3.5853970826244312, 7.4219507250931045)	1.0	slash	1.17198
11	N	A	M	N	B	B	M	A	M	8	1	shapes	A	4	False	25	(-4.6061643982691169, -4.1158341923528647)	(6.5338363915393529, 2.2679816970019537)	(-1.3085748368984653, -1.2870539078665049)	(-2.5279627404109792, 8.1988641445225952)	1.0	slash	0.76595
12	M	B	N	M	A	N	A	B	A	8	2	shapes	N	4	False	25	(4.2055064611134494, 0.76445435069553902)	(1.1980247206519454, -1.8857698795889615)	(-1.0210481483223397, 7.5064905215669668)	(-3.4429509493762893, 2.4741488653218617)	1.0	slash	0.617674
13	M	B	N	A	B	A	N	M	B	8	1	shapes	B	4	True	25	(-3.7444360986539102, -5.9403995877926441)	(-6.4890092390964256, 7.4963537067890975)	(5.8477098229836422, -0.27202540793387975)	(7.1413733587683303, 4.7848754177398245)	1.0	z	0.54741
14	N	A	M	M	B	A	B	N	B	8	6	shapes	B	4	True	25	(-4.5840442526827587, -7.0241735440690674)	(-6.4443446107689031, 0.65065967981906425)	(6.6938223504948517, -0.13252280796012528)	(-1.871515662213441, 7.8640949539287419)	1.0	z	1.19489
15	M	B	M	N					N	4	0	shapes	M	4	False	25	(-0.97220097312093312, 4.9831068099394358)	(8.693410669787454, 5.152032112386518)	(-4.5304593803395061, -0.67815501416491664)	(6.9347089925104033, -7.2720346578667616)	1.0	slash	1.12618
16	N	A	M	B					M	4	1	shapes	A	4	False	25	(3.229940011540231, -1.3649633316681449)	(-5.6979286447828699, -3.9107041973153924)	(-3.047261666697711, 7.1510791971266343)	(7.0962263487090826, 7.205334748089653)	1.0	slash	1.37632
17	N	A	N	B					N	4	2	shapes	N	4	True	25	(0.25378768933038209, 0.28072837205963275)	(-2.2934439075740611, -4.3509380894101382)	(-1.2700559772947182, 6.1045042800959539)	(7.9231813907482085, -7.0399310250286886)	1.0	z	0.81573
18	M	B	B	A	M	N	A	N	M	8	6	shapes	A	4	False	25	(0.2176203373478991, 8.6817406522369254)	(-3.6878104529219735, -5.2097488722686123)	(7.9636902466416473, 4.4376585787315879)	(3.7623523604579479, -3.0726117688250119)	1.0	slash	0.665643
19	M	A	N	M					N	4	2	shapes	N	4	True	25	(5.4257386268706878, 4.554668052835952)	(7.7154277164865519, -5.251981320127558)	(-1.1240863021889291, 2.77843641246149)	(-3.7284020364534349, -3.9418520437257536)	1.0	z	0.527124
20	M	A	B	N					M	4	0	shapes	M	4	True	25	(7.4046539503719337, 2.3832832352833222)	(7.9755116399855837, -5.0516695943525942)	(-3.3707753425976952, 1.1207817381421439)	(-8.2242046319314603, -3.6276904885723287)	1.0	z	1.39887
21	N	B	B	A					M	4	2	shapes	B	4	False	25	(-6.309431822864247, -6.9157052375489911)	(-6.7498260390366021, 2.5976093215650113)	(3.7675987170934331, -0.54606664663476678)	(5.1831070435134237, 6.9305713198104506)	1.0	slash	0.60059
22	M	A	M	N	B	A	B	N	M	8	0	shapes	M	4	True	25	(-3.8137649107830187, 2.002066433150258)	(4.4880677590483415, 6.0316023779106551)	(6.8259932222536026, -0.44680656129727403)	(-0.8634965884058774, -5.4901812818834337)	1.0	z	0.726277
23	M	B	A	B	N	A	M	N	A	8	2	shapes	A	4	True	25	(2.1705872973229425, 5.2154294517108326)	(-2.3501673092703363, 4.029733329999468)	(7.3313375682691415, -4.8697015496169174)	(-5.8888948277871336, -4.4473745056694041)	1.0	z	0.785795
24	N	A	A	N					A	4	2	shapes	A	4	True	25	(7.717588375808333, -0.12473241464927121)	(-5.2293394444883514, 4.0818780606452361)	(-0.29495498527506037, -8.4763850982043394)	(4.8435960136949294, 6.371176387010145)	1.0	z	0.85558
25	N	B	M	A	A	M	B	N	B	8	2	shapes	M	4	False	25	(-4.7156894224835799, 7.363301053537775)	(2.0035172189664081, 1.1930006535694009)	(0.53125529950357908, -2.6042520301381265)	(1.3768782210355131, -8.0266862502805001)	1.0	slash	0.952948
26	N	A	N	M	M	B	B	A	M	8	4	shapes	M	4	True	25	(-8.6524528944949211, 6.3289794527267862)	(0.10013299687395083, 1.842750372824133)	(1.8039193823200925, -7.2057878217725371)	(2.0607879649767629, -2.1567549950436753)	1.0	z	0.758722
27	M	A	B	A					A	4	3	shapes	A	4	True	25	(-7.830605837615721, 2.555144267505014)	(6.0812081920064642, 5.0694360130305309)	(-1.4654645146403595, -4.5869611538685255)	(1.1409721297450268, -0.57449605229746936)	1.0	z	1.18445
28	M	B	N	B					M	4	2	shapes	N	4	False	25	(-8.6809220452348708, 2.1099140500446616)	(-4.5315866080383946, -7.5857603207800715)	(2.9938889449443913, 4.8151495915281579)	(8.4952895833979731, -4.541693219005154)	1.0	slash	0.637985
29	N	A	B	M					A	4	1	shapes	A	4	True	25	(4.4832973369264852, -6.1641100610565873)	(7.4931051219750451, 2.8398341695169815)	(-5.4857996791635113, -4.3677360051487391)	(-4.449780179613728, 4.1519479727578137)	1.0	z	0.775835
30	N	A	A	B	B	N	M	M	N	8	4	shapes	B	4	False	25	(-1.3022620809422305, -2.8166935636990296)	(6.0331276867729446, 8.5738765584731809)	(1.9013653426260806, 4.8198354703036568)	(-4.8390127272580097, 7.2519510705816543)	1.0	z	0.729292
31	N	A	A	B					A	4	1	shapes	A	4	True	25	(-3.9450980946144698, 7.9399097946030288)	(0.33337692933174523, -2.3756758428131297)	(-4.3098321709431211, -6.6285142408356119)	(3.626042428074232, 5.7604065584765216)	1.0	z	0.792993
32	M	B	N	N					B	4	3	shapes	N	4	False	25	(-4.2179788553416797, 3.637699581712603)	(-3.4660319894991245, -2.3557219042170789)	(3.6897507673984027, -6.0845440659401167)	(2.3709275033236104, 2.8053600178605844)	1.0	slash	0.640174
1	N	B	N	A	M	B	M	A	N	8	2	shapes	N	5	True	25	(-4.2665727667455879, -3.2211133349365575)	(3.0653947894147553, -0.24190876677572426)	(-3.2236431546295998, 2.6575159637059311)	(3.3806820749281954, 3.9858698562651718)	1.0	z	1.51249
2	M	A	N	B					B	4	1	shapes	A	5	False	25	(1.533059209919875, 2.2758166350251372)	(-5.1545275925631078, 3.2952011124635483)	(-3.9870655690331356, -2.5020065929182653)	(2.7446136408753272, -2.9783013554285809)	1.0	z	0.756089
3	M	B	A	A	M	B	N	N	N	8	7	shapes	N	5	True	25	(3.4941311884082271, 3.4295240686096609)	(-2.0725927814357492, 1.2157453477946234)	(5.106441900797142, -2.4086336353314985)	(-5.4307775410315449, 6.233409492846544)	1.0	z	0.979632
4	M	B	A	M					M	4	0	shapes	M	5	True	25	(5.8354619201018298, 1.385123830856946)	(5.6742239236710912, -4.9970934783678693)	(-2.3201013453021195, -2.8353759783819656)	(-3.3247062268067458, 6.5942219578459706)	1.0	z	0.593264
5	M	B	M	N					M	4	0	shapes	M	5	True	25	(-0.009303836964242862, 0.18860696404992439)	(3.4348055264325659, -5.0409762351600165)	(-5.9807614998201295, -6.9189953411559006)	(2.0088015163181154, 8.0946096475545239)	1.0	z	1.30103
6	N	B	B	N	M	M	A	A	M	8	5	shapes	M	5	True	25	(8.0359617631040372, 4.0733676923191506)	(-7.3345952721787606, -5.0727094204437613)	(3.3287414302690941, 3.0243078645826067)	(-6.5394849188983697, 8.331156710706896)	1.0	z	0.756486
7	M	A	M	B	A	N	B	N	A	8	7	shapes	N	5	False	25	(-0.35441433109633635, 7.7347338479891619)	(0.22450289489645492, 2.7096896081765074)	(-7.5512356921928347, 8.1256698870477955)	(-4.3336874051802319, -6.7681227088413225)	1.0	slash	0.898235
8	M	A	M	A	B	N	N	B	B	8	2	shapes	M	5	False	25	(4.7655761499457086, -7.8072321934167332)	(6.3720784742627394, -1.4774352700192894)	(-5.804877329274011, 6.3459349359625357)	(1.7889763576927127, 5.4276829514217813)	1.0	slash	1.39596
9	N	B	N	M	B	A	M	A	M	8	3	shapes	M	5	True	25	(4.4864381414436068, -1.3157372548717348)	(-3.9974214411333486, -0.35971610024064304)	(-0.614036870206359, 4.7555552993259571)	(-6.0674559139365076, -4.8352548382748228)	1.0	z	0.625489
10	M	A	M	A					N	4	2	shapes	M	5	False	25	(-6.8867903427364716, -6.7100353551966032)	(-3.2982027174014705, 0.61753053200290964)	(4.3154838726916349, 6.4741761899403905)	(6.9585047544173051, -5.5097661088009264)	1.0	slash	0.7592
11	M	A	A	N	B	N	B	M	N	8	5	shapes	N	5	True	25	(0.1829333110691671, -6.4475565483614847)	(6.1302011687979387, -5.1048898553378788)	(-7.1454709105703884, -0.10695804289744615)	(-4.8379613126634649, 5.2687711041686249)	1.0	z	0.386746
12	N	B	A	N					A	4	3	shapes	N	5	False	25	(-3.3834072431216349, 4.8054477152240214)	(-2.7799232474817428, -3.2401175514729932)	(4.953370089797124, 7.2362350178105554)	(4.3104796455972778, -7.1909982973269386)	1.0	slash	2.85211
13	N	B	N	A	A	M	M	B	B	8	3	shapes	A	5	False	25	(-5.5904439763223293, -6.9168844174947353)	(7.8149923057393771, 7.9530048864171974)	(3.639148697063483, -3.218409767436837)	(-4.5565051213485424, 5.7306828049589118)	1.0	slash	0.565968
14	M	A	M	A	N	N	B	B	A	8	3	shapes	A	5	True	25	(-1.1334731276957877, -3.7106596692385736)	(-7.1133510206600867, 4.171575524223714)	(2.0991670303753605, -8.2371139115105372)	(-1.864653287479455, 1.4456372907891115)	1.0	z	0.785706
15	N	A	A	B					A	4	1	shapes	A	5	True	25	(8.0278340079109789, 3.7176003362016221)	(5.7251985997257684, -2.6333068740376504)	(-8.0238238627975278, 1.6566393336109488)	(-2.6514410005867024, -6.2016409148842424)	1.0	z	0.52734
16	M	A	A	N	M	N	B	B	M	8	0	shapes	M	5	True	25	(4.5193338759654136, 7.5211355709879228)	(3.5454958692128784, -3.7961334477140305)	(4.1096639273074143, -8.5633919708079045)	(-3.6856377274124004, -0.18400387782527972)	1.0	slash	0.883723
17	N	A	A	M	M	B	N	B	N	8	3	shapes	M	5	False	25	(-7.7256273417213386, 6.6097147070159483)	(-3.4169057960620588, 7.2648052866774471)	(6.9875100684587483, 5.2841536778519753)	(1.6689343838397175, -7.8648452093519152)	1.0	slash	1.48645
18	N	B	A	M					B	4	2	shapes	A	5	False	25	(-8.0427561741074332, -3.8407622679900397)	(6.7745902149261124, -0.24138880988068756)	(-7.6258487286207073, 7.2408280793597388)	(6.1300876398805055, 3.7284450029082272)	1.0	slash	1.86007
19	N	B	A	M					B	4	2	shapes	A	5	False	25	(-2.2224792270815756, -2.878333825623324)	(1.0205219570109758, 7.7010816883450453)	(-8.1180356104165909, 7.9923136077341006)	(7.7782062655729227, -5.0278118502474642)	1.0	slash	0.961644
20	N	A	A	N					B	4	3	shapes	N	5	False	25	(2.3240200729141538, -7.3927346049248399)	(-3.6753378688202796, 8.185521388584128)	(-6.0784253695048749, -3.9107309330970352)	(8.5788139969694122, 6.354818698566314)	1.0	slash	0.715414
21	N	B	N	B	M	M	A	A	A	8	1	shapes	B	5	False	25	(-1.6439263439456848, 6.8763336615188724)	(-5.4008376970806351, -4.3965036105520481)	(-0.2981213175468902, -4.2662121562611084)	(5.7098052291576344, -3.5263040343730818)	1.0	z	1.8811
22	M	A	N	A					N	4	2	shapes	N	5	True	25	(-5.957237284315255, 6.4451631992992908)	(0.93238327205664007, 0.63560433575874953)	(2.019447322074404, -7.6359173196753476)	(-7.1109194607560733, -5.0657105848886133)	1.0	z	1.56257
23	M	B	A	A	M	B	N	N	N	8	2	shapes	A	5	False	25	(-1.8352591790752326, 8.054672614014887)	(-0.62179442870438884, 0.38605779699464549)	(3.5103668981151372, 2.8609443252321611)	(1.512635283072246, -3.017588817536871)	1.0	slash	0.853615
24	M	B	A	A					B	4	1	shapes	B	5	True	25	(-2.6418429549625619, 2.4197939486010647)	(1.021966379454307, 6.3261792661634768)	(8.1703923184955194, -5.8750746515847201)	(-6.7517110157485867, -5.582406760324548)	1.0	z	0.685815
25	M	B	B	A					B	4	1	shapes	B	5	True	25	(-3.6711013569836854, 0.99008007106994889)	(-2.9116137268412885, -3.4123657730368073)	(4.3171680325514767, -7.7925550145971876)	(7.8691402013255534, 5.6184582561640894)	1.0	z	0.51168
26	N	A	N	A	B	M	B	M	B	8	7	shapes	M	5	False	25	(7.15238869076512, 2.2122645845950668)	(-0.73130445297718971, -4.8577404588321116)	(-1.6038836814096555, 2.4124439419286112)	(-8.4284575305684246, 3.3545040834799948)	1.0	slash	1.09335
27	M	A	M	A					N	4	3	shapes	A	5	False	25	(7.4897019979966011, 4.9614115078032377)	(-6.9675839447832564, 7.2681884921542235)	(8.3762679922600043, -6.1386062113358939)	(-1.3319172526498795, -2.6513302448662195)	1.0	slash	0.572921
28	N	B	B	A	N	A	M	M	N	8	0	shapes	N	5	True	25	(-8.6867295302168053, 4.7963272739651561)	(4.2442824644396886, 7.5556610465974643)	(-2.6245716954795553, 1.7400697999372614)	(2.3667219048661092, 2.0041227577397542)	1.0	slash	1.08651
29	M	B	M	A					M	4	0	shapes	M	5	True	25	(-7.1956728723570729, -5.6883263440385923)	(3.442642277347467, -8.2208724458705245)	(3.9226276898452266, 6.5792374628605224)	(-7.7217190669142424, 3.2044129797422816)	1.0	z	0.904272
30	N	A	B	A					M	4	3	shapes	A	5	False	25	(-7.197738466894692, 8.4162809361643802)	(-8.0399658548221673, -5.0489495548938779)	(5.114764281346206, -5.5862610030376114)	(6.6319739186593107, 8.1651240293240583)	1.0	slash	0.747811
31	N	A	N	A					A	4	3	shapes	A	5	True	25	(-5.3999220093757305, -1.1295936220055918)	(5.4526246085494332, 6.9200930863007528)	(3.5994270492748779, -1.2038288041024776)	(-5.1436820785762976, 3.9794011502818201)	1.0	z	0.671538
32	N	A	M	N	A	B	B	M	B	8	4	shapes	A	5	False	25	(3.8155500890801175, -6.3813230103192851)	(4.2912671370853133, 6.459211652136652)	(-4.4162586131268435, -3.4035106386806415)	(-8.436680095684256, -7.0917150429814049)	1.0	slash	0.60554
1	M	A	B	N					N	4	1	shapes	A	6	False	25	(-0.2970619430599708, 0.83155551660263427)	(-0.20874575498636538, -3.5883749492203858)	(6.7046905842605238, -5.7364185329181332)	(7.4877401283143676, 0.33222559366809357)	1.0	slash	0.770933
2	M	A	A	B	M	N	B	N	B	8	6	shapes	B	6	True	25	(2.2867914935262803, 5.8682337207751303)	(-8.3896304635912564, 7.6369854433425282)	(2.2375854382400124, -4.1664928828326531)	(3.3855249926961672, -0.12079791050565625)	1.0	slash	1.12446
3	M	B	M	A	A	B	N	N	M	8	0	shapes	M	6	True	25	(-6.1187715528396494, -7.6388824527669383)	(-2.969509591663158, -0.35405180953599569)	(-0.60787854650207507, 8.5807968741811642)	(-7.793118600269402, 5.5270285440386164)	1.0	slash	1.00005
4	N	B	N	M					A	4	0	shapes	N	6	False	25	(2.5625217622483252, 6.9838386616550849)	(-2.9726745559637164, -2.4726586283921703)	(-3.3473717507216101, 6.6508916771077562)	(8.683664726847784, -4.2546377804195723)	1.0	slash	0.665661
5	M	B	B	N	N	A	A	M	N	8	5	shapes	A	6	False	25	(6.3102156840963719, 5.2978229577050762)	(3.0498972718796118, -3.9131386916891291)	(4.9972785886642459, 1.4645799359180618)	(-1.5218559058568975, 4.8971099243591762)	1.0	slash	0.649474
6	M	B	N	M	B	N	A	A	M	8	2	shapes	N	6	False	25	(-0.35604079664937416, 4.8736083212363717)	(3.1565750843792593, -4.2634516832787925)	(-2.1423274455046721, -2.792874237026977)	(-7.8982866811283472, -7.2499662069391135)	1.0	slash	1.25314
7	N	B	A	B	A	M	M	N	M	8	5	shapes	M	6	True	25	(-5.7572357031232704, -7.3929887411658175)	(1.2641078803426549, -1.546969958186919)	(-5.3126280895660347, 0.7995519769744206)	(1.9478888331214623, 2.8395865137598548)	1.0	z	0.92665
8	N	A	M	B	M	B	A	N	A	8	1	shapes	A	6	True	25	(1.0001879173946246, -1.2794434154606469)	(-3.5982939139794228, 1.3205262391403547)	(8.6112816256167015, -0.74502877887007379)	(1.4942529991558828, 6.1947603510315137)	1.0	z	0.722419
9	M	B	B	N					A	4	2	shapes	B	6	False	25	(6.5670249614883147, 6.5321842319943109)	(-5.6891449511232937, -7.78013718128891)	(-1.0069834240219429, 4.4718374332527642)	(2.0083719250385652, -1.8349725163077695)	1.0	z	1.01192
10	N	A	N	B					N	4	2	shapes	N	6	True	25	(0.18589856699641949, 5.636053910786293)	(-6.3091248116876661, 7.2989692947726823)	(6.5581710214702795, -1.2817307022993827)	(-5.3963688758159076, -0.089911723319858083)	1.0	z	0.523743
11	N	A	N	B					M	4	2	shapes	N	6	False	25	(5.0171216938700205, 3.4872500034465137)	(-3.8537197910296559, -8.610221497957216)	(-8.2595632377859758, 3.952802460304655)	(6.8232229516766392, -4.8358081792792786)	1.0	slash	0.861395
12	N	A	M	A	N	B	M	B	M	8	6	shapes	M	6	True	25	(6.5103608976677823, -1.1760735902642336)	(-5.2087822155146117, 8.6056184984260504)	(-1.161844856670883, -2.1767581597065542)	(5.953367137659578, -7.1764571746793395)	1.0	slash	1.15687
13	N	B	B	M					M	4	0	shapes	N	6	False	25	(4.6205884071430408, 6.6265401459452438)	(3.4224880727631231, -3.9540336568585399)	(-8.4518633387502451, 5.4207593116510004)	(-7.276934343067726, -1.0147285713647332)	1.0	slash	0.656619
14	M	B	B	A	A	M	N	N	B	8	1	shapes	B	6	True	25	(-1.0779532547506845, 2.9242727875200476)	(-7.1444195395690748, -8.5237167412734358)	(-1.7121646667526162, -4.2233717933425199)	(3.8463932772005442, 6.4425611668572422)	1.0	z	1.3543
15	N	B	M	A					B	4	1	shapes	B	6	True	25	(1.6301950755650552, 2.2058716119218769)	(4.0844012302756294, -6.9399160812992449)	(-3.2620237418805775, 1.8739075313819047)	(-1.5959710647902003, -2.9795508599783087)	1.0	slash	1.66183
16	N	B	A	N					B	4	1	shapes	B	6	True	25	(-3.3395158996513459, -6.3839987922692352)	(2.9734861344488834, -0.73310026718887933)	(-8.7074227676333784, 6.0491203583643518)	(3.2392390786196437, 4.3598637106990097)	1.0	z	0.763468
17	N	A	N	B					B	4	3	shapes	B	6	True	25	(7.3958460662791623, -2.3299835971344551)	(6.5637609068595246, 5.9990766016038037)	(-2.8379747382872438, 5.9793914406892625)	(-2.0320816997454907, -8.2918151155640487)	1.0	z	2.1731
18	M	B	B	N	A	N	M	A	M	8	5	shapes	N	6	False	25	(-1.7886690030107184, -1.4537515100992362)	(3.8781754474848906, -1.0059035064888509)	(0.91663891816606125, -5.7147337161048481)	(-1.6714396692465545, 2.790572895516414)	1.0	z	0.758728
19	M	B	N	A					A	4	0	shapes	M	6	False	25	(-7.6407178823920763, -6.9827346939787116)	(1.6911977286868378, 0.62915616227764382)	(0.83219444203765214, -3.7988618663406903)	(-4.0416243723561296, 5.1925319067239784)	1.0	z	4.43225
20	N	B	N	M	B	A	M	A	N	8	2	shapes	N	6	True	25	(3.8862543339856792, 4.390314544404621)	(-5.6625173594808267, 1.9681360975654538)	(4.3797431262180471, -0.86217569338484612)	(-0.9468186479948395, 5.2140736647079056)	1.0	z	1.10184
21	N	B	N	A					A	4	0	shapes	N	6	False	25	(4.439917309610923, -3.0749114053076205)	(-1.648305055513263, -0.51300319728972177)	(-6.9158911613437564, 2.0565208711317258)	(1.3153307744878884, 5.9080795620440458)	1.0	slash	0.811278
22	N	B	B	N	M	A	M	A	B	8	3	shapes	N	6	False	25	(-5.5577064527256432, 0.52358825793531061)	(8.5616784831692954, -6.2498436338873038)	(5.609245030919535, 0.75425951618815112)	(2.4604969626699393, 4.29961647461176)	1.0	slash	0.92498
23	M	B	M	A					B	4	1	shapes	B	6	True	25	(5.629856181652114, -0.42000278456992035)	(0.052851632865788645, 0.24162214381645697)	(-4.8824367709469474, -3.9637681415960797)	(-2.4254661588659125, 6.3449881752800241)	1.0	z	0.908718
24	M	A	A	M					M	4	3	shapes	M	6	True	25	(3.4031186314706225, -0.3407006249167619)	(-4.7766375391753693, 6.5703243797563218)	(-2.5742827981919891, -7.9299511393111883)	(1.7233531822153285, 5.5493063741083191)	1.0	z	1.44835
25	N	B	M	M	N	B	A	A	B	8	6	shapes	A	6	False	25	(-0.47095206304357262, 4.0787096334799546)	(3.0745973390191672, -8.0367300025181887)	(-4.7691628324624986, 4.9726525630544813)	(3.2628636202681101, 7.9249599868004097)	1.0	slash	0.827953
26	N	B	M	B					N	4	0	shapes	N	6	True	25	(0.7823997306627497, 8.4626723485776907)	(-6.3928673769755937, -5.8423823746174106)	(8.0593173127748017, -5.0541952760670705)	(-3.518623391878152, 5.3578736264746549)	1.0	z	0.575856
27	M	B	M	A					M	4	0	shapes	M	6	True	25	(8.5318543187045819, 5.6499191964238662)	(5.8134869959191082, -1.5226940651655472)	(-4.1203677271008177, 5.3793044548090823)	(-7.2830189022694114, -8.2926599889685146)	1.0	z	0.92724
28	N	A	B	A					A	4	2	shapes	B	6	False	25	(5.4677331779193423, 3.2624003854216976)	(-6.4449580976794678, -7.7823845850534292)	(-5.9845721150076496, 2.0583384291492113)	(5.8322848861026095, -7.5322874034195886)	1.0	z	2.35088
29	N	A	N	A	M	B	B	M	B	8	7	shapes	M	6	False	25	(6.179615688638977, 4.3401800319170327)	(1.0413969773637763, 3.2062659045592969)	(7.4959441543008438, -0.64004190795076887)	(0.19188370227985274, -1.0014760814071408)	1.0	z	1.16443
30	N	A	M	B	M	B	A	N	M	8	2	shapes	M	6	True	25	(4.7840030857198226, 7.0753670813953882)	(4.8642097746396402, -1.3428631258985151)	(7.880892802092081, 1.4261474887489864)	(-0.44244519302502283, 6.7462161957051983)	1.0	z	1.41592
31	N	B	A	B	A	M	N	M	N	8	1	shapes	B	6	False	25	(-0.30092357006803816, 7.3297786131406895)	(-6.6596983721417171, 6.8665144267799541)	(-6.7960668086128511, -5.9334732031040414)	(-5.5631186383518854, -1.208049479045834)	1.0	z	0.825585
32	N	A	B	M	N	M	A	B	A	8	2	shapes	B	6	False	25	(-2.8344493727850271, -5.3555424681626249)	(-6.769837661309241, 4.7012755117832814)	(5.3558963357228997, 8.3737065163167124)	(-8.3200874803912352, -1.9562465957399988)	1.0	slash	1.31319
1	N	A	N	M	A	M	B	B	N	8	7	shapes	B	7	False	25	(-1.5482576238048038, -4.6771018548784546)	(2.9934749103341929, 4.0159103032412293)	(-7.2926778603636073, -4.3653523638232263)	(-6.3948333945691385, 8.0366793760151225)	1.0	slash	0.530925
2	M	B	M	B	A	N	A	N	M	8	0	shapes	M	7	True	25	(-0.95576824658205783, 1.0106950891332733)	(0.19574220039203993, 7.9218625306261572)	(-2.4757085084025272, -7.8924109532858155)	(3.9011625358322899, 0.21176132260019287)	1.0	z	0.954493
3	N	A	N	M					N	4	3	shapes	M	7	False	25	(8.3339313029071249, -6.8537823889036957)	(-4.3465895596139728, -0.7454195647371602)	(-0.77085717103417384, 2.9964572718138776)	(3.1832748179829373, 1.7270376283201969)	1.0	slash	0.854179
4	M	B	N	A	B	M	A	N	A	8	1	shapes	B	7	False	25	(5.6135216634735006, -6.7099702131001973)	(-8.4493595777348123, -4.8927359167057993)	(1.5516285292536409, -6.8077009899666301)	(-0.46013070556651492, 3.647294642671957)	1.0	slash	1.47183
5	N	B	N	M	A	A	M	B	M	8	1	shapes	B	7	False	25	(-3.985106000617483, 2.4189335398644953)	(-3.9306649947120134, -5.0097940851635254)	(7.0253528588058582, 7.005993868921907)	(1.8203211032538515, 2.6733863124079971)	1.0	slash	0.909462
6	M	A	B	M	A	N	B	N	M	8	3	shapes	M	7	True	25	(-0.77804164308176205, 0.9219534236918232)	(8.2299923243257354, 7.9134105041680485)	(-3.5680747102650336, 4.1129690530017804)	(-8.2320581296699231, -7.9706951656995759)	1.0	slash	1.26904
7	N	B	B	A					A	4	3	shapes	A	7	True	25	(2.4276813739511471, -0.95925058862237744)	(-7.5044935249839115, -2.2658822317279217)	(0.52497676882458499, 7.8970515370683287)	(-4.2728256900751074, 0.10356164043641947)	1.0	z	2.24662
8	M	B	N	A					N	4	1	shapes	B	7	False	25	(1.0690870893489048, 8.5401072751499569)	(-5.8645306445578473, 5.3267806492096614)	(-1.7511934286321633, -1.3225720901594604)	(6.5771846958675333, -5.5079704259158113)	1.0	slash	0.520264
9	N	B	A	M					N	4	2	shapes	A	7	False	25	(2.7979508028205338, 1.8454734283301626)	(7.1168240549960657, -5.7635807827771792)	(-2.2568281075983387, 1.3200694563545152)	(-8.351128252324088, -4.5259802588580005)	1.0	slash	0.593898
10	N	A	B	N	M	A	B	M	A	8	5	shapes	A	7	True	25	(-3.3389846103851797, -1.7516049558229954)	(-2.9632586501416531, 5.986040217148874)	(5.3983678544393268, -0.61303438440613967)	(0.14218205151083474, -5.6049995433815427)	1.0	z	1.79153
11	M	A	N	B					N	4	3	shapes	B	7	False	25	(0.73147154883147181, -0.32426891400506008)	(-5.9722177379012349, -3.4133877187400943)	(-1.2526984500823373, 5.2900086966348585)	(7.3132187343806834, 6.6966251172323457)	1.0	slash	0.619117
12	M	B	B	N	A	N	M	A	M	8	5	shapes	N	7	False	25	(-3.0805661866792624, 2.4189388893500077)	(-5.8980308938155392, 7.7638761526628102)	(7.7756782354730376, -1.057794236215968)	(-2.3259269175803423, -7.3341354066528908)	1.0	z	1.90085
13	M	B	M	A					M	4	2	shapes	M	7	True	25	(-2.7049547214336052, 0.49679643801885831)	(8.5951473676857049, -1.4477115302433718)	(5.519038899463629, 3.6798824266820365)	(-6.0447346476927493, -7.8695937195743078)	1.0	z	1.3943
14	N	B	N	B					A	4	0	shapes	N	7	False	25	(3.7613030664940119, 6.1816600951699705)	(6.5931663635416289, -4.452925401069419)	(-7.891953544913763, 6.5854718006523232)	(-5.4706207166837242, -1.8208166187816071)	1.0	slash	0.605964
15	M	B	N	A	N	B	M	A	A	8	5	shapes	B	7	False	25	(-5.6576160443839623, -6.1227046242318242)	(6.9497181375513737, -2.374056257691616)	(-7.9377436319853594, 7.246233758796027)	(-2.902956337349643, 0.072681085284882485)	1.0	z	0.489743
16	N	B	M	N					N	4	0	shapes	N	7	True	25	(-0.87675516169383449, 2.1898282221687602)	(-1.5184334095322614, -2.2378906707317032)	(3.2172279934895265, -7.3912771217339124)	(5.2173733028711702, 3.8523954297587935)	1.0	z	0.593251
17	N	B	N	A					N	4	0	shapes	N	7	True	25	(-1.6732375523683167, 4.3601256039287808)	(7.286313402820209, 3.2577274231227715)	(4.9174268571306001, -3.5795918070233119)	(-4.1671275074235599, -0.051876086967883595)	1.0	z	0.605095
18	N	A	A	B	M	M	N	B	N	8	0	shapes	N	7	True	25	(-0.11891695031138738, 1.311646910056087)	(-0.57336488042171752, 6.6121272805537963)	(6.6646201257177786, 7.48751347719028)	(-5.7644010611714016, -6.1661068576921831)	1.0	z	0.486545
19	N	A	M	B	A	M	B	N	A	8	0	shapes	N	7	False	25	(7.5417577635517006, 1.0149844759633471)	(-4.7890399337821297, -0.83336755213724345)	(-5.4804348857310181, -7.022812458307663)	(8.0929059995248771, -3.5809049170278975)	1.0	slash	0.586246
20	N	A	M	M					M	4	3	shapes	M	7	True	25	(-1.995399243800553, 2.8250949488012189)	(1.9456356230091512, 6.1387076983900268)	(-7.7062081726335059, -8.6379948167348033)	(2.3067792768153303, -0.85337965273852046)	1.0	z	0.704012
21	M	A	A	N					A	4	3	shapes	N	7	False	25	(1.4605678870435064, -1.0196701076761991)	(-2.0756134338061676, 6.2216561181298626)	(-4.7420711341154096, -1.419267590876272)	(8.2170431344682164, 3.4009817376291149)	1.0	slash	0.765709
22	N	B	B	A	M	M	A	N	B	8	4	shapes	M	7	False	25	(-3.2605331182766557, 4.2242702615589565)	(3.4726881555797764, -7.1387144524260435)	(-7.425124657764604, -8.4743065480302029)	(0.74384104587432986, -0.73729923224364136)	1.0	slash	0.849469
23	M	A	M	B	N	N	A	B	A	8	1	shapes	A	7	True	25	(-0.087606767370171923, 7.5295275822864447)	(-6.6931278566256296, 8.6810214363497451)	(5.542681677875926, 8.0270115760553082)	(-2.5157909900857423, -7.3458895020610298)	1.0	z	1.43096
24	M	A	M	A					A	4	1	shapes	A	7	True	25	(2.1153101524513787, 0.050365384385402834)	(-2.762461876629728, -4.8668998538230941)	(-6.7365976041820197, 7.76694083417852)	(0.77193614589212523, -6.7506923577851792)	1.0	z	0.738562
25	M	B	B	N					N	4	0	shapes	M	7	False	25	(7.3187035222269401, 3.5986692697533051)	(-1.747413463868364, -1.0603245122129081)	(-6.1854105219006108, 3.8889241293520023)	(2.9213359627002262, -5.5979772202270626)	1.0	z	1.64039
26	N	B	A	B					B	4	1	shapes	B	7	True	25	(5.6099765175413694, 6.4899463828093431)	(7.9129666209035108, -3.7598532245177614)	(-6.7352107129092067, 3.7956277510841527)	(-3.7291780178194482, -5.6852837481005611)	1.0	z	0.99377
27	M	B	N	A	M	B	N	A	A	8	0	shapes	M	7	False	25	(5.8905425459145899, -5.8049716880750193)	(-8.7150215067165195, 6.9549212878831046)	(-7.2540030968705249, -6.0618173790360501)	(-7.5873483602436824, 2.9732718676140362)	1.0	slash	1.11153
28	M	A	M	A					A	4	1	shapes	A	7	True	25	(-0.34985160673881666, 4.3192316477654842)	(7.0982932376838193, 6.6727590909657284)	(-0.49156974518417762, -2.8000900574825174)	(5.997840629851579, -6.6906366234070891)	1.0	z	0.531109
29	N	B	A	M	A	M	N	B	N	8	6	shapes	N	7	True	25	(0.33650545920633768, -6.4561468878251524)	(3.12085704230579, -2.7848650065127423)	(-0.11956584899204969, 2.7634963240883064)	(1.0306805988386216, 6.9447096811841043)	1.0	slash	1.05477
30	M	A	A	B	N	M	N	B	M	8	5	shapes	M	7	True	25	(-3.4629095043219049, -2.3319273621311831)	(-4.2182473133770237, 2.4519117763398768)	(7.0658582166199047, -2.2313833725656025)	(0.75894565484488652, -8.3449821561988085)	1.0	slash	0.994517
31	N	A	A	M					M	4	1	shapes	A	7	False	25	(-6.8406662585539042, -6.5113526014425052)	(7.069723589853762, -1.6667201577053232)	(3.7271096711210934, 4.0442330623625011)	(-8.0552747318914975, 0.54156360399356984)	1.0	slash	0.765667
32	N	B	N	A	B	M	A	M	M	8	7	shapes	M	7	True	25	(-4.8448469969288439, -0.20214861462373079)	(3.5148137363260705, 5.5740799764183375)	(5.9182080320238928, -4.0566805742704171)	(-1.9306590966573012, 5.2775025503575943)	1.0	z	0.987592
1	N	A	M	M					B	4	1	shapes	A	8	False	25	(-3.9477223839479016, -2.5627048136932338)	(-0.052790818455489941, 1.0250143292499008)	(6.0979059812563392, 8.1271306717243306)	(4.9826353383038189, -4.9416753655822045)	1.0	slash	0.777477
2	N	A	B	N	B	A	M	M	N	8	0	shapes	N	8	True	25	(1.9903254277604532, -0.54399165544792716)	(1.0597519099157342, 4.6791010180425516)	(3.0108491605558054, -8.7122996212955801)	(7.7271441632096192, 1.0463909637873563)	1.0	z	1.00097
3	M	A	A	N	M	B	N	B	N	8	3	shapes	N	8	True	25	(7.0235099068992515, 6.1319422482066965)	(-5.9991487226676616, -4.0867427617862386)	(1.6999372593026418, 6.6556928374676083)	(7.8198806817131725, -0.78868281229505222)	1.0	z	0.566723
4	N	A	A	M					N	4	3	shapes	M	8	False	25	(1.8646961905674999, -0.10447256738667043)	(7.0076656183767341, 0.45370994391010555)	(-7.8233009615850193, 2.2732603337214723)	(-3.8608680136687488, -6.4913236558174408)	1.0	slash	0.782343
5	N	A	M	M	N	A	B	B	B	8	7	shapes	B	8	True	25	(2.6239714307589743, 7.6545363234286832)	(-3.2519534547759035, 5.8025254916674367)	(-5.7590483458453896, -1.6766074024749269)	(-3.7074440649639682, -7.5903776446108822)	1.0	slash	1.17393
6	N	A	M	A					B	4	3	shapes	A	8	False	25	(6.9673558205914095, -3.2551701670196769)	(-2.9441212109848429, 0.33712525090972711)	(-3.4850327310419846, -6.1184739456020925)	(7.0589731789749592, 3.2709987796661917)	1.0	slash	1.93556
7	N	A	N	M					B	4	2	shapes	N	8	False	25	(-3.140875475948711, 4.1596317739909558)	(-4.8953365497092189, -1.7590137632507101)	(0.87294667733422493, -7.57428838207555)	(7.1275660088634734, 7.4300862678282229)	1.0	slash	0.949186
8	M	A	B	A					N	4	1	shapes	A	8	False	25	(3.3329873792085323, 8.2252048077050794)	(2.7308855239098051, -8.5005685423463859)	(-7.7958680745013762, 2.1946474251304906)	(-2.7545631824990418, -2.0247898597026683)	1.0	slash	0.632883
9	N	A	M	M					M	4	2	shapes	M	8	True	25	(2.6083174521700805, -6.5938856854147563)	(-4.6131542578625835, 3.5668638418069047)	(3.6110790688215921, 3.4094236250861965)	(-2.7151305578540379, -2.8284693255160978)	1.0	z	0.666571
10	M	B	N	A					A	4	3	shapes	A	8	True	25	(-3.8498011963399588, 2.0463930414707736)	(7.4931752915534844, -6.0708498758809366)	(-8.2900122274443451, -6.675296001977773)	(5.1529228234944124, 1.7908918191145471)	1.0	z	0.862114
11	N	A	B	B					N	4	2	shapes	B	8	False	25	(-2.4543643641915267, -8.0925149750538186)	(-1.7991284262195419, 3.5826824665157311)	(7.4736430628659996, -2.6827367114158918)	(0.8951330031419662, 8.0791801768478422)	1.0	slash	0.683865
12	M	B	A	N					M	4	2	shapes	A	8	False	25	(-5.8986664783272156, -3.1949847382786354)	(-4.126664154091654, 5.6762264946827852)	(0.9013026558288022, 5.8501975574310201)	(8.7235860874938602, -1.4929655761609792)	1.0	slash	0.589585
13	N	B	A	M	N	B	M	A	B	8	0	shapes	N	8	False	25	(-6.9162428456741996, 7.6632614788666089)	(-8.6099427354046867, -5.9796245312811056)	(-1.3877563187462387, 4.2438563799060329)	(-0.10826813929305601, -0.49439864991881244)	1.0	z	1.67701
14	M	B	M	A	N	N	A	B	A	8	6	shapes	A	8	True	25	(3.8575529367730486, -4.1538932295739359)	(5.6745295593172571, 8.0313416209192035)	(-5.3201938250199792, 1.3890521354195862)	(-7.4035937120369617, 5.6058257865263474)	1.0	z	0.758618
15	N	A	B	B	A	M	M	N	B	8	1	shapes	A	8	False	25	(0.62900310604940302, -2.6688767399652287)	(-6.0700762720154229, -8.5724389149982443)	(7.1716099109644542, 0.62536632060066211)	(-1.2226066370548576, 1.0085376214394977)	1.0	z	0.746401
16	N	A	A	M	M	N	B	B	A	8	0	shapes	N	8	False	25	(-7.4679325621542629, -3.5844773595328254)	(-0.64581642170493048, -1.9232524425877537)	(1.1039063477469782, -8.1398245085429384)	(2.5284980106994315, 3.958825067271885)	1.0	slash	0.989996
17	M	A	N	A					M	4	0	shapes	M	8	True	25	(-7.4316949642771046, -4.5561119756598378)	(-7.4453462389913385, 6.2751474198669133)	(3.6301658240026651, 1.9911141748029237)	(4.9484212663934048, -8.3782440834757654)	1.0	z	0.687513
18	N	A	A	B					B	4	3	shapes	B	8	True	25	(-7.034176231163868, 4.6063371270537647)	(0.86688808123628469, -0.71719844178200098)	(2.0748594625993686, 5.9902210835882208)	(-6.6064580331664118, -1.5078975888964568)	1.0	z	0.647394
19	N	B	B	M	N	A	M	A	B	8	2	shapes	B	8	True	25	(-2.1769985603674895, 5.067227725670854)	(4.4217810837828768, -7.5745485730082418)	(6.0064402360272524, -0.53523713889225277)	(-4.8358795225550679, -4.3415988008124442)	1.0	z	0.562964
20	M	A	B	N	A	B	N	M	A	8	5	shapes	B	8	False	25	(8.6567415488193511, 2.3778613484197155)	(4.080507346505172, -8.621058638691995)	(2.5617419596110942, 2.1156053775262258)	(-0.11296966801406505, -5.6447117556832893)	1.0	z	1.23867
21	N	B	N	B					N	4	2	shapes	N	8	True	25	(5.1624848569266799, -0.20445340695181891)	(-6.5295190931870026, -2.6212164724674967)	(-3.2576515955857825, 1.8748206268617817)	(0.28546600271780953, 6.1925832505452654)	1.0	z	1.42235
22	N	A	B	B	N	A	M	M	M	8	1	shapes	A	8	False	25	(3.843339126995021, 5.617455723903138)	(2.7165726451403405, -5.6356709147963198)	(6.1665220670221785, 0.51604160045699743)	(0.25656299884961875, -1.703696433139676)	1.0	slash	0.981909
23	N	A	B	M	M	N	A	B	M	8	3	shapes	M	8	True	25	(4.4180363938184986, 2.8004800873208673)	(-5.9246706371883322, -6.6417945166680692)	(-4.0716085050776254, 8.5836369223592861)	(-1.0911824918588051, -4.1922781146091577)	1.0	z	0.613816
24	M	A	M	B	B	A	N	N	B	8	2	shapes	M	8	False	25	(0.90384447100998244, 4.3858319073804015)	(-5.0710427437318, 6.5445039882487208)	(7.4244271834329751, 1.5580936518788189)	(-6.4447509989884262, -1.4022183956872762)	1.0	slash	0.783182
25	N	A	A	B	B	M	M	N	A	8	1	shapes	A	8	True	25	(-3.1607966533087568, 5.7550754876325723)	(8.6377343403873574, -7.1173648625862755)	(-8.0642212717794806, 5.6229186569456058)	(7.782117277137317, 1.4302308978948268)	1.0	z	0.678838
26	M	B	M	N					N	4	1	shapes	B	8	False	25	(6.7880596710258114, -2.2884846809613499)	(-8.7426439329161028, -0.13831732788349704)	(-1.7127801856700948, 1.7264160064738228)	(1.0032503673455562, 7.6704107004840232)	1.0	slash	0.704503
27	N	B	M	A					A	4	3	shapes	A	8	True	25	(2.4150027442164248, 4.7127228539867296)	(-1.1497766051259246, -7.928396034759885)	(-8.5895307168746395, 7.6617624595658995)	(2.5601142094042064, -3.9701542968830621)	1.0	z	0.598358
28	N	B	N	A	A	M	B	M	M	8	0	shapes	N	8	False	25	(7.2989609065410761, 4.9521198348571289)	(1.6409655688850506, 8.5605951283000792)	(-1.4235178571199745, 3.7574396524454468)	(-7.6836547396445631, -8.3676043468411905)	1.0	slash	0.701829
29	N	A	N	A	B	B	M	M	A	8	3	shapes	A	8	True	25	(-1.1827242292084872, -6.9299297617654618)	(0.56901574011225797, 2.1914884333213021)	(5.6761907775264078, -0.55518735012461384)	(3.9241672898199891, 7.3760373806776798)	1.0	z	0.541623
30	N	A	A	M	M	N	B	B	A	8	7	shapes	B	8	False	25	(-6.8835112863224692, -6.9974415854460386)	(-2.5964747310072376, 5.7789784669824229)	(2.4248530401697828, 4.3114036351694551)	(-8.3629140864060236, 0.39098859896452787)	1.0	slash	0.805237
31	M	B	A	M					M	4	0	shapes	M	8	True	25	(-6.645124808634713, -4.6101415551486218)	(-7.0219082438596176, 4.5504348582402123)	(0.53725411376597165, 3.4528308384312023)	(2.4785037452626852, -6.9375875523340405)	1.0	z	1.03875
32	M	A	B	B					M	4	0	shapes	M	8	True	25	(4.9290152111172727, 4.2310382105037654)	(-2.918347166975976, 3.8879543635902323)	(-8.2100507700999898, -0.76179766550912831)	(2.8301481354874536, -4.4416026995831617)	1.0	z	0.584576
