TrialNumber	stim0	stim1	stim2	stim3	stim4	stim5	stim6	stim7	stim.probe	ttl.stims	corr.num	trial.type	stim.corr	block	match	Subject	stim.pos0	stim.pos1	stim.pos2	stim.pos3	ran	resp	RT
1	M	A	M	B	B	N	N	A	A	8	1	shapes	A	Practice	True	31	(-3.7500632544596311, 7.1083976993553541)	(-1.6032759517416189, 2.0424306295834693)	(0.91973404252833646, -6.2897730482620702)	(3.9213718989634696, 2.5711712382800211)	1.0	slash	3.71491
2	N	A	M	M	B	N	B	A	A	8	1	shapes	A	Practice	True	31	(3.2235722261976445, 1.1185191392726921)	(-3.7035469187772341, 5.7333583496699863)	(-1.4839757137642522, -0.95447193025081578)	(-8.6938802594379805, -0.3294825665154395)	1.0	z	1.93653
3	M	B	N	B	N	M	A	A	N	8	6	shapes	A	Practice	False	31	(-0.26845471462898018, 8.119643155610337)	(-3.6845668175460515, -7.7709321195116292)	(3.7100006054361732, -4.1405428410365976)	(-7.3586751098660672, 0.90609471297415745)	1.0	slash	4.08983
4	M	B	N	A					N	4	2	shapes	N	Practice	True	31	(-3.6191633814082369, 4.3881792324929467)	(1.2895122007450546, -7.4882188839875221)	(2.9111619349742934, 6.809456427852556)	(-4.4513407583124502, -8.6852075499967167)	1.0	z	1.72722
5	N	B	B	M	N	A	A	M	N	8	1	shapes	B	Practice	False	31	(2.7432546197936585, -2.9107623521304209)	(7.3727007926834176, 6.7158138807839389)	(-0.29769823635213299, 7.9364121028005776)	(-5.8183043588444852, -8.7454150009038294)	1.0	slash	1.94694
6	N	A	N	M					M	4	2	shapes	N	Practice	False	31	(-0.85991317017235147, 4.6394487623776026)	(2.2895228495163522, -4.6146656521233584)	(3.6938162150323883, 6.0741215286878134)	(-2.9913089751477697, -0.61287980354564908)	1.0	slash	2.20845
7	M	A	N	N					A	4	2	shapes	N	Practice	False	31	(3.2602793469175282, -1.2500730325951572)	(-8.23847621949397, -2.4544475287628167)	(-1.2974040125609161, 5.1392817238702495)	(5.7176528277331755, 5.0039299023393031)	1.0	slash	1.75199
8	N	A	A	N					A	4	1	shapes	A	Practice	True	31	(-7.455349370283737, -1.3927400773775611)	(1.5702416941494128, -6.1232930012660072)	(-5.2154625012947404, 4.7624770620995527)	(4.3277338211985281, 4.3828478174388117)	1.0	z	3.84351
1	N	A	B	M					N	4	2	shapes	B	0	False	31	(3.6493223285849652, -1.3178614647692948)	(-4.6220072827920315, -3.7267004132200405)	(-7.6906969604026232, 4.1447290776472858)	(4.8415404741162735, 6.734073644108749)	1.0	slash	2.00555
2	N	B	N	B					N	4	2	shapes	N	0	True	31	(0.91717821170845859, -0.69292414766795574)	(4.7840449296748453, 1.7851902706183509)	(-1.3955696221565921, -4.7759207236935257)	(-2.2303329705003812, 3.8158472348079346)	1.0	z	2.43131
3	N	A	A	M	B	N	B	M	B	8	1	shapes	A	0	False	31	(4.4047273884019376, -6.1043053036760035)	(-1.649040672466624, 5.0946986624749968)	(4.9009855196425818, 2.0961479480438179)	(5.3063374447731739, 8.0481010217602993)	1.0	slash	1.92289
4	M	A	A	B	N	B	N	M	N	8	4	shapes	N	0	True	31	(0.64598535428651438, 0.5764679567319817)	(-7.0890381557713198, 3.5797592005099172)	(4.4813460404040164, -8.0469768777176895)	(6.2530779100793534, 7.163539227374871)	1.0	slash	1.18047
5	M	A	N	A	N	B	B	M	B	8	1	shapes	A	0	False	31	(8.3890286452402307, -3.3808655749408727)	(7.7404881478823206, 5.2404885522031925)	(4.4932514199806235, 0.38996335929621928)	(-6.5835365152316809, 3.8635895998016121)	1.0	slash	0.878091
6	M	A	A	M	B	B	N	N	N	8	4	shapes	B	0	False	31	(-7.0953511695516882, -6.5416636555064436)	(0.56371574257948254, -5.4533347012865745)	(1.0909873992172923, -0.52161167571164313)	(-3.5757960875613257, 1.6782793030792256)	1.0	slash	1.13774
7	M	B	A	A					A	4	3	shapes	A	0	True	31	(1.78075195278943, -1.8967016540747892)	(8.5975886269412278, 6.200066661750002)	(-1.0512711162937158, -5.4195745112402332)	(-2.6996776181296012, 6.4498054005412335)	1.0	z	1.19935
8	N	A	B	A					N	4	2	shapes	B	0	False	31	(7.181227171335804, -2.375222861670812)	(-8.729659626073758, -5.3567520633403287)	(-7.7550339756789572, 2.7929314991803729)	(4.218592781486505, 2.1111791005352618)	1.0	slash	1.22496
9	M	A	B	M	N	B	A	N	B	8	0	shapes	M	0	False	31	(6.3765545829162082, -1.5760018625984999)	(-3.6219773516805924, 2.2019145007548975)	(3.2195057790258854, 5.0679898742535023)	(-4.7909001411262082, 7.0603087436972753)	1.0	slash	2.14215
10	N	B	A	M					A	4	2	shapes	A	0	True	31	(1.2656614522691658, 1.6934773356153414)	(-6.3323077988370393, 2.2127602408086453)	(-0.52337833275008094, -5.5989309519298578)	(4.9961200011952602, -0.20682106121439858)	1.0	z	1.35592
11	M	A	A	B					A	4	3	shapes	B	0	False	31	(2.1701139394645903, -2.5278844196983234)	(-0.78604292589244995, 1.3356663666364259)	(-5.591954751759876, -4.1251238524034797)	(6.9765647382464628, 5.4790119682841194)	1.0	slash	1.57368
12	N	A	N	A	B	B	M	M	M	8	1	shapes	A	0	False	31	(8.4843776863558418, -3.597174070731902)	(2.7474402175535761, -1.4178179142611773)	(-3.165753171505596, 1.9401155147956111)	(4.8853599033829251, 2.8176138717346184)	1.0	slash	1.27929
13	M	A	B	A					M	4	0	shapes	M	0	True	31	(-1.9478106818953149, 4.4494256307332236)	(2.3484668387144652, 0.97570199924560441)	(-8.3547945912228663, -6.8045341518305458)	(8.4968906089215146, -6.342132094625244)	1.0	z	1.62488
14	M	A	M	N	N	A	B	B	A	8	5	shapes	A	0	True	31	(8.0305214446700823, -0.87939175150298254)	(-2.2604314729528747, 3.6354935110812168)	(-4.2070885810988745, -0.17899655875923948)	(2.1464870371989999, 5.9096018641168229)	1.0	z	2.71056
15	M	B	N	B	N	M	A	A	M	8	0	shapes	M	0	True	31	(4.5428672741867864, 4.9802066463876802)	(-5.8352003982795253, 5.0915889041721805)	(-4.675359542137052, -5.3256052082804839)	(6.2187297100222025, -7.7711991495452137)	1.0	z	1.72714
16	N	A	B	M	M	N	A	B	A	8	1	shapes	A	0	True	31	(3.551758511108984, 2.7401617040167157)	(5.4143605823802226, -3.1204273499793045)	(3.9416443147426179, 8.2280520634111944)	(-2.9652336698842374, -3.0318687663863582)	1.0	z	1.89368
17	N	B	N	M	B	M	A	A	A	8	6	shapes	A	0	True	31	(-1.3956085161943488, -4.5664290350954033)	(2.5515701405529398, 3.2373439505322441)	(-5.5492025945720238, 6.4676117011522543)	(8.1247440500894399, 0.98355560018665855)	1.0	slash	3.46121
18	M	B	M	N	B	A	N	A	N	8	6	shapes	N	0	True	31	(5.4438816183458663, 5.1122412769387218)	(1.3116901246217996, -2.8388897251148482)	(-7.1243510704578883, -4.4666476144200935)	(-4.680811196890998, -8.4442869329476711)	1.0	slash	1.28239
19	M	A	M	B	B	A	N	N	B	8	2	shapes	M	0	False	31	(8.208070013486104, 3.132104090268955)	(-7.5512088939181918, -7.1852035575118203)	(3.2645120484614409, -2.4293821061550078)	(4.457559787368309, 7.1555671931888387)	1.0	slash	2.62027
20	N	B	A	M					B	4	3	shapes	M	0	False	31	(-1.498367833549584, -5.5857214365252474)	(6.2296366670435344, 3.9534772723411731)	(-5.8802705586558064, 2.1547642486402587)	(6.7453467042714959, -3.625638125599397)	1.0	slash	0.985821
21	M	A	M	A	B	B	N	N	N	8	7	shapes	N	0	True	31	(2.4344025088201757, 2.6394412998860659)	(-6.7354858455339066, -5.5257085565672242)	(8.0831392904867094, 8.418861412413527)	(-5.6609855101508106, -0.17097506957348152)	1.0	slash	1.6492
22	M	B	A	N					M	4	0	shapes	M	0	True	31	(-1.2927396893273579, -4.6860115112252343)	(1.3158092826368293, -8.0845278529039621)	(2.9546226022291187, 1.8782548484198607)	(-1.7877813900000197, 3.2377223141115863)	1.0	z	1.35288
23	N	B	M	M					A	4	2	shapes	M	0	False	31	(0.13047558494735156, -4.192951773243534)	(0.95721351281077993, 3.690948783014635)	(-3.3970779062754728, 5.6058296565594627)	(-4.1963686179776873, -4.1713323332652319)	1.0	slash	1.18052
24	M	B	M	N	B	N	A	A	N	8	6	shapes	A	0	False	31	(5.4286940770419676, -7.1057198854244312)	(-2.1428273571182475, -4.5599493676989331)	(-0.95518092234354235, 6.267947122552318)	(-7.1916690671153818, -0.73712988813253766)	1.0	slash	1.28645
25	M	A	M	B					M	4	1	shapes	A	0	False	31	(3.103210152711835, 2.7946869853671341)	(-6.6596491352178546, -1.0520575058546822)	(3.0069567100566932, -5.1370003111678759)	(-4.5368428034776604, 3.3473004285115859)	1.0	slash	1.20789
26	M	B	B	N					B	4	0	shapes	M	0	False	31	(7.7647256236787392, -5.347401606796657)	(-7.4728386285969899, 6.0846672514391873)	(-7.5929276339029634, -6.9036217191677016)	(5.8853915064586904, 3.0697019426286332)	1.0	slash	1.40742
27	N	B	M	M					B	4	0	shapes	N	0	False	31	(-4.5668504210030463, -5.2225163290602454)	(4.1616012605279966, 4.2890500474414566)	(-6.4489116489366296, 5.9005288654741186)	(4.0428778048094145, -2.9425357821949847)	1.0	slash	1.45511
28	M	B	M	A					A	4	3	shapes	A	0	True	31	(6.7026201574221602, -8.0303859204631181)	(5.8495829632268705, 8.4800060647577276)	(-1.3558308714885507, -5.1324567472211182)	(-2.9557663908119709, 5.879105187585802)	1.0	z	1.86074
29	N	A	N	B	M	M	B	A	M	8	5	shapes	M	0	True	31	(1.8789497824367238, 5.7347817475174292)	(-1.975925742681393, -0.92718481852917733)	(-4.0554578871022864, -7.2169922927920869)	(1.5656252258182928, -4.0878945141685952)	1.0	z	1.71777
30	N	B	N	M					N	4	2	shapes	N	0	True	31	(8.4475350707083265, 8.4522522422905091)	(-3.3221322895820347, 2.7130696636115186)	(-1.4497038823448438, -3.5816757838880369)	(2.2277021376839556, -7.7028980848793793)	1.0	z	1.304
31	M	A	N	B	A	M	B	N	N	8	4	shapes	A	0	False	31	(8.0904022690655317, 0.50329245482936535)	(-5.2459958144719607, -6.8615454483435077)	(-5.3461097220545657, 2.371614714308123)	(-6.9409804227141834, 6.9851650010991957)	1.0	slash	1.13532
32	M	B	B	N					N	4	3	shapes	N	0	True	31	(1.6313933474867355, -8.3283622038517056)	(-5.7863761508500353, 7.2459142899198437)	(-1.3421748765450054, -1.9486032962626645)	(7.751058160370647, 8.6248059856434587)	1.0	z	1.29513
1	M	A	N	A	M	B	N	B	A	8	6	shapes	N	1	False	31	(-4.4596144615026851, 5.0681715741310729)	(-7.9698650467691667, 2.1423795246634203)	(-7.7380241159015899, -5.5974730325447393)	(6.1615168191798482, 6.5723186499629271)	1.0	slash	1.9565
2	N	A	M	M					N	4	0	shapes	N	1	True	31	(-2.1844260469300538, -7.292640992522899)	(2.2854612306548265, 1.804733169735119)	(8.6865870192875931, -3.4170652186490162)	(-5.6546467139965948, 8.2858826048408076)	1.0	z	1.68831
3	M	A	M	B					B	4	3	shapes	B	1	True	31	(1.6534979881310417, 8.1201227450009057)	(-2.568793075728073, 3.6135145282793122)	(-1.0098646652463978, -6.1329094528367154)	(6.054403506712962, -5.5662723633822901)	1.0	slash	1.43976
4	N	B	N	A					B	4	0	shapes	N	1	False	31	(6.1886816028946221, -5.8725793885221975)	(0.75852720919371563, 0.68240729171651537)	(-6.0543067735609224, -1.0839926672245701)	(-7.8335568305866561, 4.9541674224170347)	1.0	slash	1.47348
5	N	B	N	B	M	A	M	A	A	8	7	shapes	A	1	True	31	(-0.4135287628775437, 0.53398425612498279)	(3.5703817813301661, -7.8695522002724481)	(-0.47297940447643327, 4.5373938105057174)	(3.5191734260277325, 6.6151992031264637)	1.0	z	2.48689
6	M	B	A	M					M	4	1	shapes	B	1	False	31	(-0.50097448490882179, -4.302085528107626)	(8.4690012696325638, -7.6672439867153237)	(7.0194692379463142, 0.15279893969740321)	(-4.7566088317064326, 2.6594294973855241)	1.0	slash	1.54464
7	N	B	B	A					A	4	0	shapes	N	1	False	31	(-3.2026972187511138, 8.3147631336945871)	(0.68611207941848384, 5.0086308673976578)	(-7.5096029382084, -2.4570990757166182)	(0.87589641414172092, -1.6981708631909154)	1.0	slash	1.43826
8	N	B	M	N					A	4	0	shapes	N	1	False	31	(-1.4316113260649903, -6.103063149451077)	(0.30769995676917539, 2.5083631388556515)	(3.4141905801448758, -0.6709749965646683)	(-7.6362898569960791, 1.7287275117973877)	1.0	slash	1.48775
9	N	B	B	N					N	4	0	shapes	N	1	True	31	(4.1527924245474441, 3.2810938833602101)	(8.7048433303925492, -7.2307545196214429)	(-7.3108287835978825, 1.6312357452291444)	(-7.2909557267086225, -4.736933418793841)	1.0	z	1.44937
10	M	B	M	A					B	4	3	shapes	A	1	False	31	(4.3128571625557264, 6.206559261069188)	(-4.6764659724624629, 2.9062754865009168)	(-0.79746839395791547, -5.4125544412769786)	(4.3329688149135137, -5.4338944882170424)	1.0	slash	1.26504
11	M	B	N	N					N	4	3	shapes	N	1	True	31	(-2.5260401735811016, -2.3998950508518746)	(2.1173811875742157, 4.0165821990572521)	(-7.5676705252484684, 5.5020644356982107)	(5.1257656963618352, -0.014461325123486191)	1.0	z	1.15169
12	N	B	M	N	M	B	A	A	A	8	7	shapes	A	1	True	31	(-6.6856829586889068, 6.7850048968468712)	(-4.795882102131019, -0.62689405093341577)	(1.0035121418145554, -4.8651381245507892)	(8.4002291332720631, 5.0335699574411272)	1.0	z	1.31611
13	N	B	M	M	B	N	A	A	B	8	7	shapes	A	1	False	31	(3.3558535437874504, 1.2804925671478049)	(1.2292828136066163, 6.1491540053347986)	(-7.5679917608907328, 2.4901107327270697)	(-1.5610210085530847, -8.6701036677842005)	1.0	slash	1.21778
14	M	B	N	A	A	B	M	N	B	8	4	shapes	A	1	False	31	(-0.3563929779395334, -8.1977755705225999)	(2.1990220945992824, 4.9614872655741884)	(7.5833009511903633, 8.1715800339325533)	(-6.059798176014759, 1.5610157708256391)	1.0	slash	1.10755
15	N	A	A	M					B	4	3	shapes	M	1	False	31	(7.0028366379444229, 6.4696750008469195)	(-1.5499252055383739, 5.7044134872943637)	(2.4042672541214802, -5.4050485156988151)	(-2.1919803477188005, -4.881454148924619)	1.0	slash	1.66317
16	M	B	N	B	N	A	A	M	A	8	6	shapes	A	1	True	31	(-1.3744129817392103, 2.0818130020500281)	(3.1559426546879799, 5.9438191847084045)	(-7.2192300960552771, 8.5106029986201648)	(2.8878338545414515, -4.8595867920948512)	1.0	z	1.5186
17	N	B	B	N	M	M	A	A	A	8	6	shapes	A	1	True	31	(7.7822182927572037, 1.0441998131815815)	(-4.4268531372068507, 1.4789757301528006)	(-2.0925813165096336, -7.8699674247078466)	(0.33479838721382293, -4.5921001544738127)	1.0	slash	1.78842
18	M	A	N	M					A	4	2	shapes	N	1	False	31	(-0.084976418474250082, 2.1396814261516219)	(0.58948505583356159, -8.6291904351685655)	(6.2702037670308819, 6.0807325570638628)	(-7.5086981438678864, -2.7143762474485458)	1.0	slash	1.15197
19	N	B	B	M	M	A	A	N	B	8	6	shapes	A	1	False	31	(8.4108850621136924, 7.5267788541678229)	(-5.7808470668722407, -5.4784707262109027)	(-5.6083928795623983, 0.77249250085435683)	(3.6755505075600432, -4.5889951837945766)	1.0	slash	1.01354
20	M	B	M	A	A	B	N	N	N	8	2	shapes	M	1	False	31	(0.33284621053703667, -7.6688059358012133)	(7.1969454036527623, -3.0309545131163214)	(2.5472414687176776, 4.1085040308209777)	(-5.4792106650435937, 4.6389236278668982)	1.0	z	1.68709
21	M	B	M	B					B	4	3	shapes	B	1	True	31	(-3.5137949021300283, 6.9251340879983943)	(-0.69029993856338834, -3.3074482160262946)	(1.9813385679246043, -6.9374343623329935)	(5.0340718415787258, 7.0151336111554077)	1.0	z	1.76073
22	M	B	B	N	M	A	N	A	B	8	0	shapes	M	1	False	31	(-4.2143569185636647, -5.8596083236507557)	(-1.0956924257654101, 1.6675680922889224)	(6.3686098635154345, -5.645832618780533)	(7.0371539836637531, 2.4631908922484769)	1.0	slash	1.14162
23	M	A	A	M	B	B	N	N	N	8	6	shapes	N	1	True	31	(-2.3713015578503178, 1.0287513735327103)	(-6.851561418715324, 4.3282829264657394)	(6.1953429530463602, 7.5782301340093596)	(6.5064930944091657, -5.6655615628763405)	1.0	slash	1.23792
24	N	B	N	B	M	A	A	M	A	8	7	shapes	M	1	False	31	(-7.8554261962131733, -4.9986626785064168)	(3.0282948106088305, 2.4443699786318938)	(-5.8175131003437741, 2.5462868487982089)	(-3.6663316765773422, 8.0846850980464104)	1.0	slash	1.32951
25	M	A	N	M					N	4	2	shapes	N	1	True	31	(6.3992095695340812, 0.80891488555003122)	(-4.3283453227792545, 8.4596315037513676)	(-3.7440336435184163, -6.5309510961269241)	(4.7817374166850684, -6.3075586533841559)	1.0	z	1.56915
26	N	A	M	B	A	B	N	M	A	8	1	shapes	A	1	True	31	(-6.7730316574427851, 4.5416197019202027)	(0.14780866666450976, 5.4181199751148359)	(8.6472898312272761, -5.3737346335097556)	(-1.8014027405989212, -4.0229287404528842)	1.0	z	1.52278
27	M	A	B	A	B	M	N	N	M	8	0	shapes	M	1	True	31	(-7.7266002902438569, -2.5325761024487514)	(-6.1710692642483611, 7.6254919800062915)	(1.1391395389192613, -7.5258886420455715)	(7.2879425809603298, -3.3529531150559073)	1.0	z	1.8524
28	M	B	N	N					M	4	2	shapes	N	1	False	31	(-6.0368215304768231, 3.2300290593486967)	(7.4976899060054905, -6.4018256931698296)	(3.9345348479345148, 0.33061896544161229)	(-3.7426565402170668, -4.808145378064598)	1.0	slash	0.859724
29	N	B	M	B	A	M	N	A	M	8	2	shapes	M	1	True	31	(-8.6027991770510006, -2.7197385794286024)	(5.5315612501368587, 3.7248155890220254)	(7.8104525915592191, -3.8723491580580518)	(8.6853023013531434, 7.0231347663648496)	1.0	z	1.36535
30	M	B	M	N					M	4	0	shapes	M	1	True	31	(-7.5379487525966526, -8.5805367600800935)	(6.1837731338673585, -3.0847221277519186)	(6.9559545597595438, 7.571066499250886)	(-8.6069868233127238, 2.8882423230173746)	1.0	z	1.42325
31	N	B	N	B	A	M	A	M	A	8	2	shapes	N	1	False	31	(-3.5930845035499033, -0.17488438771703052)	(3.9158044730811845, -2.6290138941827221)	(3.6910002884582536, 2.5796632220995761)	(-8.5583953720619252, 6.5781639644614955)	1.0	slash	1.21277
32	N	A	A	B					A	4	1	shapes	A	1	True	31	(-0.53964052086804415, 2.307564340423891)	(-5.062495609205941, -3.2999572365987779)	(6.363808510398977, -4.7211671896979048)	(4.9573233801412506, 5.281839850427053)	1.0	z	1.28445
1	N	A	A	M					A	4	2	shapes	A	2	True	31	(-5.8390597374097943, 1.2731284970500045)	(2.0401734726986938, -8.3961965683864435)	(-6.296192197571866, -5.5867821249558247)	(1.5136881517358791, 3.6906501989033078)	1.0	z	1.25792
2	M	A	B	N					N	4	0	shapes	M	2	False	31	(-7.6694549864564863, 3.7272865617300095)	(-3.7837226980993837, -6.1523577492712285)	(7.0822436558048345, -6.6204277236994233)	(1.6494458768039948, 6.6890536712110595)	1.0	z	2.51142
3	M	B	B	M	N	A	A	N	M	8	0	shapes	M	2	True	31	(0.24730335765963396, -4.3003185527197356)	(5.164735913906437, 8.5775503409128042)	(-2.231550802360827, 5.0001794617659208)	(-5.0544664365765986, -5.2247052721526392)	1.0	z	1.4451
4	M	A	M	B					M	4	0	shapes	M	2	True	31	(-3.1047480078520122, -1.5252931463398687)	(-8.5021001252100277, 7.7413913840177564)	(6.7081324649669991, 2.1456878791667826)	(3.3462932873036593, -0.9208581339987667)	1.0	z	1.3068
5	N	A	N	M					M	4	1	shapes	A	2	False	31	(7.3529181301371693, 7.0397621103195238)	(-5.2480399012933461, -6.8698154745427704)	(-4.3038044052146995, 1.64757167342092)	(0.68367706807846673, -6.292882832302146)	1.0	slash	1.72832
6	M	A	B	B					A	4	1	shapes	A	2	True	31	(4.5188836363303242, 3.6348855942033165)	(-0.83544569803227198, 0.33603357519760024)	(2.8564997311053943, -2.1652843575787823)	(-6.7215599599689764, -7.3300042252342523)	1.0	z	1.28788
7	M	A	N	N					N	4	3	shapes	N	2	True	31	(-6.4963511061396142, 8.5318436585755286)	(-6.7277087341835315, -0.091002020438221365)	(7.1267292466895853, 7.3182330321708555)	(4.1693962191965106, -3.8552863775463946)	1.0	z	1.34315
8	M	B	N	M	A	A	N	B	N	8	6	shapes	N	2	True	31	(1.9584563183783725, 5.6110218533571032)	(-3.6899716822794755, -8.6496926879015525)	(-4.9163193625984452, -2.7740328965103496)	(6.6747224226283599, 3.0730143635832832)	1.0	z	1.43892
9	N	A	B	M					A	4	2	shapes	B	2	False	31	(8.5070380878179712, -6.7833150229383463)	(-3.3336408447799313, -7.44579773860678)	(5.0330385350441862, 6.4432846940308615)	(-8.605220553128424, 1.2964310445335947)	1.0	slash	1.71255
10	M	A	B	M					M	4	0	shapes	M	2	True	31	(-2.8718155286090026, -0.42307985077191468)	(4.1154438556726536, -7.8651926095093536)	(-6.5237261259852373, 5.4846777903525705)	(7.1431481134187003, 8.7021432374201382)	1.0	z	1.26037
11	M	B	A	M	A	B	N	N	A	8	3	shapes	M	2	False	31	(2.4674965459719846, 1.281470958330905)	(1.8131520345145677, 7.7740486461263636)	(-3.8854609094807842, 7.1147568064611608)	(-2.5768930902970366, 0.26851440080410427)	1.0	z	1.92405
12	M	A	A	M	B	N	B	N	N	8	5	shapes	N	2	True	31	(-7.0825298194465258, -1.1169079594450118)	(-1.3557672766392797, -3.1312224506223609)	(2.0437328043188856, 2.7201039877958664)	(7.3416058142828824, 3.2173278462392432)	1.0	z	1.40749
13	N	A	M	N	B	B	M	A	N	8	1	shapes	A	2	False	31	(-8.1981683169224837, -2.7980585796378259)	(1.7104501991049332, -3.2362173022866552)	(-3.1872890721021383, 6.0366517335077781)	(0.10409513993090336, 2.5481491003358023)	1.0	slash	1.1072
14	M	B	N	M					M	4	0	shapes	M	2	True	31	(-8.231497473654608, -2.9146720092177363)	(5.2434682565895461, 1.4664831043741557)	(-7.4149212107658098, 6.4836625950692532)	(4.0706800027997332, -5.6535809037805471)	1.0	z	1.04874
15	M	A	N	A	N	B	B	M	M	8	0	shapes	M	2	True	31	(-2.9621646991409287, 1.3632802776505901)	(-5.8808054952470421, -3.4737266754498686)	(1.078027249555161, -6.7940985189992515)	(-7.6553233349812615, 2.4588594354008322)	1.0	z	1.0663
16	N	B	B	M					M	4	0	shapes	N	2	False	31	(7.7661333682777389, -0.82809059314975464)	(-1.824987391874104, 0.84112880647057153)	(-2.6690717745175609, -5.3060538051020743)	(1.1822381684074355, 7.167619216958931)	1.0	slash	1.16069
17	M	B	N	M					A	4	1	shapes	B	2	False	31	(-3.628236249386112, -3.6200961232139779)	(2.7275968635633507, 8.085386618087238)	(5.9158081550318986, -0.53132501631390383)	(-0.31723885671629404, 0.28326470361576739)	1.0	slash	1.79355
18	N	B	M	A					M	4	1	shapes	B	2	False	31	(-0.15594898182161998, -6.6527918164430027)	(6.4350986520735578, 4.1574673489550698)	(5.7336883448839142, -8.4545892555027002)	(-0.41712048374549049, 8.5122497841728411)	1.0	slash	0.755153
19	N	A	B	A	M	N	B	M	A	8	6	shapes	B	2	False	31	(-4.1080720206383861, -7.8349079718660857)	(-1.7379854409707454, -0.30639266547112776)	(-4.7574062790784222, 3.7471275940625262)	(4.8248736125934695, 0.044452511777905102)	1.0	slash	0.838917
20	N	A	M	B	B	M	A	N	A	8	4	shapes	B	2	False	31	(-2.1715417231371621, -6.5708569710142708)	(4.0417228651929022, -5.0807598057904659)	(-0.55254182079580438, 3.5029271751506368)	(7.1611961338165564, 7.1009058580793241)	1.0	slash	1.06868
21	N	A	B	A	M	M	N	B	N	8	0	shapes	N	2	True	31	(5.6036345835976231, 4.1463393533547581)	(8.6101121936080176, 7.9404511566752483)	(6.3200840336148367, -7.8753560991782061)	(-0.45673499321747713, -5.9410266421607538)	1.0	z	1.10026
22	N	A	B	B					M	4	1	shapes	A	2	False	31	(7.4665451467224955, 7.305860977926514)	(3.4084981351207198, -1.6346287484846282)	(-0.76985198878933314, -4.7923402234993278)	(-6.7739209565369229, 5.4768777193590985)	1.0	slash	1.24982
23	M	B	A	N	B	M	A	N	B	8	4	shapes	B	2	True	31	(-0.41909131419112455, -0.48101454824581324)	(-8.2656101574686467, -5.8950178115264595)	(3.9060319566931323, -4.9732216095281618)	(5.4764387885397703, 4.8289872642917135)	1.0	z	1.61344
24	M	B	M	B					A	4	1	shapes	B	2	False	31	(-5.9432562516198431, -2.5703822982358453)	(-6.1717514015480734, 5.9731745658522097)	(5.8683797959672894, -1.7950903845799404)	(8.5535888469754582, 2.6470742149686579)	1.0	z	1.73306
25	N	A	N	M	B	A	B	M	N	8	5	shapes	A	2	False	31	(-1.6020514977914511, 3.6845078462081933)	(7.3686709047011476, -2.8395166016873956)	(-6.9361014223946054, -8.6626332055587358)	(-7.525483722367766, 1.1115137549395637)	1.0	slash	1.29269
26	M	A	A	B					M	4	0	shapes	M	2	True	31	(6.9617639548289425, -3.8027284687928145)	(-6.0275045314325251, 7.9595987889543025)	(1.2795083285139466, 7.8133333411735748)	(-4.5758548275734707, -8.5448204313316474)	1.0	z	1.72429
27	M	A	B	B	A	N	M	N	B	8	3	shapes	B	2	True	31	(-7.5861344862467579, 5.9534298544594204)	(6.2498771099713384, 1.3503355953743217)	(-8.3905802563082936, -1.662613668394096)	(0.09121048756909822, 6.5440298234073282)	1.0	slash	1.04581
28	M	B	A	M					M	4	0	shapes	M	2	True	31	(2.1224733448013371, 7.7266324422973049)	(1.4435367495853288, -2.3140104782242537)	(-3.2640208670774769, -3.0347888701455146)	(-8.4599465167441625, 7.3548372665293442)	1.0	z	1.30923
29	N	A	A	N	B	M	B	M	N	8	6	shapes	B	2	False	31	(2.6001986360293401, 0.12590743932709891)	(-0.62797271509052166, 6.0981653798429853)	(-0.91393895526758762, -5.2625210297966127)	(5.6805141516766113, -7.6695463033294375)	1.0	slash	1.04501
30	N	B	M	B	A	A	M	N	N	8	3	shapes	B	2	False	31	(-1.3660483553073126, -6.8357133868829409)	(2.6125067057100839, 6.9349281463126573)	(-2.5131460117605444, 2.8042769239651033)	(7.061521850476824, -7.7358444071157768)	1.0	slash	0.728726
31	M	B	M	B	A	N	A	N	A	8	4	shapes	A	2	True	31	(-4.9513284805430233, -8.0949194899281274)	(-0.25157043738823326, -2.51318702749262)	(3.2575508247721743, -6.8468070874312428)	(-8.7498808071052743, 7.6052381652292134)	1.0	z	1.38032
32	M	B	M	N	B	N	A	A	M	8	1	shapes	B	2	False	31	(5.683950903605357, -8.722075362435648)	(-0.74477558849802783, 4.873389261525519)	(3.7444177802147696, -1.2198492381639294)	(-4.2794044910312827, -2.6787785639764294)	1.0	slash	0.947994
1	N	B	A	B					A	4	1	shapes	B	3	False	31	(7.2915446398240817, -1.6374233635870894)	(5.9901171969369873, 2.6718497951000479)	(-8.3809006047480548, 2.5284649334303104)	(-5.9729910860193893, -4.4759029573518596)	1.0	z	1.28966
2	M	A	B	B					B	4	3	shapes	B	3	True	31	(-4.7565245129107874, 0.90620214562903811)	(7.8917937190061203, 2.2390646155392311)	(2.5886570645361449, -3.9567517711368438)	(-1.3169690000985002, -4.823462240839234)	1.0	z	1.37712
3	N	B	N	B	M	A	M	A	A	8	5	shapes	A	3	True	31	(8.5846262756895477, 1.8813607437941897)	(-7.4786184072377671, -1.9853785482674366)	(-7.7506523502788589, 4.408632665093112)	(3.6458191595533336, 0.68146333537419856)	1.0	slash	1.35503
4	N	B	B	M					B	4	1	shapes	B	3	True	31	(8.0084507370339111, -6.0081156331839427)	(5.4849496649926373, 3.361908238231603)	(-3.1942489171466981, 2.9696899389116957)	(-3.7405595446774615, -2.3154644320225932)	1.0	z	1.3505
5	N	A	M	M	A	N	B	B	B	8	2	shapes	M	3	False	31	(0.37608501149329143, 6.8023255288931193)	(5.0264606819141537, -5.3519779304746251)	(0.055622058263526952, 0.9036585126150225)	(-0.84027566836174294, -3.0848125594494382)	1.0	slash	1.10785
6	N	A	M	B	M	B	A	N	M	8	6	shapes	A	3	False	31	(1.5713489249811801, -8.501943953864501)	(6.2962835028992608, -2.6202338306932162)	(-8.1392233877452576, -3.4124326403403575)	(6.8351856272807439, 2.5451415883291926)	1.0	slash	1.37951
7	M	B	M	B					B	4	1	shapes	B	3	True	31	(-2.7025040951647528, 4.3896048716777347)	(-3.506067923398585, -0.090744929509558148)	(2.0626779901767485, 3.7548326304959279)	(7.8253834645263218, -1.8551790295395509)	1.0	slash	1.0973
8	M	A	N	A					A	4	3	shapes	A	3	True	31	(3.9636715477076603, -6.2819032148965297)	(7.9860834045218247, 7.3503119996882837)	(-4.2517907340798908, 5.6108245758741973)	(-7.1278528732708404, -0.57726897949195966)	1.0	z	1.18492
9	N	B	A	B	M	M	N	A	N	8	0	shapes	N	3	True	31	(2.1676323386393701, 8.3779518333491865)	(-8.1061439806146787, 1.7664049213843072)	(3.2315497045127373, -4.6445153824437044)	(4.4003204274587446, 3.1482155998488732)	1.0	z	1.47238
10	M	A	N	B	M	A	B	N	A	8	1	shapes	A	3	True	31	(-0.77459345985748307, -4.485235272816122)	(-0.20061224243306519, 5.8528207938806709)	(4.1703017153635678, 7.0386991876849923)	(2.1923695802167877, -1.6706012729805879)	1.0	slash	1.40594
11	M	A	M	N					N	4	3	shapes	N	3	True	31	(7.2521295278310234, 6.3603750977964353)	(7.993963768877272, -0.55234031035821474)	(-3.3929980754672391, -7.2272852460563257)	(-3.0603939966206255, 0.57721771484201412)	1.0	z	1.38366
12	M	B	A	N	M	N	B	A	A	8	7	shapes	A	3	True	31	(5.1045631589743117, 8.1629402090208281)	(-3.0024058830363662, -7.565996527760209)	(5.3908683452505635, 2.0608250661560223)	(6.0588163071634629, -6.0228220283265035)	1.0	z	1.1257
13	M	B	N	A					M	4	0	shapes	M	3	True	31	(2.5736370633928694, 6.8996663582557982)	(-1.3901768632666105, 4.7101524045411747)	(-2.0071001655333491, -4.0713741754255164)	(5.4177145457096447, -2.8979852662281091)	1.0	z	1.20294
14	M	B	A	N					B	4	0	shapes	M	3	False	31	(-5.1230538884403138, -7.6707514476343901)	(1.1584632110732365, 5.8247299729467663)	(8.5106409334337236, -0.55913831774894618)	(-4.0429043551566552, 0.47481987797781677)	1.0	slash	0.828502
15	N	A	A	B					N	4	3	shapes	B	3	False	31	(-3.1143338406215086, -5.8938530770827731)	(8.3292000217486084, -3.1022425550897017)	(-3.9642511867637484, 0.56519966382166231)	(8.335559818189779, 3.3082707006168803)	1.0	slash	0.984328
16	M	B	A	A	N	M	B	N	M	8	0	shapes	M	3	True	31	(2.1947443507682554, -3.992524944269829)	(-5.4036004127027741, -0.76826098168146384)	(-4.4602879081452169, -5.9303834593623961)	(5.0067276809839818, 1.2734465608265033)	1.0	slash	1.22396
17	M	B	M	A					N	4	2	shapes	M	3	False	31	(-5.7959409650938003, 4.4377160945255074)	(-8.4788693670924538, -2.2714627600476813)	(5.4588042975380482, 6.0556991939837985)	(5.6549066058608819, -0.97487273139332142)	1.0	slash	1.61153
18	N	A	A	M					A	4	1	shapes	A	3	True	31	(4.4218021899130537, -0.35064147840554583)	(-3.7105035139989022, 6.6893865190662218)	(-5.6153708760327783, -5.2358863312432611)	(0.28835447920912927, 0.14570602512469399)	1.0	z	1.13701
19	M	A	M	B	N	B	N	A	A	8	2	shapes	M	3	False	31	(0.81750808817077214, 2.5307278400904654)	(-4.4449274830131422, 4.8801489151575268)	(7.4773759207996164, 0.96531232687259916)	(-8.5558209009569008, 3.5996122699972801)	1.0	slash	0.960949
20	N	B	M	A	B	M	N	A	N	8	0	shapes	N	3	True	31	(-4.3502452218877909, 2.8827343309691926)	(6.5941695399332403, -2.4075624042036665)	(3.1556114670438742, 3.228965472731419)	(-0.99874414174704995, 0.6756747629510631)	1.0	slash	0.764363
21	N	B	A	M	B	M	N	A	B	8	1	shapes	B	3	True	31	(-5.5908709251698223, -2.1965837326329369)	(1.1646250907703379, -3.0679559771015716)	(-0.42971701034809229, 6.5607373148262322)	(5.8460689065524054, 6.1213186889548048)	1.0	z	1.21602
22	N	A	B	N	A	M	B	M	M	8	4	shapes	A	3	False	31	(5.1367267582946212, -2.5288413562878187)	(-8.5587930814058755, -7.6422586224256008)	(0.82689173442378561, -0.69901003830106134)	(-2.8530763349358104, -6.1323512297854883)	1.0	slash	0.961619
23	N	A	N	B					M	4	3	shapes	B	3	False	31	(-2.2865083718511903, 1.1673497350446542)	(5.3920221261256991, -0.22814649964695199)	(4.5448658158028401, 4.3564913572122475)	(-4.3910806323384151, -4.9464637109902458)	1.0	slash	0.883258
24	M	A	N	A					A	4	2	shapes	N	3	False	31	(8.7200204273681265, 5.5884218304048936)	(8.5013319228634536, -0.89454545850699052)	(-1.7865042495549526, -1.5218136067786618)	(-6.5284197215403967, 6.9210708685031435)	1.0	slash	0.531016
25	M	B	N	B	A	M	N	A	A	8	4	shapes	A	3	True	31	(-1.8661085339631551, 5.5738437137312999)	(-1.8970742185048435, -5.4798884245228612)	(-7.3232421900319187, -4.1205841060835695)	(-3.8586575484752652, 1.1360119893457092)	1.0	z	1.40653
26	M	B	B	A					B	4	2	shapes	B	3	True	31	(-5.8512702730861355, -7.2907401270228034)	(1.0221935864642457, 3.3108670732563077)	(3.9575150817707332, -4.6759609979573939)	(-1.5117642742106714, 7.2270835502339548)	1.0	z	1.44816
27	N	A	N	A	B	B	M	M	B	8	2	shapes	N	3	False	31	(5.6309292634617432, -1.8606259522968163)	(-4.6521524253396871, -2.3104820147598861)	(0.89563686400600062, -2.3217947800250238)	(3.8724383690520661, 2.9001444451404268)	1.0	slash	0.811719
28	M	B	B	A					A	4	2	shapes	B	3	False	31	(6.7643289616992668, -5.3396779755387129)	(-0.89399417570044371, -4.7561887294118463)	(1.726566708495989, 2.885717389048958)	(-3.5363340937479233, 0.18265556835557284)	1.0	slash	1.61158
29	N	B	M	B					B	4	0	shapes	N	3	False	31	(-1.3222720014299174, 5.3536535035472284)	(4.759169653115034, 5.944445850733592)	(5.7673241807256908, -1.1487577193803258)	(-1.2233380036417767, -2.7058273839628706)	1.0	slash	0.786878
30	N	A	A	N	B	B	M	M	A	8	3	shapes	N	3	False	31	(-7.6455367163647932, 3.7227229952720293)	(1.4050981206587601, -4.9822124385879363)	(-5.8089811336244397, -3.1809674070529619)	(8.6114429768066607, 8.6032482183125154)	1.0	slash	0.888613
31	N	A	N	M	B	B	A	M	M	8	5	shapes	B	3	False	31	(4.2982918964695127, 5.3992650006857641)	(-5.9516206260252513, -0.94687386109864224)	(-1.78855243071615, 6.412620684136531)	(7.2444352935224217, 1.8360638642559852)	1.0	slash	0.730414
32	N	B	A	M	B	M	N	A	B	8	7	shapes	A	3	False	31	(-3.7479007299249245, -2.0453586872638354)	(3.5073519851596089, -7.5357998761126508)	(-4.473663206972339, 2.9536030615723057)	(2.2801523870126914, 3.8490500268623542)	1.0	slash	0.599995
1	M	A	B	N	N	A	B	M	B	8	2	shapes	B	4	True	31	(-6.9041315106213874, -6.744249293772743)	(8.5748696523930263, 2.8103315328714853)	(-4.4152783829609392, -2.1606749700307528)	(-8.2188864183307988, 2.4320136621608093)	1.0	slash	0.679734
2	N	A	A	B	N	B	M	M	B	8	5	shapes	B	4	True	31	(-3.5130221038116494, 3.2605975428297231)	(5.9696770736908675, -4.8476316324640489)	(-3.8258171229265567, -8.7494089114231759)	(-7.3876861739103266, -1.5673039930940833)	1.0	z	1.30735
3	N	B	N	A					B	4	1	shapes	B	4	True	31	(5.9248526952504754, -7.491454104520944)	(8.3177951702875106, 7.8395614533327276)	(-5.1496581148454252, 7.3762677300244484)	(-5.203823304952838, -8.6893285653259866)	1.0	z	1.26899
4	N	A	N	M	B	A	B	M	A	8	2	shapes	N	4	False	31	(-8.3794915409333335, 4.985390231585983)	(-4.124945000394252, -2.5153531875010975)	(1.8879925923751539, -7.1894051415265476)	(6.6716446529847531, -7.0122446028737286)	1.0	slash	0.900477
5	N	B	M	M					B	4	0	shapes	N	4	False	31	(6.2997461755766633, -4.16516245435343)	(5.2541404998209273, 0.61081386557347273)	(-2.5518997938449139, -8.6811956948143205)	(-7.5802038135086676, 4.9467676902455562)	1.0	slash	0.864254
6	M	A	B	B	A	N	M	N	N	8	0	shapes	M	4	False	31	(6.1432253849474439, -7.0929320294432232)	(-4.6753987779066737, 7.0703546143975515)	(8.6598418943618185, -1.6161800875094334)	(6.538088190688871, 5.4403305559895347)	1.0	slash	1.18992
7	N	A	A	M	B	N	B	M	M	8	5	shapes	N	4	False	31	(-4.0001351482246417, 2.0662763141313008)	(6.0402082600933724, -0.88519386587815596)	(-4.2998381391908902, -5.5729213027623636)	(-8.2218173460259241, 5.8453763060468731)	1.0	slash	0.949637
8	M	B	A	N	B	A	M	N	A	8	7	shapes	N	4	False	31	(-8.7131715861234351, -6.0305884047036624)	(1.4095361434735736, -5.726243411049972)	(8.6818521277573524, -8.3876916148102652)	(-4.260983430772205, -5.4844278412022263)	1.0	slash	1.18918
9	N	A	N	B	B	M	A	M	N	8	0	shapes	N	4	True	31	(0.97287802848631166, -4.279831072339511)	(5.3676413108036556, -5.4169429650725078)	(-1.0257601157937115, 4.6168260351027826)	(7.2204965452779799, 2.9672645117764951)	1.0	slash	1.40452
10	N	A	A	B	B	N	M	M	B	8	3	shapes	B	4	True	31	(-0.56290554738914267, 7.2218133832858609)	(2.547125112656385, 3.999006459751465)	(-1.5133337607040058, -4.0039016181320344)	(-5.8423317882020314, -4.7365045765030196)	1.0	z	1.05647
11	N	B	M	A					A	4	3	shapes	A	4	True	31	(2.1273639652916359, 2.8219275466303397)	(7.2044815362290837, -8.0251270418482648)	(-0.071486643129546223, -5.6805834677437632)	(-8.3615282988635347, 3.9727477477401862)	1.0	z	1.19006
12	N	A	B	M					B	4	2	shapes	B	4	True	31	(4.7553893054692988, -3.0977660299324867)	(-7.0742159111812537, -7.1995872195608337)	(-5.9440584069903757, 7.4252974441767421)	(5.4165317672511186, 7.4139976865192452)	1.0	z	1.43372
13	N	B	B	M					M	4	1	shapes	B	4	False	31	(-5.3562370935652179, 2.1133347714939159)	(2.8398288202756437, -0.20295563470566691)	(-4.8565269451428303, -2.2548758248386669)	(4.9136724158490068, 8.6920376794134668)	1.0	slash	1.2052
14	M	B	M	B					B	4	1	shapes	B	4	True	31	(-6.9685518630136603, -8.6342714933160227)	(0.82120721595612345, 5.3252878241468373)	(2.4498405385835422, -1.0086654804036304)	(-6.3347741534548394, 8.2253459163860398)	1.0	slash	0.812955
15	N	B	B	N	A	A	M	M	M	8	2	shapes	B	4	False	31	(-2.2352561632008205, 8.7420003542706297)	(6.5263601081611622, -5.7571965229366846)	(-8.3407658995442358, 6.5490235278326079)	(4.1673916833120916, 2.0051722360404334)	1.0	slash	0.916545
16	N	A	M	M					A	4	1	shapes	A	4	True	31	(-6.5760501348152172, -7.0463887784741237)	(4.8299184001560143, -6.3623631496956872)	(6.7893146599338738, 8.1228175332159829)	(-6.8653236770525439, 4.1589182084448595)	1.0	slash	1.42414
17	M	B	B	A					N	4	3	shapes	A	4	False	31	(3.7035080340312909, 0.89772369704195931)	(-8.150358376473978, 1.0800008953807616)	(-5.348490223437218, -4.2665145595268914)	(4.6574730905299155, -5.4174084084553193)	1.0	slash	0.675741
18	N	B	N	M					N	4	2	shapes	N	4	True	31	(-8.4376481311486078, 3.8570142418350528)	(-1.2796255777445387, -1.088773322890316)	(2.0008679434590171, 4.8610940494453594)	(4.5288868845775827, -3.138085165679743)	1.0	z	1.30355
19	N	A	N	A	B	B	M	M	B	8	4	shapes	B	4	True	31	(8.123356871760901, -0.9226217293586112)	(-3.3552712146056844, 6.190996311429366)	(3.3051559206862287, 6.7095742861497278)	(1.6690534337625351, -3.8365921443002184)	1.0	slash	1.12502
20	N	A	B	B					M	4	3	shapes	B	4	False	31	(-1.2953174950648076, 6.4443627542706068)	(0.82957314753929978, -6.0143505773654535)	(-5.9130660720365427, -4.2190914277426801)	(4.5939535415475543, 0.86674221909172111)	1.0	slash	0.742713
21	M	A	B	B					M	4	2	shapes	B	4	False	31	(4.0643339587457401, 4.2984869288810046)	(-6.5148295352391914, 4.9774711529737399)	(-7.2120191562957556, -4.6955227553641512)	(0.011684314933155804, -0.40292720172669583)	1.0	slash	0.612359
22	M	A	N	B	B	M	A	N	B	8	0	shapes	M	4	False	31	(-7.9968600298718311, 3.1441711566064505)	(7.6744001245882991, -1.4815056904653874)	(-0.4825615195081614, 3.8688297299306278)	(-1.5672398418033966, -8.2019982801722229)	1.0	slash	0.596116
23	M	B	B	A	M	A	N	N	N	8	6	shapes	N	4	True	31	(7.807575228181264, -7.5682433500604827)	(-7.0117619104000619, -4.6083478738817467)	(3.0800091999713946, 2.9577758545222856)	(-0.77913564309422245, -6.7218326929842203)	1.0	slash	0.897558
24	M	B	N	N					B	4	1	shapes	B	4	True	31	(4.2377079804448901, -3.5597721300709733)	(-2.22571950578432, 0.85870544091316248)	(3.0253746134443684, 5.0154590095989029)	(-7.1590418214993159, -1.83213594561846)	1.0	z	1.19332
25	M	A	B	A					A	4	2	shapes	B	4	False	31	(-2.287404698753023, 3.887097173755393)	(-2.4830139699458194, -5.5238838128880339)	(8.2681916320319822, 5.3960844944786288)	(2.4185847539947041, -0.79322054199301562)	1.0	slash	0.677033
26	M	B	N	N					M	4	3	shapes	N	4	False	31	(0.30813645706626325, -6.2524861445140356)	(4.2453344967180744, 6.5469371531122711)	(-7.4671121333882162, -5.9186213733842363)	(-4.062560107293729, 0.82060999333986473)	1.0	slash	1.2166
27	N	B	A	A	M	M	B	N	N	8	2	shapes	A	4	False	31	(6.3592882058908788, -5.87453508893572)	(-2.3698677027509909, -3.711443365531812)	(2.8828562236433246, 5.4443673727662176)	(0.2468918755996512, -7.2835823939619981)	1.0	slash	0.560203
28	N	B	A	A	N	B	M	M	A	8	2	shapes	A	4	True	31	(-1.7769542377618848, 2.0958869851824549)	(7.6268012877472344, -4.3920548674523632)	(2.6869279315628898, -8.1011563372487654)	(7.3791530450806739, 6.013797450714705)	1.0	z	1.76398
29	M	B	B	M					M	4	0	shapes	M	4	True	31	(3.6164343426947205, 6.385720800650482)	(6.44756496172878, -6.4663147371432377)	(-1.1024477861842428, 1.8063515651318927)	(-0.18277269722385725, -3.0133910571712681)	1.0	z	1.24551
30	M	A	N	M	A	B	N	B	B	8	7	shapes	B	4	True	31	(4.4091227844639409, 3.368334563238653)	(3.7896436322672749, -5.7686038830082289)	(-2.1012018948018349, 8.5132111778286159)	(-2.1830837883591503, -7.9527895328481337)	1.0	z	1.82034
31	M	A	N	A					B	4	3	shapes	A	4	False	31	(3.1955378540108139, -1.9501574806915398)	(4.4530400305340105, 6.575906677323955)	(-5.4630421968845022, -2.5182750720039078)	(-8.6683232524418639, 0.068364779800806019)	1.0	slash	1.07471
32	N	A	B	A	N	M	B	M	N	8	1	shapes	A	4	False	31	(2.8015872192410534, 2.5503395109433971)	(-0.024098642678588078, -0.32242387508607528)	(-3.9183856507161687, -2.1489865272064304)	(-5.4752564782167692, 6.9022873638864883)	1.0	z	2.50437
1	M	A	N	N					N	4	2	shapes	N	5	True	31	(-0.7972904159302292, -8.4012079001182727)	(4.0594183527527292, 6.7536463047582753)	(4.5988807881893639, -8.5127116148002049)	(-3.1500329442447246, 1.7790690528847346)	1.0	slash	0.855545
2	M	A	B	A	B	N	M	N	A	8	3	shapes	A	5	True	31	(6.404476751355455, -3.6082354348390595)	(-5.9075302969272929, 5.2829109537602683)	(-0.6640007073557328, 7.0477109962653479)	(0.41144955310108955, -2.7856530703960001)	1.0	slash	1.09545
3	M	B	N	A	A	N	M	B	A	8	3	shapes	A	5	True	31	(7.049180358523957, 8.0414360180440561)	(-0.091397014626787509, -3.6807022304973431)	(-2.2968654282704284, 6.1149264200837088)	(7.017514643360359, -8.2700621232269764)	1.0	z	1.35301
4	N	A	A	M					M	4	3	shapes	M	5	True	31	(-7.1002489099525423, 7.3147777288582461)	(-2.1197081505025652, -4.6576808246984598)	(5.6839604702118152, 5.4898595026659613)	(6.6847252842614235, -3.3944363885784732)	1.0	z	1.40479
5	M	B	B	A					B	4	2	shapes	B	5	True	31	(-2.487336559712503, 1.0653900474617632)	(-8.2651971229658923, -7.1628277353348562)	(4.2636737313305453, -6.5948732238424768)	(4.2482971503668221, 5.0237045358010661)	1.0	z	0.934227
6	M	A	B	N	M	B	N	A	B	8	4	shapes	M	5	False	31	(-4.4453112304803692, 5.9765767823509357)	(3.5776533242856363, -3.4744655024814346)	(-2.1825597758547701, -5.1795564887002303)	(-7.0020228921801388, 2.7978400429315933)	1.0	slash	1.45396
7	M	A	A	M	B	N	N	B	N	8	5	shapes	N	5	True	31	(-6.866779582716708, -7.4316173874695606)	(5.7265281772172774, 0.57584254210794938)	(1.8421592317210873, -8.2155495636846609)	(2.2708659305399195, 3.7395415710126265)	1.0	z	1.63747
8	N	B	A	A	M	N	B	M	A	8	2	shapes	A	5	True	31	(-6.7928032650434691, -0.16482570915272987)	(-3.5805225064473412, 3.6395484773248334)	(-7.5577683738766721, -8.1088192703800157)	(8.5435774606605044, -4.2796737295520382)	1.0	z	1.17905
9	N	B	N	B	A	M	M	A	N	8	2	shapes	N	5	True	31	(-2.8751099810085332, -2.009032102410047)	(7.1526952079739274, -4.4848597540407598)	(5.8349461806887533, 0.84504420514227263)	(-5.313363923348982, -8.1295458240229319)	1.0	slash	1.03472
10	N	A	N	B	B	A	M	M	B	8	7	shapes	M	5	False	31	(6.8845038043049822, 5.3715761607572841)	(-3.4406270387372411, -5.0679324788345825)	(-4.6148674781268824, 5.278060476173339)	(3.9460295838370509, -7.8509674103717844)	1.0	slash	1.31237
11	M	A	M	N					A	4	3	shapes	N	5	False	31	(0.86613862678996334, -0.22837877025209075)	(-5.2724031476570472, 0.8864138966652515)	(8.2561882140609022, 3.428829544341049)	(-1.4475868549252304, -5.3694380012099483)	1.0	slash	0.787837
12	M	A	A	M	N	N	B	B	M	8	4	shapes	N	5	False	31	(-2.7181280627539781, 8.0798656565694813)	(3.2777210122760128, -0.16823255821954852)	(-7.4006408573875317, 5.0327460048668939)	(8.4335004405451741, 0.30010357350774797)	1.0	slash	0.867575
13	N	B	B	M					B	4	2	shapes	B	5	True	31	(-3.6347502373208709, 1.2450926482448654)	(2.1429585981517842, 1.4583913096545338)	(-8.2979330158658513, -2.8377000517126243)	(5.2376103170038917, -7.6604609777738091)	1.0	z	1.13525
14	N	A	A	B					N	4	0	shapes	N	5	True	31	(-3.8673298548867416, -5.7212985655331483)	(4.4251866202066079, 7.5617361650424932)	(-1.179060811078938, 6.925958803031083)	(6.9867150159153155, -3.3844928158537559)	1.0	z	1.54092
15	M	A	A	N	B	M	B	N	A	8	3	shapes	N	5	False	31	(-3.8320944658064651, -5.3054063958060809)	(-2.3240336742825232, 4.8048618178237863)	(6.6749312562269321, -6.394249381935321)	(0.14971402985451654, -3.9697179373826597)	1.0	slash	1.37224
16	N	A	N	B	M	A	B	M	M	8	1	shapes	A	5	False	31	(-3.9492126653582833, 2.6138811512291742)	(0.45275467526657032, -8.5636281349214354)	(7.9901503192284373, -8.2021276685749509)	(1.0278688325407614, 4.6366111231869613)	1.0	slash	0.890197
17	N	B	A	N					B	4	1	shapes	B	5	True	31	(-3.4531819800409913, 0.75956191961780384)	(7.5507038813149165, 7.2125914193434255)	(2.3690230153903151, -8.2094153245901538)	(-6.1433099557130522, -7.9607207228180199)	1.0	z	2.03161
18	N	B	B	M					M	4	1	shapes	B	5	False	31	(-3.3309083372303459, 0.26086929877527254)	(4.2314540797279889, 6.9435425289259101)	(-8.3451778442515092, -6.8276931204320768)	(5.6683189277731216, -1.8090750682152112)	1.0	slash	0.529341
19	M	A	A	N	N	M	B	B	N	8	4	shapes	N	5	True	31	(8.0132832280839814, -6.54110448570815)	(-6.7039421679125866, 4.3956855360278961)	(-2.4717016184791794, -7.5784814181538298)	(-0.33784929902434513, 1.2597594349588306)	1.0	slash	1.09307
20	N	A	A	M					N	4	0	shapes	N	5	True	31	(6.8823311404951983, 2.4504694309942252)	(5.9650943532116418, -5.2650306537667406)	(-3.2254783295723781, -4.0648969264772585)	(-8.2874606962676065, 2.3059943045355968)	1.0	z	1.53259
21	N	A	B	B	A	N	M	M	N	8	1	shapes	A	5	False	31	(-4.0557938445674964, -1.9153538477003931)	(7.2401447149036997, 2.0608066246281211)	(1.2564800775830811, 7.5683077200012683)	(-6.1254377041153374, 8.5969088389382655)	1.0	slash	0.74219
22	M	A	A	M					M	4	0	shapes	M	5	True	31	(-4.7086112032396858, 1.1596136390093896)	(2.3282373344181568, 4.533870749233845)	(-4.2116375766224117, -6.6538976705446835)	(2.2138127849899902, -7.1155258804773922)	1.0	z	1.20197
23	N	A	B	B					N	4	1	shapes	A	5	False	31	(6.7636091738765227, -5.5123949513255504)	(-1.3322523753082223, -0.37268241343711317)	(-4.049357193008956, 8.2192494849591249)	(3.6426279197714262, 2.4640278776612838)	1.0	slash	0.995505
24	M	B	B	N					A	4	3	shapes	N	5	False	31	(-2.5735781397713566, 6.30674088093253)	(7.7747109380661605, 4.854809093868715)	(-8.3247876310198592, -0.75762567357426125)	(2.0503874797554804, -6.48782621198258)	1.0	slash	0.815196
25	M	B	N	B	N	M	A	A	B	8	3	shapes	B	5	True	31	(3.6156081815462819, 5.1782058322195912)	(-5.7721651163681953, 4.8048288859372601)	(7.754482529292158, 3.5566838924517157)	(-6.8955378751167071, -0.48454757683744276)	1.0	z	1.51089
26	N	A	A	M	M	N	B	B	M	8	2	shapes	A	5	False	31	(-2.9546761199590756, -5.7286013319517703)	(7.4702487508259807, 0.34418561031166384)	(2.8668850594339226, -1.4242025050724667)	(-5.9662840106879074, -8.7007403290086991)	1.0	slash	0.986471
27	N	A	M	N					B	4	3	shapes	N	5	False	31	(-2.3191497175957343, 1.4039711736652141)	(1.310747025798813, -8.5031775361413775)	(7.4441474601776996, 4.2512341846068402)	(-2.9180529225209977, -3.9660797117319611)	1.0	slash	0.560116
28	M	B	N	M	B	A	N	A	B	8	1	shapes	B	5	True	31	(0.1232941632062321, -2.0201968254305838)	(8.3029887235617608, -7.2509212682052633)	(5.0443732569506459, 2.7063981788601392)	(-2.5953011462150384, 0.95981907471044892)	1.0	slash	1.17775
29	M	B	A	A					N	4	1	shapes	B	5	False	31	(4.5910105756673545, -5.4883681548665244)	(-5.4332870947887315, 0.95539111601616789)	(-6.7060895951533404, -8.0973335662772037)	(0.48330363320911118, 7.9136264718004021)	1.0	slash	0.847452
30	M	A	M	N					A	4	3	shapes	N	5	False	31	(1.900225833045285, 4.2633034540151939)	(0.55677321098065136, -3.3803869188322464)	(-5.2241354223253254, 6.1459446350758551)	(-7.9933642182733848, -2.5483818985842106)	1.0	slash	0.742837
31	M	A	B	N	M	N	B	A	M	8	6	shapes	B	5	False	31	(-4.202067437508517, -8.7308461693383386)	(-4.0179612266469205, 7.9580056006393391)	(5.7429663845678345, 2.5027368832062891)	(7.2042617345829445, -3.0286470602726681)	1.0	slash	0.692669
32	N	B	A	A					M	4	1	shapes	B	5	False	31	(-0.22134017261117123, -3.1877272973542174)	(0.43874397935757159, 2.08727130319207)	(-0.15258975298477573, 6.2010961153357869)	(8.7210305871323222, -6.1011161114249939)	1.0	slash	0.554437
1	M	B	N	N	B	A	A	M	B	8	5	shapes	A	6	False	31	(-8.6330858993112152, -8.0148680273860506)	(4.7704120261446246, 4.7627409861833048)	(-6.9940777628199253, 3.3551088598212377)	(-5.060891468002426, 7.1675701805940992)	1.0	slash	0.66305
2	N	A	N	A	M	B	M	B	M	8	5	shapes	B	6	False	31	(-4.9993987460622584, -6.954107272635234)	(0.22007582483819021, -5.8372615463775803)	(7.4103379567159635, 7.4842646563416899)	(-3.442749099215046, 4.9537415824275364)	1.0	slash	1.38972
3	M	A	B	N	N	B	M	A	B	8	0	shapes	M	6	False	31	(-2.826659290630392, -7.8023460460433203)	(-8.0742829176793158, -1.2518206793226359)	(-8.1639332057408716, 7.5846110487008218)	(-2.3931495661486313, 5.2684224010347798)	1.0	z	1.37924
4	M	A	B	A	M	N	B	N	N	8	5	shapes	N	6	True	31	(-5.3947818201487614, 5.8013088600849407)	(3.785897614663666, 4.045254067053957)	(7.6480342914176838, -2.723046070675804)	(3.0974171251781684, -5.7659395865654952)	1.0	slash	1.13089
5	N	A	N	M					M	4	2	shapes	N	6	False	31	(-7.325626539074066, -0.2762220901744783)	(4.6684413896042329, 4.4237201251098401)	(-5.7551594829884891, 7.4233293890432996)	(8.3686076628285484, -5.7198257411092488)	1.0	z	1.18658
6	N	A	A	M					N	4	1	shapes	A	6	False	31	(5.308164846126866, -1.9063091779281764)	(7.7471737964939393, 7.0742469600771969)	(-0.75491441968557105, 0.99250742928445845)	(-0.95659207501294041, -6.2115407641724669)	1.0	z	2.35395
7	M	A	N	B					B	4	3	shapes	B	6	True	31	(5.313755618330795, -6.5844207997012951)	(1.4026053759296158, 6.2933872194534963)	(-8.3876130697655551, 6.1246081448131751)	(-2.8093524007504849, -1.403578170359828)	1.0	z	1.12363
8	M	B	A	M					B	4	3	shapes	M	6	False	31	(3.3123694441084428, 3.1081584599169059)	(3.2467483575248473, -3.0330656673987564)	(-4.3865380843111961, 2.8015981072346552)	(-7.9689679826547488, -3.3633580068386859)	1.0	slash	1.00337
9	N	A	B	A	B	M	M	N	N	8	2	shapes	B	6	False	31	(-2.2172095954915276, -3.4318678283218507)	(-8.736532484983826, -5.2180486945378188)	(7.8407020764990278, 1.7216534827122114)	(5.5064588921292472, -2.9976582787471173)	1.0	slash	1.16495
10	N	A	N	B	B	A	M	M	B	8	3	shapes	B	6	True	31	(-3.8821255458337527, -7.4718053166869343)	(7.9893893580177746, 7.2756705151697183)	(-7.5313690177019472, 8.3437794335937383)	(-3.5345018922770315, -2.7309767575570456)	1.0	z	1.18444
11	N	B	A	N					M	4	1	shapes	B	6	False	31	(1.5626358821294932, 5.8029656078697656)	(-0.64539817801347255, 1.7959646586337019)	(-6.8645196582437586, -7.3619904514632237)	(0.14247805460764873, -7.5437127588298178)	1.0	slash	0.822165
12	N	B	A	N					M	4	2	shapes	A	6	False	31	(-3.7457181535240984, 3.3680285503529923)	(2.7526217751797262, 0.90839469155672425)	(2.7780479306786976, -5.7317597928071926)	(-3.7983923473597283, -6.0007041729814166)	1.0	slash	0.579795
13	M	A	M	B	N	B	A	N	M	8	2	shapes	M	6	True	31	(-4.0003598121870345, 2.5018476624727572)	(8.5187551151594363, 6.7783665634350161)	(-3.9219896116406652, 7.760546622807869)	(-2.9663943432285356, -8.133213595555949)	1.0	z	1.32348
14	N	A	N	B					N	4	1	shapes	A	6	False	31	(8.5947821971822869, -1.6127189208400381)	(-2.8896557848989364, 0.73051213536800219)	(-8.1627454049503978, -2.3272626776917864)	(2.4044092604942424, 8.290188804228638)	1.0	slash	0.697232
15	N	B	M	B					B	4	1	shapes	B	6	True	31	(6.8035665213562773, -4.5676079836397303)	(-6.2676788053316059, -7.2597995122591579)	(-1.178342830703448, 1.5909562630428979)	(3.8417793237277422, 5.4203541591968545)	1.0	z	1.23272
16	N	B	A	N					A	4	2	shapes	A	6	True	31	(8.4385968465222128, -4.5913268195876391)	(-5.6936441433627198, -5.0331410533723924)	(-2.7637023257435818, 2.5506578198379515)	(6.1768815871866956, 3.7545758181601254)	1.0	slash	1.04432
17	N	B	B	A					A	4	3	shapes	A	6	True	31	(2.6095833315491319, 7.9410719235951213)	(-1.9940490752181947, -7.7077866730179476)	(-6.7058274422542006, 2.910665146873141)	(3.005765220493311, -7.476962996900502)	1.0	z	1.59768
18	M	A	M	B					M	4	2	shapes	M	6	True	31	(-2.2363010461432289, -5.1226654014422977)	(6.7102287125469928, 3.6607573982678652)	(2.1865789685700676, -6.6290996016717525)	(-1.0571640633350654, 1.0013151365346875)	1.0	z	1.06352
19	N	A	A	N	M	M	B	B	M	8	4	shapes	M	6	True	31	(-5.4400810574474709, -2.4311721482601607)	(7.1709844115583774, -0.69242742169447347)	(-7.6061760852290483, 8.3844693424619585)	(-2.2175811604214433, -6.983601913546309)	1.0	z	1.07119
20	M	B	A	N					N	4	3	shapes	N	6	True	31	(-2.9067454405682804, -6.1255248633574535)	(4.4521363520108022, 3.9414891986327127)	(-7.2840330084479881, 5.3094953109227632)	(2.637889232498928, -0.89448002838978713)	1.0	z	0.931127
21	M	A	N	B	A	B	N	M	N	8	2	shapes	N	6	True	31	(-2.5828429964660984, -7.9852413796731252)	(-3.0471886321923405, -0.92477256347128911)	(4.9042391859903862, -6.8321013398763473)	(7.428335972789796, 6.7473806733304542)	1.0	slash	0.754524
22	M	A	A	M	N	B	N	B	A	8	4	shapes	N	6	False	31	(-1.9539060783219782, -2.0742427775012429)	(2.6332981926544683, 5.8809890971105823)	(-7.0523813006915512, 5.118291172670494)	(-8.2062071875010645, -8.4747062779047084)	1.0	slash	0.792066
23	M	B	B	N	N	A	M	A	B	8	1	shapes	B	6	True	31	(7.9033628789027155, -3.0822821332173103)	(6.8432654088110763, -6.976962316558466)	(3.3153718450173191, 1.7798907250588254)	(-5.0249301881246886, -1.3474289972926892)	1.0	slash	0.573849
24	N	A	N	A					M	4	0	shapes	N	6	False	31	(2.7803801342512102, -7.9083115497493397)	(-2.4517900811339297, -5.0880007111280054)	(2.8076007840830837, 4.1777556390475166)	(-2.0965628571822403, 6.5498948649461379)	1.0	z	1.26941
25	M	A	B	B					M	4	2	shapes	B	6	False	31	(-0.97992359794952666, 5.2373380142630754)	(-5.4022770837696719, -6.311991876544857)	(5.174960821796768, 0.20455095488059349)	(5.952772537519488, -5.7149470368698765)	1.0	slash	0.59908
26	N	A	A	M	B	N	M	B	N	8	1	shapes	A	6	False	31	(-7.8896615427824495, -7.5926954842965326)	(1.8237792482709647, -6.6448748897275847)	(3.4025766146192034, 2.7182027071651884)	(8.6318285379645765, 4.4663485175803661)	1.0	slash	0.988823
27	N	B	N	A	M	A	M	B	N	8	3	shapes	A	6	False	31	(5.7986782634936667, -7.5322068551085284)	(-0.68038557680021583, 8.2026825341358744)	(6.2089341362684412, 1.9032884958000995)	(-7.1607459980309578, -1.0250492897556365)	1.0	slash	0.566452
28	M	B	B	N					N	4	3	shapes	N	6	True	31	(-4.0114722966137588, -7.6109800385802178)	(8.5899121917505106, 6.9028235507657811)	(1.239718624639421, -0.52941171571473333)	(-8.5472288154205103, 6.1748834969525408)	1.0	z	1.27217
29	N	B	N	A	B	M	M	A	N	8	0	shapes	N	6	True	31	(4.7514755657493151, 1.210603862023385)	(1.7088820068917254, -1.7508185559464469)	(2.9132498111656506, -5.8491573559737127)	(-2.3746952383963604, -4.174399535230866)	1.0	z	1.23562
30	N	B	N	B	A	M	M	A	A	8	6	shapes	M	6	False	31	(8.4298439170028061, -8.0849770030223134)	(-2.8848332901474887, -3.0893033156795715)	(-4.4029545638905301, 1.1009751831880354)	(6.1077965103775451, -1.3132234012854003)	1.0	slash	0.919432
31	N	B	N	A					N	4	0	shapes	N	6	True	31	(8.28454871839633, -0.6893222244853483)	(-1.8695943327743754, 7.2709657788195052)	(-8.6162436304339725, -3.8303285773709899)	(4.6326707958379316, 8.0718323406159627)	1.0	z	1.06496
32	M	B	B	M	A	N	A	N	A	8	4	shapes	A	6	True	31	(-8.3599387435728048, 0.89637236751249816)	(0.25053416212395874, -5.1093311717359891)	(6.9370011837095955, -4.8407736428701549)	(8.4483642763367222, 2.8293755670013283)	1.0	z	1.12072
1	M	B	B	N					B	4	0	shapes	M	7	False	31	(7.2023599273497254, 7.1262907366073183)	(7.7163890639944483, -7.0712316890874725)	(-0.4471353772486566, 4.9096259665227091)	(-1.1446791338548081, -7.8732498540381082)	1.0	slash	0.766335
2	N	B	N	M					A	4	2	shapes	N	7	False	31	(7.0023615456411239, -4.9565546194163286)	(6.0246054426031392, 3.8856207612059013)	(-3.9988166562641352, 3.3276559801122172)	(-5.819664737989438, -3.4389817062462527)	1.0	slash	0.557912
3	N	A	A	M	N	M	B	B	A	8	7	shapes	B	7	False	31	(8.699218020257959, 6.7452405752939395)	(-0.86415285265046204, -8.0965793597862863)	(8.5213334386761659, -2.4442862011972535)	(4.8214457411360616, -0.83245201096284482)	1.0	z	1.23563
4	M	B	A	M	A	B	N	N	B	8	3	shapes	M	7	False	31	(-7.0437771679014443, 1.815507529294651)	(-5.9777658150456467, -6.8867714937214863)	(1.8725852177052822, 4.8030134879216639)	(-2.7649715154620766, 5.4422467175345517)	1.0	slash	0.543257
5	N	B	M	N					B	4	1	shapes	B	7	True	31	(7.2905408062812072, 6.3658846406809602)	(-1.7132817859642113, -3.1519295419156617)	(-4.7347287427496703, 7.6423864057756639)	(8.2123602483354574, -7.6933010178230736)	1.0	z	1.18887
6	M	B	B	A	A	M	N	N	A	8	4	shapes	A	7	True	31	(-5.5143136930827437, 5.6337844233204848)	(8.5632847274826212, 4.3865465754247435)	(-1.5718972239117983, 7.163791394580926)	(4.7711250823709381, -5.0282937095175519)	1.0	slash	0.634528
7	N	B	B	A					N	4	3	shapes	A	7	False	31	(4.2773458972001954, -7.8015381313179626)	(2.2431935904654203, 8.1106722374320128)	(-0.67547395879188166, -3.1114607597653325)	(-4.0162762525097131, 3.8703126230583713)	1.0	slash	0.574128
8	N	B	N	B					B	4	1	shapes	B	7	True	31	(-4.7562376516005305, -0.52198165757173598)	(3.8538635368553358, 2.5716230982736654)	(4.3294836029644159, -6.249915859855057)	(-7.6902835025996685, 6.601521357072679)	1.0	slash	0.653669
9	N	B	M	N					A	4	2	shapes	M	7	False	31	(1.4063236112977844, 1.2477798195198062)	(-4.2973409525906945, 4.7019557017202125)	(6.0927292585495678, -5.7467422417751122)	(-8.1820250896258617, -4.397771297334244)	1.0	slash	0.597523
10	M	A	N	N					A	4	3	shapes	N	7	False	31	(-7.5626442902523623, -2.4305297016622198)	(-1.5473552160952355, 8.5958646277479289)	(1.8459194998092485, -0.37381451051800596)	(4.522030003902433, 3.1335914544908317)	1.0	slash	0.598954
11	M	B	A	M					M	4	0	shapes	M	7	True	31	(1.0738842980788394, 6.377455343430837)	(-5.7858925750119106, 4.238017032819501)	(-0.95690700633261727, -2.7575751627537164)	(4.4824726219486521, -6.5997626022497684)	1.0	z	1.10444
12	M	B	A	A	M	N	B	N	B	8	0	shapes	M	7	False	31	(5.1592063970290702, -2.6643707546804656)	(8.3128214949892616, -7.7818373885258429)	(-1.5190919169607797, -8.6296556001181361)	(-6.3080427031764756, -8.5076520268562508)	1.0	slash	0.805916
13	M	A	A	M					A	4	0	shapes	M	7	False	31	(-6.8786585821142827, 7.4923322499415583)	(-2.3499275754891533, -8.0983232309206628)	(5.0844022755926837, 7.998578368706422)	(5.6464050667582644, -6.7545823578011053)	1.0	slash	1.43218
14	M	A	N	A	M	B	N	B	A	8	0	shapes	M	7	False	31	(-7.0989178348120667, 4.3738234168659407)	(8.046114328399657, -1.6878063298288621)	(1.6673074343487588, -4.9968125191935755)	(-1.6919395117051739, -2.6320839631035948)	1.0	slash	0.859834
15	M	B	N	N	M	B	A	A	A	8	3	shapes	N	7	False	31	(-7.7131475163279912, 7.9754401520413758)	(4.5719421156599562, 4.0154858565068245)	(-1.6845905241984092, -2.2138640017482842)	(-0.96822011430503885, -8.3791792622076269)	1.0	slash	0.771371
16	N	A	B	A					A	4	3	shapes	A	7	True	31	(0.58381105324138183, 0.21037534799714663)	(-6.5482033076560917, -7.7198507191889183)	(7.1747114137877848, -2.3013144102565413)	(-4.3780154875766639, 8.577612899063233)	1.0	z	1.23291
17	N	B	B	A	M	N	M	A	B	8	2	shapes	B	7	True	31	(3.4361010218128261, -5.2156594562067218)	(-7.4040450766063026, 2.4284918371651525)	(-7.8944830458658952, -6.5380049169007073)	(-8.5298808955143155, -2.370685756568478)	1.0	slash	0.668586
18	N	B	N	A	B	M	A	M	B	8	4	shapes	B	7	True	31	(1.736634551041794, 2.7034501717686403)	(1.081853947966664, -7.6036731544958771)	(-4.6322613892252926, -5.3441829557348388)	(2.9650915198219252, 7.7216058514343118)	1.0	slash	0.826262
19	N	B	N	B					N	4	1	shapes	B	7	False	31	(1.1300179900871914, 4.7335182198148331)	(-7.7553396306658993, 5.8734718477987453)	(-0.21301505320171898, -1.4730681653672235)	(7.5189523515447974, -4.4667026998451975)	1.0	slash	0.93595
20	N	B	A	N					B	4	1	shapes	B	7	True	31	(6.3391947485014732, -0.50018084078141456)	(-4.3217650728856434, -7.1126607076750439)	(-8.6250923870953038, 5.0318442787341002)	(8.1505517380828216, 4.4216065468853678)	1.0	z	1.62361
21	N	B	A	M	A	B	M	N	M	8	6	shapes	M	7	True	31	(3.7384899653445203, 2.9441858803309717)	(-0.75667214144934736, 3.0537671319291846)	(-7.7041051814418431, 4.0673183132395181)	(-4.7958395476891882, -2.2803293519209946)	1.0	z	1.30318
22	M	B	A	M	A	B	N	N	B	8	7	shapes	N	7	False	31	(-1.8301270244472843, -1.3134333344596145)	(-8.711519243781952, 0.0041664745677110204)	(-5.527414065250797, -7.0730176391281958)	(8.0879804321059332, -5.749333595716541)	1.0	slash	0.888876
23	N	B	B	N					M	4	0	shapes	N	7	False	31	(-2.0047411398427073, -3.1881403722884887)	(7.7237283550967781, 7.7406319405606752)	(-8.0402545551611304, 0.63950317322179906)	(7.8766701009447182, -0.11283407778890542)	1.0	z	1.23311
24	M	A	B	M	A	B	N	N	N	8	7	shapes	N	7	True	31	(7.2921322843905223, 1.6632584615129176)	(6.4998111807263932, -8.0737196628949111)	(-2.9244769880893573, -7.8732670800665892)	(-4.393033322318975, 3.5800362600018065)	1.0	slash	0.987459
25	N	B	A	M	A	N	M	B	M	8	7	shapes	B	7	False	31	(2.7091858284006847, -8.4476502400967703)	(-3.7609984001472352, 3.5699000721368712)	(-3.3915830723808122, -3.7331609707770532)	(2.3114348686778801, -0.92730227124389231)	1.0	slash	1.00974
26	M	B	B	A	A	N	N	M	N	8	5	shapes	N	7	True	31	(-5.1457533319135003, -5.6510886308904738)	(0.2018799029494911, 7.5954210029078126)	(-4.8357689624016036, 0.044839602887030594)	(-4.6253767606337099, 7.8341268282864078)	1.0	slash	0.621303
27	M	A	M	B					A	4	1	shapes	A	7	True	31	(-5.1267799805718841, 0.85702999535764235)	(8.5053266586122405, -1.1059535743658993)	(-5.6635548260578883, -5.1672038190735545)	(3.6412114403200206, 1.9195861500270048)	1.0	z	1.08496
28	M	B	B	N					B	4	1	shapes	B	7	True	31	(-6.7030384519756598, -3.5531021793127229)	(-3.165760398872008, 1.515585540706418)	(4.4391982109231574, -0.29228581180960411)	(0.93263340422072893, 6.2039270589254922)	1.0	z	0.950639
29	N	A	A	B					A	4	2	shapes	A	7	True	31	(2.8376192245741159, 7.2381838135147731)	(-2.9701189760912694, 8.2523753277140521)	(0.079220302127437137, -5.9549536684549995)	(-8.6513723365424955, -7.782460245160074)	1.0	z	1.09824
30	M	A	M	A	B	N	N	B	B	8	2	shapes	M	7	False	31	(-8.0891815591707257, -4.0283124394286567)	(-3.5925102888209697, 3.1099323705250796)	(8.4641378308946571, 6.4067994029825002)	(6.030929599377302, -4.497054181204275)	1.0	slash	0.897828
31	N	A	N	A	M	B	M	B	A	8	3	shapes	A	7	True	31	(1.9829443659640908, 8.2578961925609242)	(-6.0585425299366795, -1.1277391433311861)	(-1.3404470014818353, -3.8889158581006553)	(3.8019479228440574, -3.2867242638197673)	1.0	z	2.2037
32	M	A	B	B	N	A	N	M	N	8	4	shapes	N	7	True	31	(6.9705401343811655, -5.4536119249605406)	(-3.0418066988836223, -0.38659455346597227)	(-7.205286951397766, -7.8739106302799096)	(3.7203243625929101, -3.1042466107378992)	1.0	slash	1.15714
1	M	B	B	N					B	4	1	shapes	B	8	True	31	(-5.8974941673975767, -2.468111901790504)	(-8.7168339018919454, 5.736816186582482)	(8.2532930817723589, 4.0928143215677437)	(0.080647875603165886, -1.4359304472786043)	1.0	z	2.55465
2	M	A	A	N	M	N	B	B	M	8	0	shapes	M	8	True	31	(-2.3000267483408159, 8.159818709528107)	(1.0578910951836562, -0.62452155652118435)	(6.2836550295126425, 6.2797515856008985)	(4.5054053805992247, -2.7716144097703044)	1.0	slash	0.926302
3	N	A	M	N	M	A	B	B	N	8	1	shapes	A	8	False	31	(-1.2707511911248321, 2.6463947426789733)	(0.094552970573705153, -5.1846710391155355)	(-2.2792144147878668, -1.4352212911336739)	(-7.4658711525793429, 7.8472522317654239)	1.0	slash	0.703901
4	M	A	B	B					A	4	2	shapes	B	8	False	31	(-5.8366996981014125, 4.2042339056570626)	(-6.8012783899827021, -0.35949963800865881)	(7.3192877213688874, -3.962200636786366)	(3.4831875859692403, 7.2099688951935939)	1.0	z	1.06948
5	N	B	N	A	A	M	B	M	B	8	3	shapes	A	8	False	31	(-4.5076708589228147, -1.8710690305548301)	(6.1798957893711624, 6.5300146045712637)	(-6.879637910648964, 2.9003580588555931)	(7.731766115580978, -3.2175991321880248)	1.0	slash	1.09124
6	M	B	B	N	M	N	A	A	N	8	5	shapes	N	8	True	31	(1.6844026833239329, 5.3289185139676203)	(-6.4115391937276147, 5.1669477470578666)	(-1.0601633003781119, -7.1788339206815124)	(4.9871932342388181, -6.9709977066764424)	1.0	slash	0.844964
7	M	B	N	M					N	4	2	shapes	N	8	True	31	(-7.3381501413737737, -3.576760586298656)	(-3.9679177778498582, 3.9060567034677725)	(8.4406883361504477, -4.7127143641037605)	(2.7689497008387942, 7.3550927490672073)	1.0	z	1.47848
8	M	A	A	B	N	N	B	M	N	8	7	shapes	M	8	False	31	(4.4275859959997561, -0.30311524098178033)	(-0.99525056859155381, -3.9082169274325596)	(-0.94654412760989004, 5.384122331298423)	(-6.9068413903726587, 5.336247471760819)	1.0	slash	0.962013
9	N	A	M	M					M	4	3	shapes	M	8	True	31	(-5.1570315953804595, -3.3335686121470882)	(5.4633467348072298, 4.5031156523841727)	(-7.7401813061646738, 3.7638211435944999)	(6.3618258888715449, -5.4914625712527343)	1.0	z	1.02776
10	N	B	M	M					A	4	0	shapes	N	8	False	31	(-3.9126605539622261, 3.8525539061342755)	(-4.9606578008095177, -6.7519231057992046)	(4.6834985987925233, -2.2381248291088198)	(1.2370012957747303, 6.5590856022780653)	1.0	slash	0.98531
11	N	B	A	M					N	4	0	shapes	N	8	True	31	(-1.3612627858170763, 0.6595631203258101)	(-3.3265328918730805, -6.7324530402828646)	(4.8783854629722239, 7.5265415191626417)	(5.9850786415982231, -3.9517910592654424)	1.0	z	1.23911
12	N	A	A	M					B	4	2	shapes	A	8	False	31	(-6.772475353363733, -2.4908021549549222)	(7.683577936938164, -3.2341466838585919)	(-6.8818256058840479, 7.0904340255826135)	(3.3862488791837642, 8.0988359771364244)	1.0	slash	0.824472
13	N	A	N	A					A	4	3	shapes	A	8	True	31	(2.8821625804023512, -5.423459845489492)	(4.7422246585835257, 4.736420404111179)	(-1.7452686354754814, 5.5923197472280517)	(-2.2241950505252754, -2.3700836290809244)	1.0	z	1.54224
14	M	B	M	N	N	B	A	A	A	8	7	shapes	A	8	True	31	(7.9628607128296593, 3.1700181406064374)	(-0.90436582057987636, 5.4604106459577668)	(-4.8970984629362864, -1.7546442110880838)	(-0.19135619587858699, -6.6313213647574276)	1.0	slash	0.891359
15	M	B	M	A					N	4	3	shapes	A	8	False	31	(-3.3016674297386652, 1.0779561583756436)	(-1.4755009152002589, -8.050380105981283)	(6.7970042603371041, 5.5769481353171102)	(3.7997800319369794, -8.2491255055856705)	1.0	slash	1.25141
16	N	A	A	N	B	M	M	B	B	8	6	shapes	M	8	False	31	(6.7949683708824242, 7.2354532894919394)	(3.3670207787550321, 2.8748779573451557)	(1.2953123685347911, -7.1433894909661291)	(-6.1697694075894542, 6.1140442060485789)	1.0	slash	0.717286
17	N	B	B	M	M	N	A	A	N	8	0	shapes	N	8	True	31	(4.569060732860553, -8.3542488262177628)	(-7.6154622781954355, 1.2806064946887066)	(-5.4840607513442201, -6.3142256167738147)	(1.4837990252637532, -5.6289725136206084)	1.0	slash	0.666821
18	M	B	N	M					M	4	3	shapes	M	8	True	31	(-6.7970634008946984, 1.6313273419622458)	(2.2423181945036053, 2.5230977933520116)	(7.6934653980637684, -4.5360809995814275)	(-5.7389261356386436, -2.3386508453984414)	1.0	z	1.20836
19	N	A	N	A					A	4	3	shapes	A	8	True	31	(2.5849519806551804, 7.5122844380098392)	(-3.6366768132765985, -3.0330849805221334)	(-0.98826519915632183, 2.7234673154226616)	(6.5329147476176246, -1.9104019191828705)	1.0	z	1.51207
20	N	B	A	A	M	M	B	N	A	8	4	shapes	M	8	False	31	(-0.1430659648899173, 6.4255673365945665)	(-5.5415826688706398, -6.9192472965724017)	(6.4939587778952017, -6.5995072290400358)	(-7.6215094724562809, 3.3800562825933493)	1.0	slash	0.819719
21	M	B	M	A	N	N	A	B	N	8	5	shapes	N	8	True	31	(7.8620254934584075, -3.2834758875307415)	(-4.6889667983588854, -7.9676832922134366)	(-5.9866473627086894, -1.0335063731759222)	(6.8221321930561221, 2.5008035122724124)	1.0	slash	1.38741
22	N	B	A	B	A	M	M	N	M	8	5	shapes	M	8	True	31	(-6.7139805217886108, 4.6598915278854687)	(2.131315033309491, 4.4338595070775515)	(-6.1774330391887888, -4.2288786781190302)	(-1.3060686775363255, 2.1762926899224002)	1.0	z	1.56882
23	M	B	M	A	B	A	N	N	N	8	1	shapes	B	8	False	31	(1.1965181908733165, 4.4557181712950484)	(0.60676267904531933, -1.1590226990846144)	(-6.0354177470972168, -8.5261554404338451)	(-2.0456164802964523, -4.4200227854789116)	1.0	slash	1.17841
24	N	B	N	A					B	4	1	shapes	B	8	True	31	(-7.1656166834911623, 5.5578602101406958)	(-7.8710206123587847, -0.38093201080121197)	(1.8533383276388324, -5.5866485864486695)	(8.713850587996685, 3.2506450470073212)	1.0	z	1.28823
25	M	B	N	A	A	N	M	B	B	8	6	shapes	M	8	False	31	(-5.9154443622847248, -4.6693161961515903)	(1.482735086710484, 2.9418908706233182)	(-1.6482033273649295, -5.5892769294781228)	(-4.6954527724827653, 0.63157518482131181)	1.0	slash	0.66782
26	N	B	A	N	M	B	M	A	B	8	0	shapes	N	8	False	31	(-7.3069651371636315, -6.6810556396313476)	(0.56240989751134762, 7.7327588533586145)	(-4.0796794572226798, 1.4321566595080331)	(3.9327962527680729, 1.1651352502105308)	1.0	slash	1.37138
27	N	A	A	B	M	M	B	N	N	8	0	shapes	N	8	True	31	(-7.9077495908998188, 1.5292846855542805)	(7.8061365930194206, -7.7923834941641203)	(-1.7724665247705715, 3.0229259864039584)	(2.5852183054294269, 7.3087139265769885)	1.0	z	1.44504
28	N	A	N	B	A	M	B	M	M	8	7	shapes	M	8	True	31	(5.7932197618148411, 4.5086676761862261)	(5.0711796584156108, -5.0473999497616413)	(-2.315445687735151, 1.3305526819896727)	(-8.0950148447567791, -6.1578419306737686)	1.0	z	1.83057
29	N	A	N	B					M	4	0	shapes	N	8	False	31	(2.6411583693070533, -8.5506262052487685)	(-8.2400683613520229, -0.2487273226355029)	(2.882850232658118, 4.4859756253368843)	(-2.0182760451570214, 5.8482072052753331)	1.0	z	1.30423
30	M	B	N	A					M	4	3	shapes	A	8	False	31	(-7.824318899633071, 5.7597431091095466)	(2.7830994542898395, -5.4582140790133984)	(-4.2987599116076511, -8.543612588472083)	(8.5199303258979491, 5.3764328232788881)	1.0	slash	1.01385
31	M	B	N	M					N	4	3	shapes	M	8	False	31	(-5.4155687915070754, 1.0648524283127205)	(0.89644156603326586, -8.2237541856026066)	(-0.098798239107788177, -1.1703792199494734)	(8.0204163409102449, 4.798122462189097)	1.0	slash	1.14754
32	M	B	M	B					N	4	2	shapes	M	8	False	31	(-8.3213156520506946, -6.6072231931989664)	(0.8074755962253537, -2.1192019137325682)	(4.8895963559109301, 4.1332045378948692)	(-8.226611168770976, 7.0815813896024959)	1.0	slash	0.669107
