TrialNumber	stim0	stim1	stim2	stim3	stim4	stim5	stim6	stim7	stim.probe	ttl.stims	corr.num	trial.type	stim.corr	block	match	Subject	stim.pos0	stim.pos1	stim.pos2	stim.pos3	ran	resp	RT
1	N	B	B	A	M	A	N	M	A	8	0	shapes	N	Practice	False	32	(0.29578421272217703, 5.0297090880062854)	(1.6638475187117461, -0.63165159301242646)	(-4.2732496830111621, 0.16640419209632995)	(8.0578813801692419, -3.6446351901424991)	1.0	slash	2.62531
2	N	B	A	M	M	N	B	A	M	8	4	shapes	M	Practice	True	32	(4.4252350281550985, 0.71031855177169945)	(-4.007216697812324, -4.3179911075290329)	(-3.0599490983718169e-05, 6.5876955381737119)	(-6.7253741358930643, 7.2648477990598757)	1.0	z	1.56864
3	N	B	M	B					M	4	3	shapes	B	Practice	False	32	(7.4991011163594337, -3.2096090739643151)	(1.7360473778148133, 3.8479256107387929)	(-6.2429583817186867, 8.1263617400074395)	(-8.0396702217519795, -0.084197674844752157)	1.0	slash	2.13628
4	M	A	M	N					M	4	0	shapes	M	Practice	True	32	(-6.3270922497823019, 8.6602648423119604)	(6.3222611263700728, 3.532659709247838)	(-6.9213580936286361, -1.2371251050007857)	(4.9211511435130326, -3.2310975852040063)	1.0	slash	1.64785
5	M	B	M	B	A	A	N	N	M	8	4	shapes	A	Practice	False	32	(3.8977972414429374, -5.0987133405597023)	(-7.5264278723434339, -0.58536267092514294)	(-1.918315830256236, -6.1567488416501055)	(-1.1745724142974323, 0.18632687875857989)	1.0	slash	1.91536
6	M	A	A	M					A	4	2	shapes	A	Practice	True	32	(5.5672445179716519, -1.8296413012517343)	(6.4204703590868046, 2.5588049556725743)	(-0.87046403194256605, 8.6346213081259684)	(-5.8152792433432854, -1.2492554134842173)	1.0	z	1.63095
7	N	A	N	B	M	B	A	M	N	8	0	shapes	N	Practice	True	32	(0.01497489500037652, 1.076525178870396)	(-5.7703478453497663, -0.52427510945903855)	(5.1709252992206025, -1.7423253216862813)	(7.3698378131665976, 8.0021370257408115)	1.0	z	2.49268
8	M	B	N	A					M	4	3	shapes	A	Practice	False	32	(-3.8379409100483972, 2.7046019654599149)	(5.3524756052454894, 3.0202372826039525)	(-6.3999045361899309, -7.9745189140666435)	(4.964050389023507, -7.6706864460858473)	1.0	slash	1.59593
1	N	A	A	N	M	M	B	B	M	8	3	shapes	N	0	False	32	(5.2282495770474728, 1.6543948866892322)	(-5.2962361602735708, -4.175428192135568)	(-0.87689324557555803, -7.5317677675762091)	(5.6546640232635088, -3.550401093185414)	1.0	z	2.34839
2	M	B	N	A					B	4	1	shapes	B	0	True	32	(-6.4006083231382025, -0.71271229454114327)	(-5.4430751935141712, 5.4563403524681231)	(5.1247424607002205, 4.4907465751066269)	(7.7928511835075156, -4.0946119845713449)	1.0	z	1.79973
3	M	B	A	M					M	4	3	shapes	M	0	True	32	(-0.07712848752353807, 5.6122020774947643)	(-5.1524828904127347, -1.6575526720920966)	(2.8600587561017097, 2.4743600060070445)	(7.2942338852261273, -7.8258252098010184)	1.0	z	2.68133
4	M	A	N	N	B	M	A	B	N	8	3	shapes	N	0	True	32	(5.9169959009080468, -5.1879455262271268)	(1.6451387856051447, -5.7330624758825373)	(4.7426409144617594, 6.9499002487787624)	(0.16720316505088206, 2.4087158956128913)	1.0	z	1.92496
5	M	B	M	B					M	4	2	shapes	M	0	True	32	(-7.6067106096489585, 5.1779888544241537)	(-4.6039499998590436, -6.5132757726014674)	(3.2129490861924683, 2.12189155770497)	(8.0987264584892422, -2.0883410395658935)	1.0	slash	1.5902
6	M	B	B	A	M	A	N	N	M	8	5	shapes	A	0	False	32	(0.49404563057052187, 8.2106303322817915)	(-5.3947995503430874, 5.9582503944535681)	(-5.0559462326443505, -5.3624140478236111)	(1.7246789957979356, -0.67808111969909923)	1.0	slash	3.87806
7	M	A	M	N					M	4	2	shapes	M	0	True	32	(-6.4762113763132936, -3.2031096751980348)	(5.0352435213818314, -3.2418825330187895)	(-2.2162607160592502, 1.2941112432479116)	(7.2586633121301318, 0.85874880216619331)	1.0	slash	2.26345
8	M	B	B	A					A	4	2	shapes	B	0	False	32	(-4.5591847739506397, -2.6058962522697948)	(0.92904359458910868, -2.9124945190119291)	(5.4077175341724182, 5.7894179882367514)	(-0.37604602389171227, 5.515351055979826)	1.0	z	2.62899
9	M	B	N	A					A	4	2	shapes	N	0	False	32	(-8.5874260546718304, 2.0275125307285062)	(7.4611797309483165, 2.8361838607309355)	(3.6099824631904589, -8.5535136406887364)	(-1.3712409392748759, -2.0184769137692626)	1.0	slash	1.69648
10	M	A	A	B					M	4	0	shapes	M	0	True	32	(0.65498566780824596, -5.0534137883680916)	(-4.5383824871442187, 1.4476391705917067)	(7.3330816139903696, 8.2111508325463269)	(-7.9125446611794441, -6.6152548129363158)	1.0	slash	2.69614
11	N	B	B	M					M	4	1	shapes	B	0	False	32	(5.7184092592473963, -8.3493353663263079)	(7.7346742754642825, 3.1078251460743758)	(-0.60109462898532229, 5.9811873645290525)	(-2.261631780868969, -5.0101396364300088)	1.0	slash	1.62973
12	N	B	M	M	B	N	A	A	B	8	2	shapes	M	0	False	32	(-2.145085544709727, -6.7937225298996973)	(-6.0840603108903624, 8.1110495121247936)	(-5.0233516272774867, 2.4283505953313007)	(5.9024259977291269, 2.1734397472685263)	1.0	slash	1.94709
13	M	A	B	A	M	B	N	N	N	8	4	shapes	M	0	False	32	(-4.4854652149735781, -2.4543724262022764)	(-1.4388631740002245, -8.2569923861906798)	(-0.11270588592921982, 5.4210005713215761)	(3.1415146808252423, -4.4513668663202086)	1.0	z	2.01857
14	M	A	A	N					M	4	0	shapes	M	0	True	32	(6.0799527448603801, 6.2838075587949564)	(-8.0787177989268777, -2.3654931118803546)	(-2.9004138809549111, 6.5342568582889129)	(2.7596929954842135, -0.33069120962155019)	1.0	slash	1.48016
15	M	B	B	M	A	A	N	N	B	8	3	shapes	M	0	False	32	(3.5397415231231708, -8.5704345417900267)	(4.7257754625199091, 1.0196880337519527)	(-3.8519555983196696, 6.6780054743736361)	(7.5440974519815462, 5.9895820447861592)	1.0	slash	1.54979
16	N	B	N	A	B	A	M	M	A	8	0	shapes	N	0	False	32	(-8.4397451373631522, -0.9677195825908429)	(-6.0358661783171339, 7.9418934701537829)	(-5.1819691676318715, 2.1958962588179443)	(7.9222958198377036, -1.3172731535376681)	1.0	z	1.87743
17	M	A	M	A					N	4	1	shapes	A	0	False	32	(-7.9619984140451221, 3.4088133771983191)	(2.7368012165263931, -3.8430499851050133)	(4.4418819669666316, 5.3439708523943033)	(-5.0434441482487937, -6.440333023716768)	1.0	slash	2.23903
18	N	B	N	M	M	A	A	B	N	8	2	shapes	N	0	True	32	(0.11198054267747359, -0.075794133431706712)	(-7.112328503358917, -2.4635398801664339)	(-8.5743435108629154, -6.7498659652243465)	(-0.73865329455861328, 8.2668110944216799)	1.0	z	3.16434
19	N	B	M	N					A	4	3	shapes	N	0	False	32	(1.405720490455538, 2.4239587923677171)	(-3.0835268972662835, 3.4572368166009841)	(-2.5917442518349194, -2.0624229991845633)	(6.1252633931913323, -6.3473981820592638)	1.0	slash	2.13401
20	N	A	N	A					B	4	2	shapes	N	0	False	32	(5.2940676793640762, -1.6607321265232668)	(-0.52689997386418064, 4.9861145609358726)	(6.7488623226867599, 6.8438506560023917)	(-2.8150732489806503, -5.9303129361122284)	1.0	slash	5.72495
21	N	B	B	A	N	A	M	M	A	8	2	shapes	B	0	False	32	(-6.8510387919810789, -4.3593430325884075)	(7.2958083158084754, -5.0811337606383713)	(6.8084778390048815, 7.407876311558347)	(1.2026508420236777, -6.913772322526885)	1.0	z	5.96884
22	M	B	N	A	B	N	A	M	A	8	2	shapes	N	0	False	32	(0.94521101489027615, 1.6315339115526797)	(-8.5635924045887748, 4.2218069949446075)	(-4.9422848697325836, -8.6015639088934268)	(2.2423791963292921, -3.9275531876563337)	1.0	z	1.29978
23	M	B	B	M					M	4	1	shapes	B	0	False	32	(2.6304030611353344, 6.934756267046696)	(0.14410194714821323, -2.3674782418252764)	(-3.4122206034453182, 5.826577437071645)	(-2.4194334755261728, -7.2084495551325611)	1.0	slash	2.37761
24	N	B	M	A	A	B	M	N	M	8	2	shapes	M	0	True	32	(0.76319581921780966, -0.63666785332192788)	(-7.2619139418517431, 7.7662667685024935)	(-6.3830426371889928, 3.8559476859116639)	(3.9388137355411974, 6.7259651407211258)	1.0	slash	1.99325
25	M	A	B	B	N	N	A	M	M	8	7	shapes	M	0	True	32	(-3.3768571643627094, 2.193403421619605)	(4.0605638856607804, -3.808258619361176)	(6.2746298603094619, 1.7859290846760327)	(-2.5924467523208081, -7.8148108814116197)	1.0	z	1.20691
26	N	B	N	M					N	4	2	shapes	N	0	True	32	(2.5492192775488274, 0.52948316852394939)	(-7.777641634801765, -8.3572705925858344)	(-7.1752405518318385, 5.6505333156998958)	(6.2125627095150033, -2.713737737568616)	1.0	z	1.11837
27	N	A	M	N					N	4	3	shapes	N	0	True	32	(2.3847930085992921, 4.4030636702486881)	(-3.8628210973109223, -0.69915521248271517)	(-7.8339517887606904, 2.2733934896280932)	(3.3887180494263465, -3.0860318739164825)	1.0	z	1.21332
28	N	A	A	M	N	M	B	B	N	8	0	shapes	N	0	True	32	(2.0007524114107547, 3.8730780658613657)	(-4.0936616743422212, 0.18869999212816069)	(-2.6504821659210958, -5.6616206967889786)	(-2.595126913272634, 7.0467545294422127)	1.0	slash	1.78586
29	M	A	A	B	B	M	N	N	A	8	2	shapes	A	0	True	32	(8.4771466253460304, 5.2917329132556965)	(-1.7790640580225343, 6.679761874045429)	(-6.2502077415949895, -7.3642109786483747)	(2.9230415866500046, -7.2376178942411782)	1.0	z	1.51319
30	M	B	N	B					M	4	1	shapes	B	0	False	32	(7.4990257571455707, -2.6477513647729483)	(1.5633053781701136, 6.4733066761768701)	(-8.2453199097110019, -5.5779665985699296)	(-4.7609955800735255, 4.2025370327083991)	1.0	slash	1.41291
31	M	A	M	A	N	B	N	B	B	8	7	shapes	B	0	True	32	(-0.78099142513245479, -1.5679078596202949)	(-3.9835972960519639, 7.8459389959653656)	(5.8381736053326296, -8.0970734542032723)	(0.25624313186916936, -5.4378297999906735)	1.0	z	1.10257
32	N	B	N	M	A	M	A	B	N	8	2	shapes	N	0	True	32	(-0.83138366022774335, -5.6269931278968901)	(-5.6142862990968112, 0.80785372733408778)	(8.2898816398374997, -1.4258947391555603)	(6.6517450780651171, -6.3435684127033563)	1.0	slash	1.88595
1	N	B	B	N					N	4	3	shapes	N	1	True	32	(-1.1812048514149431, 4.38078982531459)	(5.2249748482040967, -6.6607726623283234)	(1.7365997954787176, 8.0648001476657249)	(-5.311415844071222, -2.9436786299336539)	1.0	z	1.45777
2	M	B	B	A	M	N	A	N	N	8	0	shapes	M	1	False	32	(7.6141135512895772, -2.7804016890830967)	(1.188719492248449, 1.9595499987378755)	(-7.5402953967439039, 1.2106903653210885)	(-0.37191776036744173, 7.7234510538976409)	1.0	z	1.25125
3	M	A	N	N	A	B	M	B	M	8	6	shapes	M	1	True	32	(-4.0061795325211671, 6.077275106397785)	(-0.1592940729779091, -2.4320309255646011)	(7.9601044131812664, -6.629125984251897)	(8.4851357980684803, 5.0191548616926021)	1.0	slash	0.812807
4	N	A	A	N	M	M	B	B	A	8	2	shapes	A	1	True	32	(2.9999815690298774, 4.363838053424665)	(8.7185716109072544, -6.0595898764173866)	(-7.3310331960807122, 4.7292630882851974)	(-2.9083850054139964, 2.6461692035516808)	1.0	z	1.32653
5	N	B	B	A					B	4	2	shapes	B	1	True	32	(4.7625749127958485, 8.6773136260059403)	(-6.2087009943053983, 1.272510249891047)	(2.8482619507412927, -2.0617260453558135)	(-7.5242370912218952, -3.6857229190746983)	1.0	z	1.51969
6	M	A	M	N	A	B	B	N	N	8	0	shapes	M	1	False	32	(-8.7181575993956706, -4.8798014798532527)	(-2.668320600265436, -4.0343231596837192)	(-0.57247165903617159, 5.808655907044983)	(3.8233008582907875, -2.8599571476333132)	1.0	slash	1.38781
7	N	B	M	M					N	4	1	shapes	B	1	False	32	(-1.6995178129996695, 0.30565922677329205)	(0.52470679380708596, -4.8866013438672518)	(-3.661000336652096, -6.5218555028839358)	(4.0779631161559227, 5.3350282614870821)	1.0	slash	1.51149
8	M	A	A	M	B	N	N	B	M	8	7	shapes	B	1	False	32	(5.8863466622129188, -6.5752783093886196)	(-2.1894896025641355, 5.3992596727976103)	(-3.5318848187245671, -6.9553372273581138)	(8.6000617271818314, 6.5611290586519431)	1.0	slash	1.99697
9	N	B	N	B	A	M	M	A	B	8	7	shapes	A	1	False	32	(-4.1279183323174964, 8.0614619837941035)	(4.120782059762421, -4.5616790726980234)	(-2.1158358610848413, -7.747079811913185)	(-3.1125778849381129, 2.554810846427289)	1.0	z	0.948434
10	N	B	B	M					M	4	0	shapes	N	1	False	32	(-8.7160834304067496, 2.9281530920406453)	(5.0287479262296948, -3.4359734061481451)	(3.8172650141570053, 2.9807163039640763)	(-6.6223546406190836, -4.9585136502250737)	1.0	slash	0.992021
11	M	A	M	B	N	B	N	A	A	8	1	shapes	A	1	True	32	(5.0999630274460674, 6.8446018446672454)	(8.0566421715664482, -8.673638717253132)	(4.9577635851112678, 2.3310562124304397)	(-5.1135538930675395, -3.7304529944029117)	1.0	z	1.03781
12	M	A	A	M					A	4	2	shapes	A	1	True	32	(-0.82283414979770786, 1.1799874427407442)	(-7.9893570721665066, -4.1288952643520744)	(2.9545811649763678, 2.6278695815099464)	(2.1010284598554989, -6.2078131493398647)	1.0	slash	2.59945
13	N	B	B	A					M	4	0	shapes	N	1	False	32	(5.0516608286039411, 1.0917622174864388)	(-6.260468090710833, -0.88525363450986116)	(8.2802888959508607, -1.8981589879931624)	(-2.0954577750970493, 7.260252944204364)	1.0	z	0.961095
14	M	A	M	N					A	4	2	shapes	M	1	False	32	(-5.5040608155189084, -1.1956335128608231)	(0.57281956806754408, 2.8919118117846345)	(7.3083430524630799, -2.4497062164424603)	(-5.9954524387979227, 3.8037521519591131)	1.0	slash	1.87442
15	N	B	B	M					B	4	2	shapes	B	1	True	32	(4.1964971633829879, 7.801219608978279)	(-6.1818020881329785, -4.0147484675974709)	(-2.4870050987400143, 0.11497044191303729)	(6.1083112684752408, -6.9598464751424585)	1.0	z	1.39799
16	M	A	M	N	A	N	B	B	M	8	0	shapes	M	1	True	32	(0.14209135048657195, 4.6122989132310401)	(8.4427529552534359, -7.5843609621688728)	(-1.865662313836661, -7.9815413754695044)	(-7.5328565894224599, 6.5326538299162777)	1.0	z	1.72171
17	M	A	B	N					N	4	2	shapes	B	1	False	32	(-2.8345509355544083, 4.5487793477936513)	(-0.59204075584013616, -6.3388312524279158)	(2.2513599332508889, 6.4446289344887369)	(2.40827442430807, -2.8879711879061114)	1.0	slash	1.52275
18	M	A	M	N					N	4	1	shapes	A	1	False	32	(-8.313551039919842, 6.6130377417358677)	(-5.8749381483491669, -3.1617798014784873)	(1.3611156470723493, -6.3916380653163714)	(7.4856191079594581, 6.4559575869013415)	1.0	z	0.924975
19	M	B	M	B	N	A	A	N	M	8	3	shapes	B	1	False	32	(-5.9853203723956483, -6.8754966366002526)	(-3.2105519815746097, 7.9505145871701188)	(-6.5558714748829878, -1.270428952021244)	(1.5596051968574258, 4.9392519263230987)	1.0	slash	1.16868
20	M	A	M	A	N	B	N	B	N	8	4	shapes	N	1	True	32	(8.2261279455217498, 2.0937052027208605)	(4.2880251663072997, -6.2707869261457745)	(5.7965143778348125, 7.4934044606657224)	(-0.99778158428561969, 1.67617092907523)	1.0	slash	1.74025
21	M	A	N	N					A	4	1	shapes	A	1	True	32	(0.60283840290955304, 5.7076945803496262)	(-6.1827141886051447, -4.5279429363263555)	(5.0370894047662222, -8.7118233116743848)	(-3.730589658417296, 1.9866159879823382)	1.0	z	2.79168
22	M	B	B	A	N	M	A	N	B	8	1	shapes	B	1	True	32	(1.9082223832642899, -2.9114232761328251)	(5.7541737025484174, 1.305509758159495)	(-3.4761826790658121, -2.6562692096439049)	(-6.6228968669415149, 4.4212158901307834)	1.0	slash	2.74906
23	N	A	M	N	M	B	B	A	A	8	5	shapes	B	1	False	32	(3.3059148562499363, -8.7099715059614038)	(-6.2568206067602983, 3.0429417446745646)	(6.1326428697500308, 2.6506180572495097)	(-4.4045522804836725, -1.0849471326484696)	1.0	slash	2.89279
24	N	A	A	N					M	4	2	shapes	A	1	False	32	(6.5279835482304147, -3.7596939909707361)	(-1.4418388200639285, -0.0024496389135322261)	(-8.062908041138817, 7.4649018585661224)	(7.0705108780454538, 0.69003990180019059)	1.0	slash	1.47647
25	M	B	N	A	A	N	M	B	M	8	6	shapes	M	1	True	32	(3.8223915964575017, 0.92781383377607973)	(1.2936722788427417, 6.3214524442435795)	(-4.0986838875935359, -6.2536658308884032)	(-7.824334927815749, -2.9881459734654241)	1.0	slash	3.46194
26	N	B	B	N					B	4	1	shapes	B	1	True	32	(-0.21790829856924709, 6.3503362084846113)	(-2.5946000913681466, -1.0564094119452045)	(5.3057088909740315, 0.26222122842700379)	(6.6722139225736452, -6.6055193821746592)	1.0	z	1.01939
27	N	A	B	M	B	M	A	N	M	8	6	shapes	A	1	False	32	(2.5055539286411346, -6.0685801797073289)	(-8.3641433527248505, 4.9049969028355438)	(0.39487903259386847, -2.6550518233917906)	(-2.9654568830132533, 6.6873885868969278)	1.0	slash	1.64495
28	N	B	B	M					M	4	3	shapes	M	1	True	32	(-2.028459619009511, 3.6670185409692735)	(6.8808601209700058, 2.5599298929156618)	(-5.6633277300372686, -5.6386211995800979)	(2.2238822348049716, -0.80172974715429746)	1.0	z	0.982484
29	M	B	A	M	N	N	A	B	B	8	7	shapes	B	1	True	32	(-2.7068014740267374, -2.5155721988079041)	(-7.1626121132929956, -1.6246541194898958)	(2.0476190115782931, 1.687716885552593)	(-2.4174044840932067, 4.3519557994689606)	1.0	z	1.07032
30	N	B	N	B					N	4	0	shapes	N	1	True	32	(-7.6576016559655606, -5.3300231969746825)	(6.1017174578859361, -4.5656695814690877)	(-3.796735291201081, 5.5919127071097776)	(8.6619126619267668, 3.7163804785250978)	1.0	z	1.01782
31	M	A	N	M	A	B	N	B	A	8	6	shapes	N	1	False	32	(5.7213274351170416, -2.2361539080760879)	(-6.8131222195814374, 4.0673058913413378)	(-2.8351350042999961, 5.9287915827096782)	(-4.087223298156113, -4.7154069324964683)	1.0	slash	1.73136
32	N	A	N	B					A	4	0	shapes	N	1	False	32	(1.1841309419297268, 6.861238377911711)	(3.554477718339502, -4.7032792299060588)	(-1.3196751534765747, -3.5134021702503313)	(-7.1112327967500875, 0.65111912283470019)	1.0	slash	1.17916
1	N	B	M	M	B	N	A	A	B	8	4	shapes	B	2	True	32	(3.7225993333645597, -1.3779241092206291)	(4.1564193348438057, 3.3694259443527397)	(-5.6942202967778037, -8.3271071647481083)	(6.1154849960573081, -7.8661875813918014)	1.0	slash	3.39076
2	N	A	A	N					N	4	2	shapes	A	2	False	32	(8.233224754594584, -8.2925148823290975)	(-6.1346558590809002, 2.6302234232137618)	(-5.9085352684816588, -3.9720859586230306)	(6.7135560216610966, 7.0031436776230205)	1.0	slash	0.848215
3	M	B	N	B					N	4	3	shapes	B	2	False	32	(5.3846414790855093, -5.4156120426011976)	(-0.54427450609900418, -3.9311043098984753)	(-3.1072378298277865, 5.0767126551496755)	(8.308782943837592, 1.5318356336705499)	1.0	slash	0.895798
4	M	B	N	A	M	A	B	N	N	8	1	shapes	B	2	False	32	(7.6055805765832467, 2.6830541027536459)	(3.2110821736486894, -8.057042022607062)	(5.0896161131660502, -1.5425960995060324)	(-1.9783097514114489, 3.1069370488856745)	1.0	slash	1.08144
5	M	B	M	A	B	A	N	N	A	8	1	shapes	B	2	False	32	(5.8231697748118378, -5.4271258930674868)	(-5.8399391721046214, 0.83816218047970992)	(2.9370645310012673, -0.94086966360830715)	(-6.890017510556687, -3.5454338260749596)	1.0	z	0.965026
6	N	B	M	B	N	M	A	A	M	8	5	shapes	M	2	True	32	(2.9778868031114829, 6.4483846879877564)	(-1.7303629872698867, 0.82438643538618273)	(-7.3868839369999328, -2.2596240405697365)	(2.5123156058884533, -4.2315247501876572)	1.0	slash	1.68854
7	N	B	A	A	M	N	M	B	A	8	2	shapes	A	2	True	32	(6.1976494771075181, -4.5108214326874059)	(-6.523267486642359, 2.844622682632858)	(-5.5773901846295555, -2.5669833137576461)	(5.420646985926707, 1.8360738537112411)	1.0	z	1.22826
8	M	B	M	B	A	A	N	N	N	8	6	shapes	N	2	True	32	(6.1030855706669396, -1.7597319391046566)	(3.637638356978016, 1.7256990643344494)	(6.6249109431880253, 6.9241901862399988)	(-7.4023802041195861, 2.5281251705624932)	1.0	slash	1.15374
9	M	A	A	B					A	4	1	shapes	A	2	True	32	(5.2734445985492666, -6.8360113493947861)	(-0.27160833060554701, 7.9542761441088423)	(-4.6216167227572278, -8.0625680825748862)	(1.2784883407533325, 3.6679099915161988)	1.0	slash	1.22956
10	N	A	A	N	B	B	M	M	N	8	2	shapes	A	2	False	32	(4.3020623809884349, 7.2154026539317631)	(-5.8342559494502853, -0.44469598813632238)	(2.3995678620552958, -1.6321360048674647)	(-3.1643160637394034, -6.1622429437159569)	1.0	slash	2.3891
11	N	B	A	B					M	4	1	shapes	B	2	False	32	(3.9557308519589363, 1.8944019909944316)	(-8.1444431599799323, -7.0098601331221122)	(-3.9343844568593465, 7.5524107376974499)	(0.50165326581052305, -7.4255795840183128)	1.0	slash	0.984225
12	M	B	B	M					M	4	0	shapes	M	2	True	32	(3.0281667485953534, 6.3841415302499716)	(-4.36848758549396, -4.1987692961502434)	(-7.523196782739749, 3.2125424487929113)	(5.1764824051838243, -6.5459733785198431)	1.0	z	1.70794
13	N	B	M	M					M	4	0	shapes	N	2	False	32	(4.0009020899239722, -3.0556860501611149)	(-7.3854559703075822, -7.1419773584526407)	(-5.2055148405335254, 4.6672677754361835)	(5.4271360899421435, 3.7784937852043701)	1.0	z	2.744
14	N	B	A	B					N	4	1	shapes	B	2	False	32	(-6.5573572900865971, 5.2092206627586801)	(5.1752979683772704, -1.3554366907765329)	(3.3279670493188966, 5.931862162040888)	(-2.9939645831527022, -8.3637773909256161)	1.0	slash	1.15548
15	M	A	B	N	N	M	B	A	B	8	3	shapes	N	2	False	32	(-2.6407264188481179, -2.8253115967707982)	(-7.5304081456575869, 6.2007479572127426)	(2.0930636072243995, 2.6954704285564812)	(-3.9918234243244815, -8.7042178446513301)	1.0	slash	1.36725
16	N	B	N	A					A	4	3	shapes	A	2	True	32	(-5.5293187473209358, 1.3631712702756111)	(-3.9020855728000896, -6.8355780540961657)	(1.0103428521788622, 0.27397672918780991)	(2.2729330647196697, -5.1260920216740598)	1.0	z	3.61661
17	M	A	N	N					B	4	2	shapes	N	2	False	32	(7.4565245453031075, -7.5300358825913829)	(-4.7171083689883719, 8.6085432743475039)	(-3.743363948957307, -8.0242226148568729)	(6.7155145011961892, 3.0599227551651378)	1.0	slash	0.960155
18	M	B	A	M	B	N	A	N	B	8	3	shapes	M	2	False	32	(4.6921821107923432, 3.7124554085180606)	(8.0279141921895025, 1.0698139340979758)	(-1.1148544790453174, 1.3641973325758556)	(-7.6626226815439304, 8.2075201654042758)	1.0	slash	3.14003
19	N	B	N	B	M	A	M	A	M	8	6	shapes	M	2	True	32	(-7.9788216376274823, -4.4343170727569543)	(-6.7270068579337945, 8.5160014391923831)	(8.3183104988882235, 0.72737867846467985)	(2.7446863589408608, -6.642478432990691)	1.0	slash	1.30101
20	M	B	N	N					N	4	2	shapes	N	2	True	32	(-0.2431269346395144, 2.7453361960630414)	(8.4658072377162625, -5.4176942691109407)	(4.3279426106162298, 4.8583756634027075)	(-7.4579151806696515, -7.0036817684568531)	1.0	z	0.994797
21	M	A	N	N	B	B	M	A	N	8	3	shapes	N	2	True	32	(4.7048235189633036, -6.6293848891567446)	(5.3345048253578664, -1.8944814664720893)	(-2.1456143424815597, -7.4057820763755657)	(5.6850004630878299, 6.464415349105094)	1.0	z	1.2084
22	M	B	B	M					M	4	3	shapes	M	2	True	32	(-5.1214467411631022, -5.4186303175733945)	(0.028403306637443393, -0.66100927881274352)	(7.4669659606203957, 8.4753563305095412)	(-4.5580357299397454, 3.5787546930523781)	1.0	z	1.10413
23	N	B	N	B	M	A	M	A	N	8	1	shapes	B	2	False	32	(-5.5018774930725129, 1.0514181510787513)	(-7.4998091702118117, 7.3534854769132885)	(-4.7634544063927704, -7.2362427916704108)	(-0.044120199372221336, -7.032235838367253)	1.0	slash	1.19966
24	M	B	M	B	A	A	N	N	N	8	5	shapes	A	2	False	32	(6.8095510654109166, 6.8250586173413481)	(1.2395401784735132, 4.293818572350915)	(-0.82808362602706698, -7.9259104214258933)	(-6.8457356975049377, -3.9203877290639753)	1.0	slash	1.24531
25	M	A	M	A	N	B	N	B	B	8	5	shapes	B	2	True	32	(-4.4015731645576555, -0.87903135510729147)	(-6.0377110875734514, -4.8847048668635553)	(8.4302799184077308, 6.5868332669566758)	(-6.9726737412408699, 3.5933250250756252)	1.0	z	1.24922
26	M	B	M	A					A	4	1	shapes	B	2	False	32	(-4.0090298257630428, -5.3318462042348367)	(5.1462073053321635, 1.0306744911311814)	(3.8101956933883372, -7.4312071753564055)	(-5.4120584319591902, 5.5396128953901034)	1.0	slash	2.41651
27	N	B	M	M					A	4	0	shapes	N	2	False	32	(-0.3077314315625852, 2.5212131917299381)	(-0.14847034997329622, -3.7668742176235508)	(6.4789179054901957, -5.5819139973847189)	(5.5068965416078921, 5.4262131901162913)	1.0	z	0.960143
28	N	B	M	M					B	4	1	shapes	B	2	True	32	(-4.1321465132457131, 7.7933401946343572)	(-7.4543695304064315, -8.1678457655033174)	(1.8998448980968039, 3.2642334401972253)	(3.303118458162853, -1.2129972264208604)	1.0	z	1.41778
29	N	A	B	N	A	B	M	M	A	8	0	shapes	N	2	False	32	(-3.6420161358689036, 7.4024292213651357)	(-2.4653405077142381, -3.0722516524788395)	(6.7058249578555991, -2.0545028192561059)	(4.6727227986214004, 1.8356061830387276)	1.0	z	2.54473
30	M	B	M	N					M	4	2	shapes	M	2	True	32	(-4.9664982922121359, 6.9675463071778037)	(1.3816945528499858, 7.0830471804322475)	(-1.5144675624191253, -8.2771486040485591)	(1.022859525893006, -1.3627682087643187)	1.0	z	1.06492
31	M	A	B	A					A	4	3	shapes	A	2	True	32	(4.5107121697215291, -3.619849715762455)	(-3.4825113775303098, 2.6672395601162826)	(-3.2572198772023411, -6.4910338254920426)	(8.3526316578540758, 1.0422464472946569)	1.0	z	0.846577
32	N	A	M	N	A	B	M	B	A	8	4	shapes	A	2	True	32	(7.4276741668344428, -5.2351177537042721)	(7.8235821566883708, 5.7167297910170003)	(7.2117725976763793, 1.6119038950585427)	(-8.3498500340123059, 2.9899334722129982)	1.0	z	1.08204
1	M	B	N	B					M	4	0	shapes	M	3	True	32	(-1.493174018615985, 3.8470206305689718)	(-4.6294940218128042, -0.33570098159490946)	(2.3543284421878852, 5.5732213478331385)	(5.5464575992047465, -4.714365993235746)	1.0	z	0.878033
2	N	A	A	B					B	4	3	shapes	B	3	True	32	(-2.8622247011983841, -1.4189692993796852)	(-7.9396701662812994, 7.6738311390377127)	(8.2866311079970529, -2.4180557169332202)	(0.87355225757133503, 3.5725550357719804)	1.0	z	0.887481
3	N	A	N	B	A	B	M	M	M	8	0	shapes	N	3	False	32	(-3.6802642152118219, 1.5778975100245312)	(-8.5830943926367134, -4.2990959171574401)	(0.4482127634527231, -0.56188802721311149)	(5.3888221336207422, -3.7575657491131356)	1.0	slash	0.938994
4	N	B	B	N					B	4	1	shapes	B	3	True	32	(-3.3690703014618677, -5.1945147833929548)	(8.6008456002770117, 8.4778438017985209)	(-7.8398089299510652, 5.2451555011401165)	(0.62378013194423509, -6.3947942312190795)	1.0	z	0.840749
5	M	A	M	B					B	4	1	shapes	A	3	False	32	(-8.3996162128271035, -1.2557192432824751)	(7.7929472404682656, -6.0447603047232672)	(7.887924238555712, 4.65089815489827)	(-8.5791989136370965, 6.0981512587937239)	1.0	slash	1.2583
6	N	B	A	B	A	N	M	M	A	8	2	shapes	A	3	True	32	(-3.9777179398138323, 5.3666335251150894)	(6.6032493330945083, 3.1281192987193087)	(-3.9244668340997819, -3.2227033099502584)	(2.2720722801061832, 3.3873105948562845)	1.0	slash	1.57989
7	M	B	M	N					N	4	2	shapes	M	3	False	32	(-7.9627198956329384, 8.2474459219161673)	(-5.8524768715209508, -6.9987377114029403)	(4.9016699729502129, -1.7642501210515649)	(2.7402532147515437, 5.5552710121865498)	1.0	slash	1.16285
8	N	B	M	M					M	4	3	shapes	M	3	True	32	(-1.0384270420516977, 3.676011362518004)	(-4.199486207390362, -6.9419471042343011)	(3.069275192297928, 1.5302732385559494)	(0.4276022182702075, -2.58495418328258)	1.0	z	0.843001
9	N	A	B	A					N	4	0	shapes	N	3	True	32	(-7.6553067078223842, 7.1288896491726028)	(2.6741415965157902, 6.3363911159855668)	(-2.5712630634484794, -1.494764553953484)	(4.0294866848965647, -7.1044571854430938)	1.0	z	1.55689
10	N	A	M	M	A	N	B	B	B	8	0	shapes	N	3	False	32	(2.1862044297710632, 5.7671303854025737)	(8.1604500199320107, -1.2133761959465392)	(6.2626302201415847, 2.4459236683072589)	(1.7554866819911172, -0.22360511398268024)	1.0	slash	2.07396
11	M	B	N	B					N	4	2	shapes	N	3	True	32	(4.8520109515984799, -6.3196678613109949)	(-2.6898898359371053, -8.3620162370571922)	(5.6672183984048345, 7.5919369498138352)	(-4.6364159049089801, 6.911788532378905)	1.0	slash	0.902038
12	N	B	A	B					M	4	3	shapes	B	3	False	32	(-1.4409597485750005, -3.1018366220593094)	(-2.0837322733986809, 1.172049154836257)	(7.3399958100290128, 5.3290694420643039)	(5.6501913616263728, -2.3794970598062983)	1.0	slash	1.00383
13	N	B	A	N	B	A	M	M	A	8	4	shapes	B	3	False	32	(7.4222959347156952, 7.4219104636089206)	(-2.2359606822330846, 2.2029001259552246)	(3.5363363342847443, 1.0658804992153694)	(-1.3419158320572073, 7.1001989565482919)	1.0	z	1.57523
14	N	A	B	B					A	4	0	shapes	N	3	False	32	(5.9421531403904133, 1.4044041507975695)	(3.5898120651795811, -3.1093929732533434)	(-5.9309261817933887, 5.4721366146388828)	(-3.96317515397467, -3.8491010325002248)	1.0	slash	1.08686
15	N	A	N	B	M	B	M	A	B	8	5	shapes	B	3	True	32	(2.8517053696253942, -2.7800158129673438)	(8.4320754538598877, -1.2568787757325568)	(-8.4843169541069017, -2.8668354121901558)	(-2.2240553310879774, 0.18157353311851665)	1.0	z	1.5386
16	N	B	B	M					M	4	1	shapes	B	3	False	32	(6.6910651831257812, 2.8251789172884312)	(-2.2514637361656797, -1.963296931778669)	(-0.71775467507954183, 4.9465669317218541)	(5.0559457937418095, -7.2156864026983518)	1.0	slash	1.04003
17	M	B	A	B	M	N	A	N	M	8	4	shapes	M	3	True	32	(-7.9812156663142249, -3.6955511952626061)	(6.4100965509576646, -7.2216082539191095)	(3.7887234831299921, 3.4696703126971418)	(-3.1389605260728635, -0.35878853269662692)	1.0	z	1.97377
18	M	B	M	B	A	A	N	N	N	8	6	shapes	N	3	True	32	(6.2881701475808427, 5.5578972547846703)	(1.5188703657742533, 4.8611068080123321)	(-8.532747489526356, -1.5230088175704273)	(-5.8085724242016852, 3.5662733492183154)	1.0	slash	1.49522
19	N	B	M	M	A	A	B	N	B	8	3	shapes	M	3	False	32	(-3.1860757567339704, 3.2339149473427913)	(-1.5530615421499077, -2.2488157824168127)	(6.6221600400566203, -7.918914246012462)	(1.2365226106946672, 3.7432453301738065)	1.0	slash	1.19289
20	M	A	N	N					N	4	3	shapes	N	3	True	32	(-3.881311850740758, -0.30255464209169425)	(0.97394861349200745, 3.7945094664828574)	(5.6292803347810292, -1.1896378214091365)	(-3.5805957396651253, 7.6419053421308405)	1.0	z	1.78853
21	N	B	B	N	A	M	A	M	M	8	5	shapes	M	3	True	32	(-1.4662132430006238, -6.7696965315670452)	(4.1935950739229817, 5.5161355304364381)	(-8.7345731172209451, 8.674507400841172)	(-4.7915130672307882, 4.0549422458939244)	1.0	slash	2.62016
22	M	A	A	N					A	4	2	shapes	A	3	True	32	(-7.1610373709922239, 6.7728709048671618)	(-7.7915858145188048, -3.2459094811044542)	(2.1394172334523489, -0.62809808787784149)	(7.1148472742293691, 4.993330319482844)	1.0	z	0.993666
23	M	B	A	N					M	4	1	shapes	B	3	False	32	(-3.0954977314098677, -5.620456983926724)	(3.4885320658533541, 7.8449190752612772)	(5.5203898101505384, -4.0810328006631025)	(-4.9210784447875575, 6.4930824902053761)	1.0	slash	1.18881
24	N	A	B	A	B	M	M	N	N	8	0	shapes	N	3	True	32	(-6.6456827879915306, 2.2792770061855023)	(3.1467674575599673, 4.3102666098521336)	(-6.0897877504787248, -6.3929340329260329)	(-5.1373538061590649, 6.2123123652233438)	1.0	slash	1.46073
25	N	B	M	N	M	A	B	A	A	8	4	shapes	M	3	False	32	(8.5531541148921093, 8.5863140400115689)	(6.0297122840777728, -8.1086455199990493)	(-1.0702036739827774, -6.8676742972143305)	(4.3664281087303873, -2.8098901313642779)	1.0	slash	1.14249
26	N	B	M	B	A	N	M	A	B	8	3	shapes	B	3	True	32	(0.712617833836104, -7.0671252348914582)	(-3.1326608276653722, 3.5050899867940064)	(-4.9876292327757241, 7.8589341083540134)	(6.8459284315032267, -7.6735019336218064)	1.0	z	1.33427
27	N	A	M	B	B	M	A	N	B	8	1	shapes	A	3	False	32	(-2.5398550969958258, -4.4279904530363181)	(2.7855021192999843, -4.1129219483813246)	(-8.0017247919125332, -8.4559686477723837)	(8.6495057103395006, -7.2864747123242388)	1.0	slash	1.2358
28	N	A	M	N	B	A	B	M	M	8	0	shapes	N	3	False	32	(6.9583119042670987, -4.6537010303151778)	(-0.96443532707508961, -2.0315937310831655)	(-4.9857051186126471, 3.315399546790708)	(6.2394309968376369, 8.2924727127829243)	1.0	z	1.69685
29	M	B	A	A					B	4	0	shapes	M	3	False	32	(7.8599247935900713, 5.9239858614378864)	(3.0570414871110643, -4.2586989530772961)	(-3.3739197323759713, -1.0533262930717298)	(-7.1190349426347286, 8.71348285597767)	1.0	slash	0.894805
30	N	B	N	M	A	M	B	A	A	8	0	shapes	N	3	False	32	(-6.0636203554165204, 8.2824299875576166)	(4.3189682858523071, 5.8429124224623585)	(4.970132349632884, -6.8326247147172108)	(7.7093987017000245, -1.4467077785576947)	1.0	slash	1.82096
31	M	B	B	A	M	A	N	N	A	8	3	shapes	A	3	True	32	(-8.1321342772374212, 4.4205244036940616)	(-4.0524237718020757, 3.2591193076032035)	(0.99272802414594175, -8.6375930110994794)	(8.0057494459982728, 7.0933424150813451)	1.0	z	1.28618
32	N	B	N	M					A	4	3	shapes	M	3	False	32	(-6.6455928339857229, 5.8825803814613842)	(-1.9344783194104265, -1.5658515778229409)	(7.6973193165110949, 0.73156958211708378)	(3.0802606470966438, -2.9088544057088042)	1.0	slash	0.919842
1	M	B	M	B	N	N	A	A	N	8	4	shapes	N	4	True	32	(1.9963290328666066, 6.6205062222344075)	(4.3863881573016332, -0.27535486943751408)	(-3.98749501924586, 0.18762836543847428)	(2.7296224707403347, -7.765510612955973)	1.0	slash	1.30326
2	N	A	N	B					B	4	0	shapes	N	4	False	32	(-4.9229462141723292, -3.4261820744755624)	(8.1055601520687262, 5.9012833850347697)	(4.816835621678262, -2.0044546952067392)	(-2.3394098966039554, 2.1438409219684509)	1.0	slash	2.07034
3	M	B	M	N	B	N	A	A	B	8	7	shapes	A	4	False	32	(-4.0431458932060043, 8.3892821843795389)	(5.2474159952482911, 3.8341907352749995)	(6.4568893570904287, -8.6472893816719782)	(6.8650382086917716, 8.1481571682789031)	1.0	slash	2.3466
4	M	B	M	A					M	4	0	shapes	M	4	True	32	(-6.6486954316709195, 3.3541771255203479)	(4.5831216217923654, 0.83681987275821257)	(-7.6019144281660056, -1.1707345382555072)	(7.0060896968927366, -3.2223623949762015)	1.0	z	2.19829
5	M	A	B	N	N	B	M	A	B	8	4	shapes	N	4	False	32	(0.57550287865472605, -1.0515556567908524)	(6.9597366587025355, 1.9564780838116285)	(-3.8136650520010189, -8.3127274271705573)	(-6.5980693665786081, -4.0794832564174666)	1.0	slash	1.54549
6	N	A	M	B					N	4	2	shapes	M	4	False	32	(3.2040643411503531, -2.6241171076682912)	(-7.4945789213674585, 5.5225577864623148)	(6.5735518310797065, 6.6212820398141101)	(-7.0320697669495171, -3.2957255875387066)	1.0	slash	1.3913
7	M	A	A	N	N	B	M	B	B	8	5	shapes	B	4	True	32	(4.2949640870009116, 2.2630508501585016)	(1.6196470115467534, 7.1861276966857748)	(-7.4787043581564046, -7.4341904528301797)	(-5.1622857437619682, -0.14107466817936931)	1.0	z	1.0288
8	N	B	B	M					A	4	3	shapes	M	4	False	32	(-3.4518720351997283, -2.377720180413287)	(-1.2599140670371387, 2.3065011180684554)	(6.7899281597963714, 3.6564699014567257)	(3.8217827958033386, -5.1524572795571082)	1.0	slash	0.920371
9	M	A	B	M					B	4	2	shapes	B	4	True	32	(8.3982560609847852, -0.02511153930723431)	(-2.9371173941189941, 1.5755860458483006)	(-1.5036504098995529, -6.4542111069556096)	(7.9554291766368301, 5.9570662899850149)	1.0	z	0.954088
10	M	A	M	A	B	N	N	B	A	8	2	shapes	M	4	False	32	(3.8257599362445429, -6.6234136598980831)	(-7.2721508787402804, -1.5776122194457729)	(1.0454908715096085, -0.61063444405437295)	(-2.1733288081395568, -4.5675889534327876)	1.0	slash	1.12768
11	N	B	B	A	A	M	M	N	A	8	1	shapes	B	4	False	32	(2.3064180153322056, 2.0227169292886575)	(0.60525619682842269, 7.7888078464731194)	(-2.7980694657292542, 2.7299222781785648)	(7.230729294447217, -3.5469806452329378)	1.0	z	2.53927
12	M	B	N	A	N	M	B	A	N	8	4	shapes	N	4	True	32	(-7.3008214905939255, 8.4762588421894094)	(-5.6105224153247706, 2.2406259985277117)	(-0.3094688020433658, -0.93349696527983106)	(8.6271406578214673, -0.34613698267083315)	1.0	z	1.52487
13	N	B	A	A					B	4	2	shapes	A	4	False	32	(-6.1453782753401489, -6.0164753713156331)	(-0.71245541647129684, 5.4026745331692414)	(8.6395457574745294, -7.2875339103779897)	(7.9839648107143688, 0.55471950099706646)	1.0	slash	2.10257
14	M	A	B	B					N	4	1	shapes	A	4	False	32	(5.8164249668512227, 2.5558556061557827)	(3.372139075880332, -6.9668183735875076)	(-2.4383869221098857, 3.9978451190981428)	(-1.683712462359491, -0.67080482236691807)	1.0	slash	0.876055
15	N	B	N	M	A	A	B	M	N	8	2	shapes	N	4	True	32	(8.4553333355725329, -5.0572201244117956)	(-1.901248862992893, -3.3313515884658607)	(-5.8530565328406343, 5.7055479178630222)	(6.0056008116162332, -8.4114129674271076)	1.0	z	0.969836
16	N	A	A	N	M	M	B	B	A	8	6	shapes	B	4	False	32	(-6.1717737655213174, 0.037526853115647185)	(-3.8196241264740003, 5.1694872117428226)	(-7.6870074352850413, -5.3059247032363217)	(-2.1415144840789644, -3.1403339816666813)	1.0	z	1.42135
17	N	B	N	B	A	A	M	M	M	8	3	shapes	B	4	False	32	(-6.7755539672109197, -2.7745296951825154)	(-1.0443741419705272, -7.7824893284660375)	(-8.6097212692207616, 6.2724427155941651)	(-2.5484093611226131, 5.9907725526616016)	1.0	slash	1.10097
18	N	B	N	M	A	M	A	B	B	8	7	shapes	B	4	True	32	(5.8709878380755036, 7.0793214254557775)	(7.1825462339519301, -7.8526118075505789)	(-1.774914889800395, -1.8739833828135515)	(-5.1730875115053552, 3.0363999892759992)	1.0	slash	2.59657
19	M	A	A	N					M	4	0	shapes	M	4	True	32	(-4.956039367882676, 3.4542953037880899)	(-3.2017693358795887, -7.469544850045831)	(5.5944919473616412, 4.8067079151006187)	(6.6061065771546055, -5.3422582225562616)	1.0	z	1.1202
20	N	B	M	A	M	N	B	A	M	8	6	shapes	B	4	False	32	(2.6802156443828196, 1.6163009169100917)	(-2.5203776535750499, -0.021804656848164683)	(4.4954315889918117, 5.4876359568498749)	(-4.1662525009349611, -4.5929054439520902)	1.0	z	2.27779
21	N	A	N	M					M	4	3	shapes	M	4	True	32	(4.4094899695648984, 4.9194237391258078)	(6.8442200338133574, -1.6458491744710075)	(-7.7615377907462566, -1.0038201841752343)	(-5.277891316259943, 2.3414034636151762)	1.0	z	0.958788
22	N	B	M	B	A	M	N	A	M	8	6	shapes	N	4	False	32	(6.9944453531346245, -4.5185257747017298)	(4.0384372615082018, 1.3467973203534385)	(0.1604496378601965, -0.049296729653946159)	(8.3663618861476152, 2.3001052867119256)	1.0	z	0.956883
23	M	A	A	M					M	4	3	shapes	M	4	True	32	(2.549414509455195, -7.1675685004920071)	(-1.6574392831234306, 5.9937815819035478)	(-4.698016795795918, -1.8048504570670945)	(5.5058104723920671, 3.6661795310979493)	1.0	z	0.792558
24	N	B	N	B	M	M	A	A	B	8	3	shapes	B	4	True	32	(7.5504364873493195, -1.3726824227066006)	(0.7492505064531656, -3.8632342712561067)	(-1.8195866994408165, -0.25336008527999354)	(3.6008338631558878, 7.5530211684376489)	1.0	z	0.892295
25	N	A	N	M					N	4	2	shapes	N	4	True	32	(2.3356586162191384, -7.5378420347710957)	(6.6263657769485285, 7.4722268256961293)	(-7.6123796668212043, 2.8991943131886977)	(-4.0012499713005161, -4.2285883728503419)	1.0	z	0.971845
26	M	B	A	A					M	4	1	shapes	B	4	False	32	(-6.5505370512971863, 6.9093618129740797)	(7.8813849410487862, 1.5153907865625982)	(-0.31495146392904338, -2.0845604542205516)	(4.2470908235727407, -2.8037575415167124)	1.0	slash	0.835548
27	M	B	M	A					M	4	0	shapes	M	4	True	32	(8.3927359340219994, -0.32548022694955492)	(-6.0236062105723356, -3.3207374180708831)	(-6.3105073876953579, 3.1094692989969044)	(2.8598036366687722, 8.7114626804937743)	1.0	z	0.91909
28	N	A	A	N					B	4	2	shapes	A	4	False	32	(8.3811226536547103, 2.0883644726351509)	(-8.0735095652427642, -6.291134107189329)	(5.619018809355623, -7.996363854868429)	(-5.6354444482040389, 6.9104029312669759)	1.0	z	3.83096
29	N	B	B	A	M	M	A	N	B	8	1	shapes	B	4	True	32	(4.6336588446801148, 4.8881689646827819)	(7.8392635941619844, 8.3588304964232059)	(6.2180458428611054, -5.9481033112519146)	(-4.8894657221080768, 0.86112423831197304)	1.0	slash	1.21022
30	N	A	M	B					M	4	3	shapes	B	4	False	32	(-7.2543543607632603, 0.9611556307511222)	(-7.6156632293642854, -5.9800611276901456)	(2.9575800325783934, -5.3946994014123399)	(4.2197746690514517, 0.14160615043261693)	1.0	slash	0.801921
31	M	A	M	A	N	B	B	N	M	8	2	shapes	M	4	True	32	(-6.4466415436875355, -2.0102554388464462)	(7.0876623958857383, 3.8366758168807511)	(4.9124165453512934, -2.3659400902840213)	(2.0265973739806125, 1.0838101881324942)	1.0	z	1.32544
32	N	B	A	N					N	4	0	shapes	N	4	True	32	(3.8544436305871415, 6.8133113366685816)	(-5.4498159202310248, 3.2826650205999286)	(8.0648378113699302, -0.45896253723643099)	(-5.9178124159266208, -5.3431332083065346)	1.0	z	1.00914
1	M	A	B	M	B	N	N	A	M	8	5	shapes	N	5	False	32	(3.6322272883837492, -8.4807076066230529)	(-5.6651440074754378, -7.5743484049614249)	(0.95883678643087755, 7.0114609901637301)	(-6.4811888703081451, 6.6085163414351751)	1.0	slash	0.892851
2	N	A	A	M	N	B	M	B	B	8	5	shapes	B	5	True	32	(6.0275416792101186, 0.20271404639865587)	(-0.42565693486687728, -7.4306052733640193)	(-4.5751596551038523, 5.3125271362716688)	(-4.8820024065304644, -1.6247527576919341)	1.0	z	0.926416
3	N	B	M	N					M	4	1	shapes	B	5	False	32	(-4.8239747479450488, -0.77819094349832785)	(5.594960214337485, 5.4003584672381386)	(-4.9067570862912762, 4.3154239451250138)	(2.8314472599406102, -2.0281539152139425)	1.0	slash	0.952148
4	N	A	M	A	M	N	B	B	M	8	5	shapes	N	5	False	32	(2.4667461510915007, -3.1615385792810171)	(-2.588171512442405, -0.12927251628208047)	(-6.9513511657304434, 8.5482208833361284)	(-5.8011416616669367, -4.5650559276014224)	1.0	slash	1.70163
5	M	B	N	B	A	M	A	N	N	8	2	shapes	N	5	True	32	(7.2274482846275205, 1.7308447178730582)	(2.2163338822644842, 8.1854624933842217)	(-0.66909331686642304, -6.9237004582159489)	(-3.3211590792536949, 7.2232608057084047)	1.0	z	1.45326
6	N	A	N	M	M	B	B	A	A	8	0	shapes	N	5	False	32	(7.4220048715653917, -2.0519608417146227)	(-3.9510992536990681, -2.5939544035046129)	(3.0325237836773571, 3.1219982708521243)	(-5.8358664639143507, 2.7442451714619054)	1.0	slash	1.24674
7	M	A	A	B					M	4	1	shapes	A	5	False	32	(-3.500482884077198, -3.3585905191087644)	(2.5419009500727636, -5.0624054956698403)	(0.75441884754737387, 7.5763806475686977)	(-3.4615786386026448, 8.0093203093352408)	1.0	slash	0.958439
8	M	A	B	A					B	4	3	shapes	A	5	False	32	(-2.4048788310983804, 5.7896401813631986)	(0.29268254742049926, 0.52016238942409565)	(-2.3854357286419381, -5.4200611178801621)	(2.8788083041849468, -7.5425939529951673)	1.0	z	1.10412
9	N	A	M	N	M	A	B	B	B	8	2	shapes	M	5	False	32	(-0.20945147523618779, 2.5386151727001494)	(-3.7513331922171407, -8.2970431377368463)	(8.6817001128623019, -5.9603866123183069)	(-5.0460619184420681, 3.8902346906484855)	1.0	slash	1.17573
10	M	B	B	N	M	N	A	A	B	8	2	shapes	B	5	True	32	(2.0127763510313983, 0.38159303720948223)	(1.1950457551610008, 5.2564078067863882)	(5.8362787493261212, -2.0443278769796223)	(-4.5544080383050378, 1.954756111217355)	1.0	slash	1.17343
11	N	A	A	M					A	4	1	shapes	A	5	True	32	(-2.1711051303069757, 5.5257158305255576)	(0.11077072678997801, -5.3310465137702341)	(3.0561375543903377, 5.2429817449275777)	(-8.0358369999611963, -2.8475346367591143)	1.0	z	0.985014
12	M	B	M	N					N	4	3	shapes	N	5	True	32	(3.9810679999483529, 1.6558902068143073)	(-7.9828408474504888, 4.2979304818927737)	(-0.57818200814546827, -2.6966024145700898)	(3.7837040521107159, -8.5050052478980156)	1.0	z	0.87865
13	M	B	N	B					A	4	1	shapes	B	5	False	32	(0.63184149533040035, 4.4878216672195883)	(1.1367863597812242, -8.1724076818921496)	(-3.3512173234156126, -0.98551735991749112)	(-4.4104434918541973, 6.7298166256019449)	1.0	z	1.60835
14	M	B	B	A					N	4	3	shapes	A	5	False	32	(8.5216959697358234, 2.0294048746466959)	(-6.3242030755227123, 7.4126951137715942)	(-3.3887456887085392, -8.7012816425482509)	(4.6698671981629865, -8.1879319237847472)	1.0	slash	1.03389
15	N	B	A	N	A	M	B	M	B	8	1	shapes	B	5	True	32	(-7.7131593288932336, 6.4681087762731106)	(5.0957258267446157, -4.0950335864588991)	(-7.9691162994954201, -2.2108191859387052)	(-1.3630010304131757, 5.2210888960821524)	1.0	slash	2.74347
16	M	B	A	N	A	B	M	N	M	8	1	shapes	B	5	False	32	(4.224463853565867, -7.1098223912419751)	(7.1933329220586231, 5.3241411023351368)	(0.11644066591115099, -7.5146125127091379)	(-6.7106147006369294, -8.5565572700150039)	1.0	z	1.20693
17	M	B	N	M					M	4	0	shapes	M	5	True	32	(-5.7979072776940299, 0.98042736038642353)	(1.4505748313337357, -0.11548556288641798)	(-3.6666373130892795, -3.8484055009417784)	(6.1698061563217941, 8.418983976364526)	1.0	z	1.25668
18	M	B	N	A					A	4	3	shapes	A	5	True	32	(6.8847674093326212, 8.2256118255071442)	(5.0585595200994753, -5.8523415072273082)	(-0.029984930222486383, 4.5199491363077904)	(-7.1425629604408627, -8.2006411525907357)	1.0	z	0.848312
19	N	B	N	B					A	4	1	shapes	B	5	False	32	(-4.2060920645910356, -4.7541790119722531)	(-5.6743793540345226, 4.3540628383848343)	(3.5409974931296571, 3.9622130755648719)	(4.500472963710699, -2.8085628137438201)	1.0	z	1.43979
20	M	B	M	A					B	4	1	shapes	B	5	True	32	(-8.5824623485079936, 3.2705056245965718)	(-1.9532254263309801, -5.4047190528666036)	(5.790845798650599, -8.5366478636595033)	(2.0539425830298956, 0.56491720956963398)	1.0	z	2.89745
21	M	B	B	A					N	4	3	shapes	A	5	False	32	(-8.4040174909814311, 8.5661154483165305)	(4.4867317535130216, -1.9814658598738042)	(-3.7958022303561174, -5.0119069494459669)	(4.9091391528398773, 8.5804828439535576)	1.0	slash	1.18683
22	N	A	M	M					A	4	1	shapes	A	5	True	32	(-1.8330336694326501, -2.9808088681653917)	(-3.2302922617213561, 7.0414499779750379)	(3.7133125293140559, -7.4343204001786365)	(5.2164277860716997, 6.5505817203282959)	1.0	slash	1.81649
23	N	B	B	M	A	M	N	A	B	8	1	shapes	B	5	True	32	(2.6230600563706012, 4.9638565167798081)	(-4.9477986153888942, -2.9118112445785886)	(4.9985587147529049, 0.24168838451383756)	(-8.1383026144627877, 7.5696243255288813)	1.0	slash	2.2822
24	M	B	N	M	A	B	N	A	B	8	2	shapes	N	5	False	32	(1.5934006183240452, 8.6615896328916158)	(2.4099431616766971, 2.986147923446719)	(-1.2324698714724578, -8.1833060705608709)	(-6.3111125068082421, -0.90439562789159211)	1.0	slash	0.997673
25	M	B	M	A	A	N	N	B	A	8	4	shapes	A	5	True	32	(0.098161617509058274, 7.1081687382256806)	(7.019375382977719, -4.7606308659315744)	(-6.7569414934068739, 4.4528982460030502)	(-4.9490772637056537, -0.69601228581205277)	1.0	z	0.825483
26	M	A	N	A					A	4	3	shapes	A	5	True	32	(-7.5893505035210751, -7.2283692065363336)	(0.31705548116192084, 4.6746405587388473)	(2.8553713324533394, -6.3549658002369043)	(-5.6344179613207812, 8.2324495056168416)	1.0	z	0.830969
27	N	A	A	B	B	M	N	M	B	8	6	shapes	N	5	False	32	(-8.5077964888003379, 6.5196897683535688)	(1.5408031024772875, 8.1767427554711993)	(4.6987226914233844, -6.6508147249303837)	(3.1430384061416845, 0.77255996585779307)	1.0	z	1.3406
28	N	A	B	N	M	A	B	M	M	8	1	shapes	A	5	False	32	(5.588151976908982, -3.4196209216557163)	(4.9281834468133123, -8.5892277700336503)	(-2.3056718353659882, 5.9531044982359393)	(-3.2269615017422915, -5.3751600228682541)	1.0	z	1.15394
29	M	B	A	A					A	4	2	shapes	A	5	True	32	(-4.8488011971557734, 0.85880343840196716)	(4.9894270773237679, 2.9683097409612067)	(0.45086466031126626, -7.9493678458726214)	(-6.4500412903341253, -3.5168175325698039)	1.0	z	1.94992
30	M	A	B	A					B	4	3	shapes	A	5	False	32	(-0.80993761790994512, -5.9807482750792627)	(-0.98102202526083104, 6.8781551532579517)	(2.5722641173075544, 4.7011301260767979)	(4.9367759968841813, -7.435217171342245)	1.0	slash	1.12949
31	M	B	M	N	A	B	A	N	M	8	2	shapes	M	5	True	32	(7.0325091424246224, 0.077714685411626405)	(-0.41570620564783489, -6.7423607236110801)	(-5.2263414867664633, -5.7072628867905291)	(-6.5082408115687977, 4.7611869597702228)	1.0	slash	1.70849
32	N	B	M	M	A	B	A	N	A	8	6	shapes	A	5	True	32	(-3.4872468558489107, 5.6386644150172032)	(-0.75418754305696911, -7.9097207533590597)	(-7.6023469403778634, -4.4667340279675383)	(6.7538816925849368, -5.8782368370176989)	1.0	z	0.932883
1	N	A	B	A					N	4	2	shapes	B	6	False	32	(5.2806824359438327, 7.6899621150263151)	(-5.4433756043659995, -4.4212315223890215)	(-1.4163879591413275, 5.9280142604445718)	(7.9779358799052211, -3.0987949734937823)	1.0	slash	1.45443
2	M	A	A	B					M	4	2	shapes	A	6	False	32	(2.5596658640398573, -6.9256558246850553)	(-8.4853062293216901, -6.7123852128530253)	(-5.091076743156929, 2.2926750317055866)	(4.3888505793982642, 7.682328849364815)	1.0	slash	0.685976
3	N	B	A	N	B	M	M	A	A	8	6	shapes	M	6	False	32	(0.78994834201741071, 2.1177969118244722)	(-8.4563723096004235, -4.5391930316391598)	(-3.2516902542912662, -5.9908088381353419)	(3.9853119173001641, -0.3930654897574577)	1.0	z	0.695736
4	M	B	N	B	N	M	A	A	A	8	1	shapes	B	6	False	32	(-3.2059136704119311, -4.492715423750921)	(0.39902780040040575, 0.33724282628599589)	(-3.6672834112113186, 2.9550392014192095)	(0.74515768758871737, 7.5166018725193346)	1.0	slash	1.44749
5	N	A	A	B					A	4	1	shapes	A	6	True	32	(2.7480498760681389, -2.8607159328403302)	(-8.2961011628452024, 3.1571399949789605)	(1.1435209362372607, 7.8978133004909132)	(-5.2923049773418454, -1.5076354795995641)	1.0	z	0.718872
6	M	B	A	B					A	4	2	shapes	A	6	True	32	(6.4503312183658448, 3.6247904184028013)	(-2.9981560517028791, -3.9878649313675796)	(-2.2875519452539628, 6.2248492196553613)	(2.485782398105469, -1.4832151740731225)	1.0	z	0.77654
7	M	A	B	B					M	4	0	shapes	M	6	True	32	(7.8104370962288172, -4.5310486497000984)	(-7.5246175735200858, -6.0070103195505435)	(-0.79293638975913883, 2.2379668026618802)	(3.4102340297024973, 7.6953304507509905)	1.0	z	0.887793
8	M	A	B	B	A	N	M	N	B	8	1	shapes	A	6	False	32	(2.2230606588569586, -7.4011221064900417)	(8.2533165398715376, -1.7767157401942058)	(-7.125599398690408, -4.9802655769321493)	(3.9902295354447102, 5.8839560355576008)	1.0	slash	1.23556
9	N	B	A	N					M	4	3	shapes	N	6	False	32	(0.76938305045113253, 1.0241482596988867)	(-0.67508426793799892, 7.5225308669849476)	(-1.3538989129700365, -7.9025394538937981)	(2.9673720381159363, -7.9714030701598233)	1.0	z	1.34353
10	N	B	A	M					N	4	0	shapes	N	6	True	32	(1.1548160919175743, -3.703499480905303)	(0.20453272211773843, 8.3127964014735802)	(-7.9305067265843894, 1.2043614361220953)	(-7.4983248257810917, -5.0059440684027336)	1.0	z	0.821115
11	N	B	M	N	A	M	B	A	N	8	0	shapes	N	6	True	32	(-8.1328239518567482, 8.1892605770608391)	(3.7485544942347548, -8.3469926251319873)	(-5.1162086587962907, 1.297573157637034)	(2.8446997174414932, 7.1083750624144866)	1.0	z	2.15651
12	M	A	B	B					M	4	0	shapes	M	6	True	32	(7.1751135237260861, 5.9030325663325005)	(-2.3906449737460091, -7.2332492573534699)	(-5.6679390480037153, 5.2631000537785653)	(8.6856074043469036, -3.1145550154839441)	1.0	z	3.88017
13	N	A	A	B	N	B	M	M	A	8	3	shapes	B	6	False	32	(-4.9915327794571951, -1.9100909439589637)	(3.9388780593462638, 7.6317658777638009)	(1.5910068296435007, -5.1618907701936934)	(7.0241983519805657, 2.5823680467912027)	1.0	slash	1.46777
14	M	A	B	A					N	4	3	shapes	A	6	False	32	(8.3722737130802827, 1.9970994423825079)	(-6.9980275354149875, -5.9152234764125566)	(-4.3711862437956501, 4.7097336598868633)	(0.77922559521948997, -0.34226691305834045)	1.0	slash	0.815395
15	M	B	B	A	M	A	N	N	A	8	5	shapes	A	6	True	32	(7.0142097114583617, -2.6552509341730737)	(-4.4028269689483235, 3.5303999612639974)	(-2.0419583417093499, -2.032654698173368)	(5.0780729371699831, -8.3449603423490046)	1.0	z	1.16104
16	M	A	B	N					N	4	0	shapes	M	6	False	32	(-5.5571179291929562, 5.8924053264836989)	(3.333218032098749, 1.7654281892246626)	(7.4793214412817441, -4.8405932769577609)	(-0.12852214966698305, -7.4548721860916629)	1.0	slash	1.5207
17	M	A	A	N	N	M	B	B	M	8	2	shapes	A	6	False	32	(-3.2732153990937425, 1.4655316214523637)	(6.6558527614348524, -4.245429760383189)	(1.7341831405430224, 5.2930789232128603)	(6.0465107485565213, 5.6152875437770238)	1.0	slash	1.21184
18	M	A	N	N	A	B	B	M	A	8	4	shapes	A	6	True	32	(-4.8864434080750332, -2.9774997047018337)	(1.9256724834470891, -0.68498393091718413)	(4.8600013976984258, -8.0415642152356774)	(-1.2743210369620144, 4.1523245725385802)	1.0	slash	0.989904
19	M	A	M	B	A	N	N	B	A	8	1	shapes	A	6	True	32	(6.5497949981868029, -5.3941905679373656)	(0.83767145041616864, 3.5766606665336589)	(-7.829532024079997, -4.4239950255333991)	(-3.4155446882380547, -3.6277862260355374)	1.0	z	1.24151
20	M	A	N	B					N	4	3	shapes	B	6	False	32	(-8.6783314675542815, 2.0638624450587955)	(7.3062844095379269, 7.8022981598482453)	(8.5593817963012704, -2.2979414236245592)	(-5.2234602896821611, -0.5177885135203173)	1.0	slash	2.96306
21	N	A	B	A					A	4	3	shapes	A	6	True	32	(1.3069704472356474, 3.9815880637205243)	(-7.0745375383706897, -4.1939906363798283)	(-1.6125673786768493, 8.4110870953822392)	(1.7543626646695909, -0.97510556610781407)	1.0	z	0.676536
22	M	B	B	N	N	A	M	A	B	8	1	shapes	B	6	True	32	(1.5907610879855518, -1.3907342519150196)	(-5.0663105984664307, 6.4543145757203639)	(-1.7558829340324982, 2.8876810753628046)	(5.0288459955054652, -6.3812087859751516)	1.0	z	1.02427
23	N	B	B	M	M	A	N	A	M	8	3	shapes	M	6	True	32	(8.5685942744478893, -7.8742948923037694)	(-5.5997085974480285, -8.234561682205042)	(-7.7335908632733688, 1.1298951097272045)	(8.1871438066157509, -3.6043558158341602)	1.0	slash	1.23183
24	M	A	N	A					M	4	0	shapes	M	6	True	32	(6.7020344494606885, 5.0916891622893985)	(-7.066780692928428, 2.4182682699811267)	(-2.4202551425916221, -7.7386762384674457)	(1.358393445498093, -0.027282130193079013)	1.0	z	0.643547
25	N	B	A	M	N	A	M	B	N	8	0	shapes	N	6	True	32	(-8.3393538673008916, 4.9433406479252255)	(3.3510761875812882, -2.8572766224848172)	(-6.1737224981561525, -5.3005243425414861)	(2.819509424981204, 1.9580121009357345)	1.0	slash	0.743366
26	M	B	M	B	A	N	A	N	N	8	7	shapes	N	6	True	32	(6.2612190170028263, 1.1559579018076445)	(1.772586646398473, -1.5711436736325837)	(-5.8153216797427074, 5.6963700822690146)	(6.5228900756501673, 7.6158802644244865)	1.0	slash	0.780562
27	M	B	M	A					N	4	1	shapes	B	6	False	32	(6.8448562777080859, -5.0321238748778923)	(-3.4911839695904385, 5.9903452194162323)	(2.998898045642898, 3.7950439063069208)	(-2.2267206712816634, -7.5468936911698803)	1.0	slash	1.10648
28	N	B	M	N	B	A	A	M	N	8	7	shapes	M	6	False	32	(5.0115425509269489, 6.2317141440633304)	(1.4888854432151142, 1.3254568376359952)	(-6.5433395814508746, -4.1222878808255405)	(-2.8564911612957991, 5.2956990382768847)	1.0	slash	0.994178
29	M	A	M	A					N	4	2	shapes	M	6	False	32	(-1.3576018977896922, -6.676289426302664)	(-3.8991023799529323, 7.1230471684219516)	(2.1165739709046676, 7.5463299995353559)	(1.252813464372549, -2.3489523554966629)	1.0	slash	0.829885
30	N	B	B	A					B	4	2	shapes	B	6	True	32	(7.818275115219496, 5.1310060048692936)	(-6.0747765900696589, 1.3418609520288101)	(3.3038120948554948, -3.0940854605355064)	(-4.9594733175657666, -5.5982328106196153)	1.0	z	0.809336
31	N	A	B	A	N	M	B	M	A	8	0	shapes	N	6	False	32	(-0.89613300655468819, -5.5339872438368598)	(-6.4207177056377933, 1.051255103204042)	(-4.9938121183590276, -5.3497532702819832)	(-0.79848017773182267, 6.1318999816603252)	1.0	slash	1.16104
32	M	B	M	N	A	A	N	B	M	8	1	shapes	B	6	False	32	(-2.1424018347367486, -0.13024335588354141)	(2.7295361912451508, 3.7241427795981323)	(6.2771369920463407, 7.6483362815498204)	(1.2062307939720114, -4.0781588675229692)	1.0	slash	0.804517
1	N	B	A	A					N	4	3	shapes	A	7	False	32	(-1.7012496216326518, -0.27518860503667497)	(-6.9913300855906977, 0.64603238577192279)	(5.2565953875797842, 3.9346294531955603)	(1.0657508854717808, -8.1731127837537549)	1.0	slash	0.776106
2	N	B	A	B	M	M	A	N	M	8	5	shapes	M	7	True	32	(-4.1926789834948481, 0.75229694668663782)	(4.5261828579488217, -6.2971939912345842)	(0.87709237191770839, -3.1377635076347108)	(2.9019877435313806, 3.3201885763769923)	1.0	z	1.38597
3	N	B	A	B	N	M	M	A	B	8	0	shapes	N	7	False	32	(-4.9036094548543083, -6.1025040797268106)	(2.9712868054434516, -3.7717587003379878)	(6.5255954915279357, 4.84260679535506)	(5.0996660134144474, 0.79132912685087575)	1.0	z	2.60789
4	M	A	M	N					M	4	0	shapes	M	7	True	32	(-4.920109340917886, -0.90274936209642043)	(0.57465568408595402, 2.8318662140160402)	(7.7852334269945445, -2.0202342236251898)	(-4.4699187962134124, 3.9043866922455042)	1.0	z	1.03914
5	N	B	A	A					A	4	3	shapes	A	7	True	32	(7.3155057361707847, 4.7661794815917027)	(2.2945672860444741, -4.5219062178723641)	(-7.735234611869342, -6.1004005241814561)	(-0.78563264320042858, 1.7016886916105207)	1.0	z	1.98478
6	N	A	A	M					A	4	0	shapes	N	7	False	32	(-6.4979519959740184, -7.9693398837331273)	(6.2692679394630755, 0.64032954944369536)	(3.5527303761231099, -7.0030117680839936)	(-5.6402991656997097, 1.5612162957689364)	1.0	slash	0.870064
7	M	A	A	M					A	4	1	shapes	A	7	True	32	(7.4850534495166947, 1.4024404693346106)	(0.12613459808209271, -4.3515342569471054)	(-0.35960597657858351, 6.5417140708720698)	(-6.8012999097685825, -7.2547942912338055)	1.0	z	1.162
8	N	A	N	M	M	B	B	A	A	8	1	shapes	A	7	True	32	(3.2104679021067657, 2.6819161453785085)	(-7.3026568138813106, 7.3781787156932097)	(-3.177304803669621, -2.8069225960203754)	(-8.6038644137911824, -0.92163749862846611)	1.0	z	0.891533
9	N	A	M	A	B	M	N	B	A	8	1	shapes	A	7	True	32	(-6.7324659252189978, 3.491646824430708)	(-5.1875225339320945, -1.450176204933852)	(2.5638295055515901, 0.57443168912989329)	(5.4543884906539866, 6.6960792428410816)	1.0	z	0.989192
10	M	A	M	B	N	B	A	N	M	8	7	shapes	N	7	False	32	(0.73060852416166711, 6.4164521264837227)	(3.40593401932456, -7.3694162744171559)	(6.444070894320113, 0.031663318110107141)	(-5.4835870697016453, -3.4009856799282954)	1.0	z	1.26081
11	M	A	A	M	B	B	N	N	M	8	4	shapes	B	7	False	32	(-1.1744277809019055, -3.2179428691740073)	(1.503081519188969, 5.5882618924072744)	(-7.8614668657393114, -6.0033619874251674)	(6.5216333734121097, 3.6158705685853167)	1.0	slash	1.02643
12	M	B	A	N					A	4	2	shapes	A	7	True	32	(5.0067115168082879, -2.717952421782285)	(1.8780057868837048, 2.5825941759711188)	(-1.9457758739244646, -5.3421002818002767)	(-2.5204748329712245, 6.9643659656471169)	1.0	z	0.904032
13	M	A	B	B					N	4	2	shapes	B	7	False	32	(8.6365762615787283, 1.9334276919413451)	(4.8699552069853667, -3.880305881673265)	(-2.7060536222702218, 6.2326401686672774)	(-7.833239201195286, -6.1025288003063523)	1.0	slash	1.72586
14	M	A	M	A					B	4	0	shapes	M	7	False	32	(3.038820957178654, 3.9747816012912374)	(5.6524808957549215, -3.6238683696361838)	(-2.4078415104974722, -5.0308919522082096)	(-5.3913855155521002, 4.883715242679914)	1.0	slash	1.10332
15	M	A	A	B	M	B	N	N	A	8	0	shapes	M	7	False	32	(4.2878381101881562, 3.8582812989761628)	(-1.576612127315479, -6.3394353790430529)	(-6.2311110730908723, 7.5805485954178025)	(8.2609129659859803, -0.24979129935743671)	1.0	slash	1.09296
16	N	A	M	M					N	4	0	shapes	N	7	True	32	(3.4971457768535625, -1.4548287466605574)	(-6.8144747441782973, 4.9392593695217712)	(8.339279242520135, 3.0214066114837816)	(-2.3689189512569238, -3.3076395870732718)	1.0	z	0.860609
17	M	A	B	A	N	N	M	B	A	8	0	shapes	M	7	False	32	(5.1559054783845859, 4.1149850252502169)	(0.5351531587644196, 2.7513244993189918)	(6.4579474790823213, -1.0186577442583618)	(-4.0209055798522106, 0.40325428462740298)	1.0	slash	1.21615
18	N	B	A	N					A	4	1	shapes	B	7	False	32	(-4.6769548042909337, -4.0760426888400554)	(-3.7849292049693055, 1.3563216335471964)	(0.078207097653436364, -2.1037610211136322)	(6.2663353620863447, 7.2270286601966482)	1.0	z	0.675869
19	N	B	M	N					A	4	0	shapes	N	7	False	32	(-2.2662331919626322, 5.9788349456743006)	(5.6685521413711619, 0.065026904926064333)	(-6.0964736001785305, -1.8338529636414309)	(0.25084633483085739, -0.55756237068493775)	1.0	slash	0.791603
20	N	B	A	N	B	A	M	M	M	8	6	shapes	M	7	True	32	(-4.2751340577580876, -1.7980990704180071)	(5.5811228593154603, 1.2364656089203763)	(-2.6139342761405864, -6.443488378391228)	(8.2535999001711495, -2.2202259947723899)	1.0	slash	1.94918
21	N	B	A	N	M	B	A	M	A	8	1	shapes	B	7	False	32	(-8.0612138347555806, -8.4626924736361318)	(5.93471988053202, 7.590395299398125)	(2.6959353217312518, -3.2984556973588113)	(6.0231141300366815, 0.092698427882389467)	1.0	z	0.986747
22	M	A	B	N	A	B	N	M	M	8	1	shapes	A	7	False	32	(-4.1610296522614441, 2.4522384579397496)	(4.6111741877855703, -6.6002899083352897)	(-3.3079485929518491, -8.4333356713708234)	(-1.9922554655603104, 5.8875695692480221)	1.0	slash	1.62649
23	M	B	A	B					N	4	2	shapes	A	7	False	32	(-5.8555670685962689, -3.1287589289892752)	(-0.63198049425566438, 7.062552888557116)	(2.3892359691672258, 4.06759969692121)	(3.3232166286570948, -4.4554809631566892)	1.0	slash	0.98412
24	N	B	N	M					M	4	3	shapes	M	7	True	32	(-4.5265126676447123, -5.8978348178678237)	(5.3096096632361682, 2.0963755711180667)	(5.4678793473273632, -2.5367099648794937)	(-6.0337609030819168, 1.8096445763871536)	1.0	slash	3.74853
25	M	A	N	A					A	4	1	shapes	A	7	True	32	(0.5558729716647246, 7.3609376044220802)	(0.30129699233957652, -3.4364883082229172)	(-8.4157359010686648, -0.52176617525098301)	(-3.0104113194853186, 0.91250664090999045)	1.0	z	2.42471
26	N	B	A	B	N	M	M	A	N	8	0	shapes	N	7	True	32	(1.436827703095533, 0.8565591515048272)	(3.1856200927475857, -3.1773496249822157)	(2.7170946725655298, 4.9503933893401957)	(6.7742423620607042, -0.81105734152552333)	1.0	slash	1.82385
27	M	B	A	N	B	N	M	A	B	8	3	shapes	N	7	False	32	(-0.01962888221224901, -1.3333815882637214)	(-4.7373744173283541, 5.7309110976726227)	(-4.1708381051427903, -0.5347672375477952)	(-0.49768559380798294, 4.0008667894701606)	1.0	slash	1.08408
28	N	A	B	N					N	4	0	shapes	N	7	True	32	(-4.1308585093300243, -2.4047601837130443)	(6.4003326052362262, 1.6229439191852428)	(4.2420593178148387, -3.4863913606950954)	(-8.6388744612274166, 5.8666816433946405)	1.0	z	3.13486
29	N	B	N	M	B	M	A	A	M	8	3	shapes	M	7	True	32	(2.9450251367446949, 7.8431679132458676)	(6.30227048996632, -8.2458378977050319)	(0.28271030730672031, -0.29155394569484727)	(-5.7932666252937288, -8.1103671492523954)	1.0	z	0.829267
30	M	B	M	A	B	N	N	A	N	8	5	shapes	N	7	True	32	(-0.79593884096440082, -2.6541333335543404)	(6.2510961319945437, 4.5513705596468004)	(-6.1112285577330816, 0.81273984440143288)	(-6.8484208591449249, 7.3134481846410964)	1.0	z	0.828353
31	M	A	M	B	B	N	N	A	M	8	2	shapes	M	7	True	32	(-4.8140127494445517, -1.9858149569603452)	(3.2325091000244655, 3.6463475107056382)	(-0.32516543342489257, -2.4395816906844425)	(8.1006547516299854, 8.1093596510644872)	1.0	z	1.13248
32	M	A	B	A					M	4	1	shapes	A	7	False	32	(7.4823398241681822, -5.0959285780411356)	(6.9983653837940931, 0.32920988838948873)	(-6.0041089391370202, 4.6827365647602051)	(-2.2677042340185798, -7.8498800114478318)	1.0	slash	0.868069
1	N	A	A	N	M	B	M	B	A	8	2	shapes	A	8	True	32	(-2.6988714441202433, 0.57604953976437301)	(-3.6593060666007293, 8.3570712247086512)	(7.5361443260867702, 3.0391302512355107)	(2.9538822329100647, -3.2630523738821005)	1.0	z	0.893828
2	M	B	B	M					M	4	3	shapes	M	8	True	32	(2.8024061406077045, 5.0870456889914557)	(7.9977330753682203, -7.3337596678190007)	(-8.5316358800669576, -6.7293608224394053)	(-4.1748887703430828, 2.765730549537631)	1.0	z	1.06942
3	M	B	M	A	A	N	B	N	B	8	0	shapes	M	8	False	32	(6.5285238679921296, -3.6001936692062841)	(-4.7943543816128873, -4.1032762641299314)	(-3.0339055380594164, 4.7361420752305872)	(-8.4543426213634199, -6.1304488271552602)	1.0	slash	0.925222
4	N	A	M	M					M	4	3	shapes	M	8	True	32	(2.0353756470182418, 6.4993580748556248)	(2.4886799993511026, -2.6602519805070459)	(-2.2205612383085711, 6.0747006046641481)	(-2.7535829253835011, -3.6196653993953189)	1.0	slash	2.03067
5	N	A	M	M					N	4	3	shapes	M	8	False	32	(3.4435956329231097, 8.1857582199960213)	(-7.4929338271543857, -4.7246024097251667)	(3.5779662314380474, -7.0510129565178534)	(-4.5911306576560253, 5.6364445198173705)	1.0	slash	0.946342
6	M	B	M	N	A	B	N	A	A	8	7	shapes	A	8	True	32	(-0.61626929114133588, -2.6507762596202316)	(8.2908979391778885, 5.5215672749944744)	(-5.8776576340957458, -4.3321812604195271)	(-2.0860397258172041, 1.9906725042120534)	1.0	slash	1.27378
7	N	A	N	M					A	4	1	shapes	A	8	True	32	(1.5804667201181726, -4.3764319504457045)	(4.7771608733520772, 2.3117866154656443)	(-3.1897536735031586, -0.30051256142072624)	(-1.7284697225757046, 7.6588846904842995)	1.0	z	0.789649
8	N	B	B	N					M	4	0	shapes	N	8	False	32	(6.9084833517624293, 1.4941551311942813)	(-6.0692250193662023, -8.1737646881163073)	(-6.5566734690602599, 0.99680180949308195)	(0.29559636009619972, -6.6208068204975117)	1.0	z	1.11317
9	M	B	A	M	B	N	A	N	A	8	7	shapes	N	8	False	32	(-0.44684308474108825, 3.5915496185036471)	(6.3636122290543824, -5.1721554081828041)	(2.1894675372896604, -3.0255078439534149)	(-7.1523464379338968, -5.0014053374973226)	1.0	slash	0.966894
10	N	A	M	B	N	M	B	A	A	8	7	shapes	A	8	True	32	(-3.2586346252908163, 3.1101372837561225)	(2.3584189691871895, 7.1424722167133829)	(-0.46379090062726114, -1.1136721337102067)	(-2.3725917246233799, -7.8457626965301364)	1.0	z	0.898503
11	N	B	N	A					A	4	3	shapes	A	8	True	32	(4.849242191283615, -2.8609068298073019)	(2.9219790576136404, 5.6645959691848589)	(-2.9006579053830563, 7.9480859930638452)	(-1.6342985872455795, -4.0797270562954084)	1.0	z	1.008
12	N	B	A	N	B	M	M	A	A	8	1	shapes	B	8	False	32	(7.0622251941164489, -6.8569430329198369)	(8.2434348558787107, 3.0009302978210819)	(2.5713629461210488, 0.85869968688198384)	(0.61368419418451658, -5.519771810082613)	1.0	slash	1.11577
13	N	A	N	A	M	B	B	M	A	8	3	shapes	A	8	True	32	(2.3424591900448775, 3.4031293844203834)	(7.0015287099033898, -3.5012566587423226)	(-6.4034178110435507, -8.186027360092579)	(1.498661560263697, -7.9558612750613307)	1.0	z	1.02346
14	M	A	M	N					M	4	3	shapes	N	8	False	32	(2.3608082405188604, 1.721063787211536)	(-8.6676072184981923, 1.7379962401029037)	(-0.77777091081849736, -2.0905182311404795)	(6.9074328139295869, -6.1034082514202668)	1.0	slash	1.92446
15	M	B	M	N	A	A	B	N	B	8	1	shapes	B	8	True	32	(8.0930778791435394, 4.0473655283705749)	(6.9221821716327199, -4.9526135517948102)	(-4.8712369481143831, -4.3919117539417227)	(3.8793355870470982, 4.5940347436429754)	1.0	z	1.05675
16	M	A	M	B					A	4	1	shapes	A	8	True	32	(0.019937615240205986, -5.8700080405671677)	(4.17025055412123, 2.9438066215972558)	(-4.3696024115262571, -5.9418751192092083)	(-0.86316730285259791, 5.8870229327627879)	1.0	z	1.36033
17	M	A	N	B	N	B	M	A	N	8	4	shapes	N	8	True	32	(7.5947787939002147, 2.149533366504313)	(4.8597765181183696, 7.1933275289800189)	(-0.019239911740349669, -7.6414300338610044)	(-8.3837012425587307, -5.1514485269185322)	1.0	slash	1.07008
18	M	A	M	A	B	B	N	N	N	8	0	shapes	M	8	False	32	(-4.2200756974527955, -3.8249927301057891)	(-1.1467259227134683, -7.3549083711681469)	(4.6131834272627454, 6.8788787080803218)	(0.70107140706789117, -3.5108165519779693)	1.0	slash	0.717633
19	M	A	N	A					M	4	3	shapes	A	8	False	32	(-4.7441523772543528, -0.63009456419410803)	(8.6055063277625088, -6.3626827442942169)	(7.1240535270289289, 2.6442175199902138)	(-6.1105673619638594, 3.9876940490078621)	1.0	slash	0.751199
20	M	A	B	A					N	4	2	shapes	B	8	False	32	(-1.8748678100120157, 3.8516629408106766)	(-2.1202439600729388, -7.0509142089631798)	(8.1027859200342789, -7.3448331875024202)	(3.5967209788541901, 8.6842899593955103)	1.0	slash	1.22663
21	M	A	A	B					N	4	3	shapes	B	8	False	32	(1.4533451341729151, -5.3376577138281576)	(8.2758669658059887, 3.4454036450531458)	(-0.14436438201208546, 7.8756975982628994)	(-7.8710562805274558, -2.4200427429178193)	1.0	slash	0.840284
22	M	B	N	M	N	A	B	A	B	8	3	shapes	M	8	False	32	(7.1281268900142791, -8.3354518384424274)	(-5.7170517544724433, -0.20259157081407331)	(4.9339671759062504, 6.194436165516974)	(-2.5421034936938733, 3.9065483630546076)	1.0	slash	1.38218
23	N	A	N	M					B	4	2	shapes	N	8	False	32	(2.0996809776191565, -8.2872550597719243)	(1.8730840279365601, 7.5367294502828344)	(-6.725663299729864, -0.57642477469615727)	(-5.2993919830168981, 6.3963499679704725)	1.0	slash	0.827734
24	N	B	A	A					B	4	1	shapes	B	8	True	32	(-0.83799063119331674, -3.3249905492939948)	(6.3233426903861645, -8.6325616249551729)	(-3.4397750547200756, 7.646318403768376)	(8.5102905818620371, 4.2646323708368641)	1.0	z	0.775373
25	M	B	B	N	N	M	A	A	B	8	2	shapes	B	8	True	32	(5.4128580703766112, 4.7761957545664266)	(4.4972968149622776, -5.6406178602580557)	(0.89413461527102989, 5.3644157200465212)	(8.6777859896975329, -5.8760492403976068)	1.0	slash	0.847018
26	N	A	A	N	B	M	B	M	A	8	2	shapes	A	8	True	32	(5.2820654403486014, -2.3172922824254005)	(-8.4517988003752667, 1.1597994258017135)	(7.6122349399639511, 2.2618852068042408)	(0.22279924815878083, -0.18703338520633039)	1.0	slash	1.05887
27	M	B	M	N	B	N	A	A	A	8	4	shapes	B	8	False	32	(-7.3829581040016166, 1.5743906703217654)	(2.8215246749331513, 4.2774001195317464)	(2.792473444001951, -7.4600865453741987)	(-1.7553239326383583, 4.7745636057134764)	1.0	slash	1.43217
28	M	A	A	M					A	4	1	shapes	A	8	True	32	(-7.3079340708818155, 6.9347075356928318)	(4.0740565276773282, -7.4686584502072773)	(2.6196270541268909, 0.43184568945604696)	(-8.4659931161446025, -6.9081830941210933)	1.0	z	0.891905
29	M	A	N	A	N	M	B	B	A	8	2	shapes	N	8	False	32	(-2.7898380870157506, 3.8717967008868044)	(-8.2333384811941652, -4.8379433051497482)	(6.7904007836036868, 5.6972668551308896)	(2.4215001056543208, -5.0313390626193879)	1.0	slash	5.38961
30	M	A	A	B					A	4	2	shapes	A	8	True	32	(0.2091065125822098, 5.351582172372817)	(-7.601360712891946, 0.96723604892684278)	(-5.2147263526500955, -6.8474946980172726)	(7.116544057122578, -5.4517143667250938)	1.0	z	0.696871
31	M	A	M	A	B	N	N	B	M	8	1	shapes	A	8	False	32	(-8.6868258196031949, 4.5354496887063362)	(2.0115935692333675, -4.2509442220406299)	(5.4432558957280985, 8.4031371127752514)	(-3.055546865697341, 5.7094105947031153)	1.0	slash	0.99451
32	M	B	M	N					A	4	2	shapes	M	8	False	32	(-2.9123874266979106, 6.8136975302230791)	(-4.0626527945741486, -5.8763222591384121)	(4.6731304355856196, -2.5293909271387056)	(7.5821412698044419, 6.1163372788346475)	1.0	slash	0.870171
