TrialNumber	stim0	stim1	stim2	stim3	stim.probe	ttl.stims	corr.num	trial.type	stim.corr	block	match	Subject	stim.pos0	stim.pos1	stim.pos2	stim.pos3	ran	resp	RT
1	N	A	M	A	A	4	3	shapes	A	Practice	True	4	(-3.2646507962344531, -1.946911535592081)	(8.5940690360341421, -3.7614676589481766)	(-2.8470668360232247, 4.602504295888453)	(7.318532143100974, 6.0143405597663406)	1.0	z	2.03268
2	M	B	M	N	M	8	2	shapes	M	Practice	True	4	(2.1760522953533687, -7.1563744305245711)	(-2.5781716851108243, -7.7698954784479195)	(-5.6492431883783487, 4.7244860272320022)	(1.0481837827781142, -1.0736769181662131)	1.0	z	1.11832
3	M	A	A	A	B	4	1	shapes	A	Practice	False	4	(1.9584689630451457, 7.7795899017545906)	(-4.7123672158060197, 4.1896616016514194)	(-6.1100431497462946, -8.729040046644414)	(5.7990843539420585, -2.7536662317048375)	1.0	slash	0.871847
4	M	B	M	N	B	8	0	shapes	M	Practice	False	4	(0.46711246583937793, -2.6819059810489563)	(-2.7386678567807223, 7.651598701412091)	(8.5006394082278547, -2.1128086638964136)	(-6.542791064863426, -5.4629371232233694)	1.0	z	1.12534
5	N	B	M	M	B	4	3	shapes	M	Practice	False	4	(-6.8794410888834756, -8.0452149266169641)	(0.045350531330710098, -3.9791025618277196)	(-5.9452270071109545, 7.5406201638490522)	(2.1267744168070859, 3.0609085726841627)	1.0	z	0.831099
6	N	A	M	N	A	8	4	shapes	A	Practice	True	4	(2.325227076944266, 6.0659614816847718)	(-5.3643540020501188, 3.0120621246367669)	(6.5943321088308018, -0.03104889836493463)	(-8.0841182141623626, -1.5449678895881416)	1.0	slash	0.884722
7	N	B	N	M	M	8	7	shapes	N	Practice	False	4	(5.4703332317564985, 8.7008755123708355)	(2.7461509208695087, 3.507046255058329)	(0.018842422204386367, -2.1822983284294848)	(-1.5618994842322032, -7.0838910839967584)	1.0	slash	1.61633
8	N	A	A	M	A	4	2	shapes	A	Practice	True	4	(2.4918127744921836, -2.1157108412209)	(-4.3597076868601494, 0.13000546886550346)	(4.6012668160159294, 8.1222914192352853)	(-2.8557697420804269, -5.0603028594868187)	1.0	z	0.711968
1	M	A	N	N	A	8	2	shapes	N	0	False	4	(5.1858471467206382, -2.2009072021296561)	(-0.93936722798858252, -5.6840060284140019)	(-6.7989231597876882, 2.1917483889783913)	(1.2348888570303238, 5.332213725865067)	1.0	slash	0.740232
2	N	B	M	M	B	8	5	shapes	B	0	True	4	(8.5977862648276542, -6.0851895216530796)	(-2.0691606639467555, -4.7084898973504945)	(-5.614194757648038, -2.084160043653724)	(6.1843966183090711, 1.3034500438954257)	1.0	z	0.741765
3	N	A	A	N	N	4	0	shapes	N	0	True	4	(3.990235372667005, 6.1719263616282909)	(-8.6058135559428877, -7.5354814728814654)	(-6.1521370411643623, 7.166983207547803)	(5.7252460200644286, -5.7760126077297294)	1.0	slash	1.34739
4	M	A	M	N	B	8	1	shapes	A	0	False	4	(-4.8513229815667422, 1.4767663906871)	(4.8167148794985426, 5.6552752838458673)	(-0.13299004970128081, -5.1422426249694588)	(-7.9897671221687112, 6.0803919268007807)	1.0	z	1.51497
5	M	B	M	A	N	8	3	shapes	A	0	False	4	(-6.599570274431148, 2.0550273535899368)	(0.95115880805518493, 5.2790450582057744)	(8.4599352681855891, 5.3665651608557887)	(-3.8411261816896012, -3.9138908082100832)	1.0	z	1.59274
6	M	B	N	B	A	8	1	shapes	B	0	False	4	(-0.73807185147826004, 4.5930091382837102)	(4.8984737789833517, 8.2678229055955725)	(0.37484047534819709, -3.5344953402852752)	(-7.0562892099728955, 0.41868770983442438)	1.0	slash	1.44621
7	N	A	M	M	N	8	0	shapes	N	0	True	4	(5.470234031187676, 5.073481530526502)	(-1.5956938831652083, 6.2714762907477493)	(7.526209865919423, -4.9506258316017053)	(3.0609360867268958, -7.2550665872137383)	1.0	z	0.841908
8	M	A	B	M	M	4	1	shapes	A	0	False	4	(0.057629521135268647, -6.6309278473617086)	(-0.78613252980758919, 4.0232306251296031)	(7.0814783759917752, 4.5046018727354404)	(-4.9962323429205231, -5.688199087705379)	1.0	slash	0.875274
9	N	A	A	N	B	4	1	shapes	A	0	False	4	(0.20574538092334116, 6.0375015230412394)	(-4.383254983468305, -0.57888269224169875)	(-5.2832802847708962, 5.2869967732111558)	(1.3405350893863321, -8.5090280862335703)	1.0	z	1.37312
10	M	B	N	A	B	8	4	shapes	A	0	False	4	(7.7328290026193791, -7.9626738776208112)	(-7.6597690784690702, -6.8736424268048975)	(4.3015239601286801, -5.0802097554256607)	(-5.2723435148320466, -1.5970746665708537)	1.0	slash	1.95031
11	M	A	M	N	N	8	0	shapes	M	0	False	4	(-8.6324748520910077, -8.5829100776139668)	(1.9418914076730847, 0.97402656568623946)	(7.3405710848282801, 5.2277125629863122)	(-2.1097182051085879, -8.0580682203061578)	1.0	z	0.844208
12	N	B	A	N	A	8	2	shapes	A	0	True	4	(0.74713988054595681, 4.0142120107672845)	(7.9471283698691053, 3.6401736229356167)	(5.3657279312362132, -5.7356875777619205)	(-0.23410273943437332, -6.9507018679802215)	1.0	z	1.1838
13	M	A	N	N	N	4	0	shapes	M	0	False	4	(-8.6537474139254336, 5.585334518060451)	(-6.641019299332612, -3.3913705003177714)	(0.91586871320610008, -2.4139096905602004)	(8.4631784975015485, 8.0758700404089439)	1.0	z	1.1313
14	N	A	N	M	M	8	1	shapes	A	0	False	4	(7.8069303269138004, -3.1573919164262554)	(-1.9904487578993448, -7.6763616483807553)	(4.5772532715867253, 1.0085392481005542)	(-3.6856308650029552, 7.6908690600275271)	1.0	slash	1.62118
15	N	A	B	N	B	4	2	shapes	B	0	True	4	(-1.7297733824345416, 5.0479309546142019)	(-4.6549482506625477, -3.3891195798152456)	(5.5517204181875019, -8.354817069911201)	(8.3001987113588811, 1.2913684977501525)	1.0	z	1.00276
16	N	A	N	B	N	4	2	shapes	N	0	True	4	(8.4420426888964606, 0.94910856785920927)	(-3.7414286386928914, -6.6135777612400641)	(-2.2775003960083682, 8.218815227221782)	(2.3824476381121968, -1.9876238517289728)	1.0	slash	1.97234
17	N	A	N	N	M	4	1	shapes	A	0	False	4	(-4.5313062648411977, 2.5666021424312131)	(-8.2411902862540156, -6.2130493095092163)	(5.9785612139948654, 7.5868280271510145)	(8.6583632515310462, -3.4005002631822725)	1.0	slash	1.14806
18	M	A	N	N	N	4	3	shapes	N	0	True	4	(5.543204455730999, -0.25555218341101948)	(0.45021687654672782, 3.6129221816096084)	(-6.8410185743198557, -3.275307062955954)	(-5.6224263112296242, 7.7439714522641339)	1.0	z	0.903489
19	N	A	N	B	B	4	0	shapes	N	0	False	4	(4.1780401861233258, 5.2381872971577721)	(-3.5393471640402669, 3.5233124300524459)	(-6.1390485430013531, -7.2555263858454042)	(7.9926395146184781, -0.39201472481600774)	1.0	slash	1.10119
20	N	B	B	A	N	8	1	shapes	B	0	False	4	(-3.3111788587136566, 2.666934334378924)	(-5.3361261184793438, -1.7302219712818427)	(-0.23641720561966295, -8.5792017423223825)	(8.5003819297460375, -4.662887011686589)	1.0	z	1.69497
21	M	A	M	A	N	4	1	shapes	A	0	False	4	(7.7669332482696518, 5.1794516257176593)	(7.8506359100370098, -7.3073885290934477)	(-7.6395982859250235, 7.9330505359736172)	(-3.6421395239030607, -4.0058724006933648)	1.0	slash	2.18241
22	N	B	A	A	A	8	3	shapes	A	0	True	4	(7.3110293813412923, 8.1365342227930206)	(-8.5474361631695732, -5.186667667081343)	(-1.5009245911988325, -2.3398563238849128)	(5.0498649592420257, 1.9459488225175594)	1.0	z	0.670053
23	M	A	M	M	M	8	0	shapes	M	0	True	4	(-0.84924047218982768, 1.9274998393816407)	(5.9372378204676917, 2.781305313056702)	(-4.9108623852342523, 7.449682531012364)	(-7.0843484668583931, -5.9276363904647944)	1.0	slash	2.08569
24	N	B	B	B	B	4	1	shapes	B	0	True	4	(-2.7673741323998389, -7.0928281202331949)	(6.3407604090480039, -3.3888826565740464)	(6.4447327025006196, 6.5820492750555513)	(-3.9647833268037536, 2.5079567657435931)	1.0	z	1.32004
25	M	A	M	A	M	4	0	shapes	M	0	True	4	(-7.1300653005681509, 0.46928264566390254)	(-3.3584515573256057, -1.8981556886832944)	(0.55293021965088052, 3.9880633842410607)	(1.8977084625350482, -4.6667300956190454)	1.0	z	1.06486
26	M	A	M	N	M	4	0	shapes	M	0	True	4	(5.2437439726936077, 6.3038245546182594)	(-6.1374640496142643, -2.3064096347381513)	(-3.9829261684160322, 7.5831961966731498)	(6.7560413436413373, -2.8232616693745785)	1.0	z	0.934423
27	N	B	B	B	N	8	0	shapes	N	0	True	4	(-1.9691868859041932, -4.256941415366148)	(2.6286525973897845, -2.868327520206849)	(3.902758217779466, -6.6970633114795284)	(-7.4403457568693421, -0.48126730467637735)	1.0	z	1.09613
28	N	B	N	N	B	4	3	shapes	N	0	False	4	(-1.5192915117382588, -5.8705371654097593)	(-0.96624906794103715, 1.665387275567408)	(7.9060056120086131, -3.090958662362806)	(8.301708944359774, 4.9959354535739475)	1.0	slash	0.999768
29	M	A	B	M	B	4	2	shapes	B	0	True	4	(-0.53431281720760282, 2.1015071664251721)	(-2.7879428784942126, -7.1176618510752441)	(1.7687218481084397, 8.6599010223733899)	(2.7739806323801925, -7.9703938928704847)	1.0	z	0.93737
30	N	B	B	A	B	4	0	shapes	N	0	False	4	(-1.3908734318215297, 0.87741874313622326)	(-1.8142901522399049, -3.7975767255331823)	(4.0473969504678546, -6.3028500517443309)	(7.8466048757676035, 5.9121647666445405)	1.0	slash	1.479
31	M	B	A	N	M	8	0	shapes	M	0	True	4	(-2.3948277986250286, -1.0784216250539664)	(5.2273926798685437, 2.9115994523749915)	(5.1240639746233931, -5.7711234667598053)	(-8.5981692480868119, 8.645684433025)	1.0	z	0.916627
32	M	B	M	A	A	8	3	shapes	A	0	True	4	(-2.3588543377150906, -3.5425946306226477)	(-2.1550151610042736, 4.4668533847279352)	(5.8169706173572493, -3.8510157727782586)	(6.1444228815514759, 2.4737826472657005)	1.0	slash	1.87416
1	O	C	D	P	O	4	2	shapes	D	1	False	4	(4.8160659745152081, 2.7097974585106996)	(5.8261686116469846, -7.91967465081584)	(-7.8413128252927695, -8.2307011557124525)	(-7.4999576872615288, 3.8699657329845447)	1.0	slash	1.41414
2	P	C	C	C	P	4	2	shapes	C	1	False	4	(5.4838072142621801, 8.2251293683964093)	(-5.8023360367448991, -1.0602348682485774)	(4.151257962968252, -4.5106306070315529)	(-5.7167580922699353, 7.3167569675317559)	1.0	z	1.13351
3	O	D	C	O	O	4	0	shapes	O	1	True	4	(-1.8546702856052546, 0.41125338703429293)	(6.9448638619573018, -0.70544580710805249)	(5.8787430857812453, 7.0860337881077502)	(-1.3813286492185446, -7.2340812927188791)	1.0	z	0.71703
4	O	C	O	C	D	8	5	shapes	O	1	False	4	(4.5133483558483984, -6.1413896225645113)	(-5.7152499502268883, -4.8864562036093391)	(-0.98996511511614038, 8.2649945460423986)	(4.2097954204819494, 3.8994820649121582)	1.0	slash	1.12154
5	O	D	O	O	O	4	2	shapes	O	1	True	4	(-5.7850468302095486, -6.9486281050276224)	(4.9872287291606145, 3.053220426031853)	(-5.2404405700966903, 8.6092199737776269)	(1.0818736829500004, -5.7482702900798746)	1.0	z	0.716081
6	P	D	C	P	P	4	3	shapes	P	1	True	4	(4.5441670692370515, 4.3505616854212175)	(-6.705236820836328, -1.5897280480016613)	(-2.0476097490973935, 0.8461224506532421)	(7.6028837639068172, -8.6655761063324341)	1.0	z	1.40799
7	O	C	C	C	C	8	3	shapes	C	1	True	4	(1.4588344417659158, -1.2646681046984334)	(-6.6184138485343578, 1.9357788267134453)	(1.4177986416903057, 3.5065035896313965)	(-8.4843691774297891, 7.1380486301109318)	1.0	z	1.53179
8	P	D	D	D	P	4	0	shapes	P	1	True	4	(-6.4462208390458997, -8.4177465590289415)	(4.5081900325476543, -3.5481575324924659)	(5.3424948366474876, 1.9173023524973374)	(-7.4394503905378953, 6.7119455347038102)	1.0	z	0.787111
9	P	C	O	D	O	8	4	shapes	C	1	False	4	(0.034339153941049361, -6.2387709110798522)	(5.4187458887950157, -4.9693716685529283)	(-1.5549075281222802, 3.0540848454691893)	(-7.734565531858216, 6.1298809829620193)	1.0	slash	0.890831
10	O	D	D	P	P	4	3	shapes	P	1	True	4	(-4.6630415688702982, 1.6028638217030906)	(1.1134145639143558, -7.658285098327493)	(-4.6843615012770998, -6.8399191454478707)	(6.2733613424517269, 4.1224404721803101)	1.0	z	0.755033
11	P	D	C	P	P	8	0	shapes	P	1	True	4	(-1.2379756853981601, -6.9330326690293003)	(-1.4536038993557892, -1.0092210892647797)	(5.1093047305899173, -7.101919478512869)	(3.8387393193942501, 3.5116380242435703)	1.0	z	0.896099
12	O	C	D	D	O	8	7	shapes	P	1	False	4	(6.6531113376859157, 1.4193794476012922)	(-0.91255406284940666, 1.4514622353929951)	(-2.6837135998017123, 8.2413910551856269)	(-1.2716716738085987, -6.014018524552033)	1.0	slash	0.937911
13	O	C	C	C	C	4	3	shapes	C	1	True	4	(-4.3781182819777031, -5.0904750003480768)	(6.9620757597810012, 4.6939826339281439)	(8.4061999873316076, -7.6073657397767533)	(-4.4882894848858914, 5.4629956314423413)	1.0	z	2.51949
14	P	D	C	O	P	8	4	shapes	P	1	True	4	(4.5870269213387207, 7.6455788908217635)	(-0.46785096603904464, 6.6743475224560367)	(-4.6733173813846234, -1.6922681941379736)	(2.0727095976688972, 2.2508338943469788)	1.0	z	1.18883
15	O	C	P	P	P	4	2	shapes	P	1	True	4	(-8.1171379711939551, 1.324494972188953)	(7.0613700638856525, 8.5516734453455996)	(-3.1018414026860563, -7.9717889621012441)	(6.6569804143600688, -5.8752459584048342)	1.0	z	1.03261
16	O	D	C	C	D	8	2	shapes	C	1	False	4	(-2.0320803154199591, 5.0067536467624567)	(-7.7195200493501543, -4.6711779593423364)	(2.1637477703482606, -3.7483159015144816)	(-2.0615244467371072, -6.7246599706043799)	1.0	z	1.34233
17	O	D	O	O	O	8	2	shapes	O	1	True	4	(0.75432888386876762, 0.14297220963819868)	(3.4269668978754719, -6.8337305914046995)	(7.3231067484308632, 4.6918672898531835)	(-1.5728257186720205, -6.3817010230905549)	1.0	z	1.01388
18	O	D	O	O	O	8	0	shapes	O	1	True	4	(-3.8949945035568572, -2.1960640006976044)	(-5.9336561255884588, 1.6047592735250085)	(5.5163847773449799, -2.1131375498245317)	(-3.4046235821508679, 5.7605570577106189)	1.0	slash	3.07735
19	O	C	C	C	C	4	1	shapes	C	1	True	4	(5.7939426213998182, -3.7204369818047898)	(-6.3050166285116411, 4.3116253352511205)	(4.0378795751791507, 0.76643629007363145)	(-3.2269027588405885, -0.21780350994208497)	1.0	z	0.848998
20	P	D	O	D	C	4	0	shapes	P	1	False	4	(1.8834207019386167, -7.1874651671724443)	(1.9605635636540075, 4.2927269899591423)	(-2.1113175197383374, -7.6247771153056165)	(-8.2930780118663456, 0.72233047824693131)	1.0	slash	1.20104
21	P	D	O	P	O	8	4	shapes	O	1	True	4	(4.037329982861344, -8.1865846160541746)	(-1.6339314994872138, 1.6661559442645171)	(4.9964724479057399, 1.9883510698318361)	(8.3004144400206066, -3.6971736624685851)	1.0	z	1.17209
22	P	C	O	P	C	8	4	shapes	D	1	False	4	(0.70093331449056073, 1.0305418404669116)	(2.5264272921147075, -5.3884279053666893)	(-2.2210308996172872, -8.3324324647408439)	(6.5603232333248265, -8.2036020060171335)	1.0	z	0.957983
23	O	C	C	C	P	4	2	shapes	C	1	False	4	(1.211742111252585, -6.5027912979425242)	(3.8647025661651302, 6.1588352013231678)	(-2.232442367809206, 8.6148179443214339)	(-4.8389891351668464, -7.3959309583277273)	1.0	slash	1.07136
24	O	D	D	C	O	8	6	shapes	P	1	False	4	(-6.0541088645085317, 7.7862677056928007)	(-3.0957437699389043, -3.408349179236378)	(7.029331986537164, -0.12383321318121254)	(-6.5538409104353974, 0.37902857068902485)	1.0	slash	1.85328
25	P	C	D	O	O	4	2	shapes	D	1	False	4	(7.6314701196266981, 7.6929078997664391)	(5.9382212518563975, -5.4486214630500776)	(-1.6695905715222601, 5.923851216211137)	(-2.9550270397484955, -3.0229112207934152)	1.0	slash	1.46066
26	O	D	C	P	D	4	0	shapes	O	1	False	4	(0.72373066337428682, -5.3375401372498956)	(-5.8303532534478659, -4.1704277697511065)	(4.0638737312689734, 4.8332237890997636)	(-6.12073813929588, 1.4751433455896574)	1.0	slash	1.10645
27	O	D	D	C	C	4	1	shapes	D	1	False	4	(-3.9905197233660301, 0.79886158717106071)	(3.122123948302761, -5.4661869756208858)	(5.4181724478167972, 8.6092542973672153)	(-3.9219554052903876, -8.2439549551287872)	1.0	slash	1.12008
28	P	C	D	O	O	4	0	shapes	P	1	False	4	(6.9244337853325906, 3.9275704983277056)	(4.7848724725203269, -7.9367299788165839)	(-4.4586701780721647, -6.9336473525431614)	(-2.083295320426747, 6.7316616509866485)	1.0	z	1.09748
29	P	C	O	O	P	8	6	shapes	P	1	True	4	(-6.7027697022759112, 2.1243854705555059)	(-7.5067847779704877, -3.2865940011305135)	(-2.2546269353492203, -7.5413051799986484)	(-2.2474154711440226, 1.5339898305125406)	1.0	z	2.37102
30	P	C	C	D	D	8	6	shapes	O	1	False	4	(-7.7471966989927052, 8.2506757725061171)	(7.3238627715503348, -5.8929015265063693)	(5.3409567409801575, 4.751827772425921)	(-8.516263328153828, -0.60205265462607116)	1.0	slash	0.764835
31	O	C	O	D	D	8	3	shapes	D	1	True	4	(1.4449949627678524, 6.5537427698578874)	(-6.2270079785717121, 3.2056118728060579)	(7.8706354686464479, -4.9523080104291344)	(-7.6867397166999876, -6.7800896925705079)	1.0	z	2.08002
32	P	D	O	O	P	8	3	shapes	O	1	False	4	(-3.0591812222529606, 5.380770209251688)	(-0.51541797112855292, -1.7508648900501216)	(-4.4562464225308833, -5.9827547060323889)	(-8.1116557290067703, 2.4050395760325429)	1.0	z	1.33998
1	Q	E	Q	E	Q	4	2	shapes	Q	2	True	4	(-2.5500910762981039, -8.5616131969884215)	(4.5502647074446418, -7.2065464614862638)	(2.9053921467080333, 4.5334579938439283)	(-5.1907523610509134, 4.9508101390143207)	1.0	slash	1.2096
2	Q	E	Q	R	R	8	2	shapes	Q	2	False	4	(-6.5518355088900408, 0.41840557058476691)	(-0.8088686489869934, 2.0747604604401246)	(-7.2080988246922182, -3.7844078567566433)	(2.9188262999601022, -7.9276530726771304)	1.0	z	1.80512
3	Q	E	E	Q	R	8	0	shapes	Q	2	False	4	(-3.35296713038462, -3.2937965906163154)	(-1.3984915600160877, -8.7121366862756222)	(0.55433826778380713, 2.9390591007711002)	(8.1707215225690319, -3.216951115251212)	1.0	slash	2.21676
4	R	F	E	Q	Q	4	1	shapes	F	2	False	4	(7.6847769045005698, 6.9726112520039329)	(-5.8356645958687956, 5.8825649200216343)	(0.21841964478412734, -6.7264012111647453)	(-8.357468285052871, -2.8261787934523204)	1.0	slash	1.24045
5	Q	E	R	R	E	4	1	shapes	E	2	True	4	(4.5741742525450615, 6.6963020993572382)	(5.2137637067854872, -3.3161669702086263)	(-2.0708336459926713, -2.2594630958329978)	(-1.1075819672929805, 2.6451757232439093)	1.0	z	0.86607
6	R	F	R	F	E	8	5	shapes	E	2	True	4	(-8.0337115861993666, 3.6406712038349003)	(1.1635968016200113, -6.3022765440631847)	(3.973143603615096, 1.7447396131303723)	(-3.2394821363186512, -7.4166897103331113)	1.0	z	0.921603
7	Q	E	E	R	F	4	3	shapes	R	2	False	4	(-8.5434268706220298, 0.29261465371554074)	(1.1634454596422792, -1.7783549288198941)	(-5.1153686504391533, -5.7980223756787144)	(4.8878407115014735, 5.0737725279088792)	1.0	slash	1.0193
8	R	F	Q	F	Q	4	3	shapes	F	2	False	4	(-5.725788306844021, -8.3658882741316738)	(-1.5961268789050553, 4.3791770725187824)	(7.4336637383342534, 4.7463260044286635)	(4.1253452120721352, -4.968855103665085)	1.0	slash	0.992843
9	R	F	E	Q	Q	4	0	shapes	R	2	False	4	(-5.2014820177250414, -5.0151188702487151)	(-3.7164053451657342, 5.5273074505792579)	(6.5185383804139843, 4.8958889451474601)	(5.1640234703720314, -3.0206912522917051)	1.0	z	1.02852
10	R	F	Q	Q	Q	4	3	shapes	Q	2	True	4	(-7.9179852951044127, -7.2385002991772156)	(2.8421502231747766, -4.3018139869542091)	(-0.64912091270387329, 5.630430690631961)	(5.3439049999934412, 1.0515602267542157)	1.0	z	1.1041
11	R	E	E	Q	E	4	1	shapes	E	2	True	4	(-1.3209646137526549, 3.2958938437829808)	(3.7998361476405638, -1.4844873004646555)	(-5.2356825945716778, -4.861685633868194)	(4.329790441616673, 6.354313884895685)	1.0	z	0.84584
12	Q	E	R	R	Q	8	7	shapes	F	2	False	4	(2.1466934825164774, -3.5189488667761406)	(-2.5699078696064293, 4.6080266658227309)	(-6.4524118285178123, 1.1276041902849645)	(6.1212442028601934, -5.3684862745306896)	1.0	slash	1.29747
13	R	E	R	E	R	8	2	shapes	R	2	True	4	(-0.67117916024214175, -8.0086152882908213)	(3.6025310748543795, -0.46192798779290456)	(-7.0060438968580314, -5.684307205359981)	(4.389943223786565, -7.4187879873028111)	1.0	z	0.659054
14	R	F	Q	F	R	8	6	shapes	R	2	True	4	(-7.1768946734960917, 4.1602478336530666)	(5.5027101426188771, 2.7030163120939878)	(-1.2106879481371706, -2.9535661667043742)	(-5.364419943123778, -0.390255512321529)	1.0	z	1.8369
15	R	F	E	Q	R	4	2	shapes	E	2	False	4	(8.445942584686744, 5.6256498037693827)	(6.4507995625975987, -3.3185667596954254)	(-3.1590140245733993, 3.9247996311210347)	(-0.0057498912769595734, -4.5433036572138086)	1.0	z	1.11994
16	Q	F	F	E	Q	8	7	shapes	F	2	False	4	(-1.8623346125375173, 2.6375993671542606)	(-0.079448873050132818, -3.245508042931359)	(7.0454835025399305, -5.9677215666101748)	(5.166553076334079, 3.2058552902980502)	1.0	slash	1.52396
17	R	F	Q	F	F	8	5	shapes	Q	2	False	4	(8.4534809062180862, 6.4057069462561795)	(3.5870631654149463, -5.4168629885481696)	(-3.8153735003364568, 8.3863718528821458)	(-6.3028021682893582, 4.1620664477212514)	1.0	z	0.711195
18	R	E	Q	E	Q	4	2	shapes	Q	2	True	4	(6.2677065910007173, -0.11082304453105962)	(-0.73098303690212596, 3.8597207454852445)	(8.1664702721344895, 8.0981309298235225)	(-2.0383734307213865, -0.67312114774112253)	1.0	slash	0.883178
19	Q	E	Q	F	R	4	2	shapes	Q	2	False	4	(-1.4006415009437587, -6.471136994650414)	(6.4585627430342285, -5.7424247542827302)	(2.2411527662982902, 7.4864754155839321)	(-3.7860508911405963, 3.9816602880549112)	1.0	slash	1.03676
20	Q	F	R	Q	Q	4	3	shapes	Q	2	True	4	(-6.9186862667979057, 7.3473848720448061)	(3.297172028586143, 5.6607426318373424)	(6.3820291736312385, -1.1471994800002348)	(-1.6933181379663855, -7.9082422152042469)	1.0	z	0.960366
21	R	F	Q	R	R	8	6	shapes	Q	2	False	4	(-1.9788792088624794, -4.4329163700850742)	(7.7545905029441755, 2.3279636062817612)	(-1.400010175300082, 5.0313097299077505)	(8.1000625322537942, -4.246887446133548)	1.0	z	1.08629
22	R	F	Q	F	F	8	7	shapes	E	2	False	4	(-1.8714749230968089, -1.1564707772519354)	(7.8785919778630813, 2.7249572450054256)	(-1.9120720159105016, 3.0771568475242681)	(5.2857961031536433, -6.4640769706933128)	1.0	slash	1.03373
23	R	F	Q	Q	E	8	6	shapes	Q	2	False	4	(-0.25670806480599673, 3.7636262376748775)	(5.2414197522379187, -1.6332982196413424)	(6.7516061405472243, 6.4063105493748917)	(-1.5342001652444246, -3.6018538656094954)	1.0	z	0.911305
24	Q	F	F	F	R	4	3	shapes	F	2	False	4	(-7.6083235757602985, -4.6179373416060905)	(5.5064393931485078, 5.7046598521425818)	(7.8273348227844757, -3.079176678487018)	(-3.7624594699997331, 7.8189404036647012)	1.0	z	0.907048
25	Q	E	F	Q	E	4	1	shapes	E	2	True	4	(-0.18602199708033496, -1.1502812199641674)	(-8.6113872819234984, 1.998051957823618)	(8.5159389229022118, -1.6670254369632636)	(1.3480005110333568, 7.4844217152705106)	1.0	z	0.793883
26	Q	E	Q	Q	Q	8	3	shapes	Q	2	True	4	(1.4288455988498576, 3.2056708309461666)	(-5.3253356117922541, 5.9144245415780095)	(1.5657891460296813, -8.1679742949490404)	(6.2414565676283082, -3.8069352700576289)	1.0	z	0.830427
27	R	E	E	E	R	8	0	shapes	R	2	True	4	(4.6021062277721558, 0.65810780060611052)	(-0.91298037688032263, 7.5345386293411849)	(6.4742387104687982, -4.3813152907350288)	(-4.9469611485227656, -7.6875860946040273)	1.0	z	0.910116
28	R	F	E	E	E	8	3	shapes	E	2	True	4	(-6.190653228834341, -8.2214524810348024)	(-5.1852122278200365, 5.6012499655804877)	(-3.7988945722032277, -3.8522620163456347)	(3.8647442296744074, -6.4065668214189113)	1.0	z	0.631566
29	Q	F	E	R	Q	4	2	shapes	E	2	False	4	(3.8095692199969946, -7.6380129319392642)	(-6.4077397191231791, -6.3580055154714108)	(3.5098351758063266, 8.0679782629291346)	(-5.944861466754535, 7.0993563575307039)	1.0	slash	0.923345
30	Q	E	Q	R	E	4	1	shapes	E	2	True	4	(2.5169831373304543, -6.7241816909002328)	(4.9985338530178502, 0.15156960535945885)	(-1.494698459042282, -3.3018800271680915)	(-2.005445330732031, 8.5511783755362174)	1.0	z	0.812881
31	Q	F	Q	R	F	8	4	shapes	F	2	True	4	(2.2619097417384033, -6.5954125824677439)	(5.8847906631058109, -1.6750002679401073)	(-5.798370038121913, -0.1086385200717217)	(-6.2328856720475176, -7.0788665403585682)	1.0	z	0.550502
32	R	E	E	Q	E	8	4	shapes	E	2	True	4	(-1.9206215416518528, -0.25875556247971332)	(6.7431132180278066, 5.1669668113249259)	(2.7318530051233019, 3.4394779490442939)	(-1.8322434227103237, -7.5736237436728917)	1.0	z	1.10229
1	M	A	A	M	M	8	1	shapes	A	3	False	4	(-7.1257777209180411, -8.0983486824298101)	(1.1104541782020991, 8.2650850487984862)	(2.8958523460046184, -7.7455683141147977)	(-6.1722907121001871, -3.859649774369089)	1.0	slash	1.56997
2	M	A	M	A	M	4	2	shapes	M	3	True	4	(-0.58219160316787644, -2.5367136808234401)	(-7.2169357689539773, 2.7738211295759037)	(6.2011029649509943, 8.3710107496746993)	(3.4164775628196651, -0.19771651024455217)	1.0	z	1.41734
3	N	A	N	B	N	8	2	shapes	N	3	True	4	(0.10496103551209757, 7.7102198286751147)	(0.7477795875875497, 0.49857093972267386)	(-7.845243242917685, 3.1647229048051457)	(-4.1940633872630428, -8.0860190725686945)	1.0	z	1.09121
4	N	A	A	B	A	8	2	shapes	A	3	True	4	(6.4435342635974635, 1.2766529567086469)	(0.6689141447641429, 8.5665415198769352)	(-3.0978418381432418, -1.2863028844316897)	(-4.1478685449770829, 8.1452104252876509)	1.0	z	0.772856
5	M	B	N	N	N	4	1	shapes	B	3	False	4	(-2.5058671467974678, 7.4278967132082414)	(-8.4278426842711873, -3.7298601860363139)	(6.5142108957222007, 5.7275767316057706)	(2.8341100818244005, -7.1811714311939792)	1.0	z	0.988239
6	N	A	N	N	B	8	6	shapes	A	3	False	4	(6.0253941658203392, -5.4655703566372225)	(5.8695791712154257, 3.5950652651310584)	(-2.7978801133732256, 6.7248412419137207)	(-5.4238155491040425, -4.1660978205927961)	1.0	z	0.819988
7	M	A	B	A	B	8	1	shapes	A	3	False	4	(8.555410926760679, -6.6484934530635016)	(8.5406131848822966, -0.49696501234330093)	(-2.0092742141381015, -5.7477286365563689)	(-1.4070284868504128, 3.6476464304794156)	1.0	slash	2.32558
8	N	B	M	N	A	8	6	shapes	N	3	False	4	(4.043064781778094, -3.9253197105062059)	(-1.206705515387184, 2.5158314067915644)	(7.2459690508172621, 0.1683429601005475)	(-1.8008658908628421, -5.6142131148405401)	1.0	slash	1.10517
9	N	B	M	B	B	4	3	shapes	B	3	True	4	(-5.2808156466525631, -7.1783146817799404)	(-2.8345743286138658, 6.9922482644252018)	(8.161874037770076, 2.9539972374967256)	(1.0995368631457101, -2.0987439262799912)	1.0	z	0.982841
10	M	A	B	A	M	4	1	shapes	A	3	False	4	(-4.362079827248885, 8.119721520822889)	(3.4827621881414128, -1.1353151036569304)	(-2.1399885766369762, -1.4831104291204964)	(4.2141211502750284, 6.2002979783416148)	1.0	slash	1.36451
11	M	B	N	N	B	4	1	shapes	B	3	True	4	(-1.0115946800741566, -8.1967859646508003)	(6.4033674738445594, 8.5066267421371045)	(-5.2986175901536328, 4.1319683458585921)	(3.5678378964229385, -4.7356669574549777)	1.0	z	0.926106
12	N	B	B	B	N	4	2	shapes	B	3	False	4	(4.7154465486426247, -8.2752392377451187)	(1.1680354755808811, 4.5920178563068923)	(-1.3109883157414242, -8.1099043913075342)	(-6.8969467522301713, 5.2452099599788102)	1.0	slash	0.895759
13	M	B	B	B	M	4	0	shapes	M	3	True	4	(-4.7411277103552356, 4.2965112250237016)	(7.6931842881340629, -0.44082786850119682)	(0.12556705595525486, 4.5165998844093362)	(-3.4911831625211764, -0.74207928213517604)	1.0	z	1.06336
14	N	A	N	A	M	8	5	shapes	M	3	True	4	(8.5324323418886827, 8.5565517150469006)	(-2.6732845398910081, -3.0166783545696392)	(4.3932734029592027, -4.9181402252030466)	(7.8422126149307978, -7.7932011476989729)	1.0	z	1.27903
15	N	A	M	N	N	4	2	shapes	M	3	False	4	(-1.9876225574757962, 2.713925119075256)	(-3.3970277216525897, -1.1131943665081074)	(0.058007041572695428, 7.8411369376797246)	(7.7840853754436701, -6.6059429947672168)	1.0	slash	1.64869
16	M	B	A	A	M	4	0	shapes	M	3	True	4	(-7.5198846826415711, 1.8665413076028692)	(-3.5956602671990243, -7.584431533479564)	(7.3508827728149981, -6.8016265346889426)	(6.5064515473629285, 8.4012252857694527)	1.0	z	0.832296
17	N	B	M	B	M	8	2	shapes	M	3	True	4	(-0.37222234926398379, -3.8655206417893355)	(-0.73995467097737411, 1.8993878471875281)	(6.0019396632490274, -6.914833834465778)	(4.0662264470462333, -0.70981825291663725)	1.0	z	0.997823
18	N	A	N	M	A	4	2	shapes	N	3	False	4	(-4.8065924967398024, -1.2657062309792702)	(8.558029833772963, -6.742905058303184)	(-5.8933163110684381, 6.4994472639728027)	(1.1849678383453561, 1.1286319855653808)	1.0	slash	0.871472
19	N	A	B	B	M	4	2	shapes	B	3	False	4	(-7.678895506657784, 8.6310111805228118)	(-4.9249504530312196, -0.93978402216363843)	(3.9810901289009006, 6.2828716540392371)	(8.0222634629269471, -0.81875957075872563)	1.0	z	0.939135
20	M	B	B	B	B	4	2	shapes	B	3	True	4	(4.3299295678288399, -2.5808502792200398)	(-5.638566855500585, -7.2768787940465485)	(6.3055516587222051, 3.8043779070805641)	(-0.076650607195455578, 1.0588455622520758)	1.0	z	0.760907
21	M	B	A	N	A	4	2	shapes	A	3	True	4	(-0.36292657744089496, 2.286918595979067)	(1.6715743612361891, -1.9368613705995461)	(6.7292198376647043, 3.551990353083287)	(-6.3060356174717143, -4.2026195552377059)	1.0	z	0.754459
22	N	B	A	M	M	8	3	shapes	M	3	True	4	(0.38273361126991823, 0.049789309407946902)	(7.4284332554518322, -5.6225095827693572)	(-6.0155400584626477, -2.1177122680800053)	(-8.5507394841542528, 7.5996476978213288)	1.0	z	1.05577
23	M	B	N	N	M	4	0	shapes	M	3	True	4	(-0.30739369109807413, -4.7247804514646434)	(-8.6535671545871988, 5.080846225298556)	(3.527848659974401, -6.0417599990383071)	(8.357794481750414, 1.6006666042592101)	1.0	z	0.871846
24	M	A	A	A	N	8	3	shapes	A	3	False	4	(-3.9278238388787718, 8.7018219762383886)	(-4.8401351813862235, 3.8526227087724525)	(8.4956621917237243, 7.9306829306323117)	(4.891316759940981, 4.2674622764988523)	1.0	slash	0.933553
25	N	A	N	A	A	8	1	shapes	A	3	True	4	(-8.6531267840665436, -5.5124701521724111)	(8.408991110832126, 6.2457639761300889)	(3.8560983430995659, -1.7430471730487218)	(3.0873624379760791, 5.0521494752054181)	1.0	z	0.582997
26	M	B	B	A	M	8	2	shapes	B	3	False	4	(0.56772126327029326, 2.3368002207141032)	(-6.3440140365973097, 1.9970085166681777)	(-6.1528548774784717, 6.4171615012521137)	(5.4259219281068525, 6.343048077826916)	1.0	slash	1.16663
27	N	A	N	B	B	8	3	shapes	B	3	True	4	(6.2168153936184094, 7.2160596712860379)	(-6.4486058316882016, 0.48637664633111299)	(0.2324621740356374, -6.4372837516531352)	(6.5091566756949621, 0.097290575271159696)	1.0	z	0.786122
28	M	B	N	B	M	8	3	shapes	B	3	False	4	(5.5765470369721903, 5.8413444920646675)	(-0.29146842760348513, 3.523816508288208)	(0.33873898563731153, -1.9301769168198994)	(-6.4270750082197292, 7.460454954636127)	1.0	slash	0.842026
29	M	A	M	M	M	8	3	shapes	M	3	True	4	(1.8287305023571445, -3.9338382255491817)	(-6.3187683184074341, -2.1383999838719836)	(-3.0454396601201781, -5.1909010728394289)	(-5.49603830171014, 3.7694943933787251)	1.0	z	1.37361
30	N	B	M	M	N	8	1	shapes	B	3	False	4	(8.0708940490253411, -2.3389837036039971)	(1.2673267411923081, -7.9715691815343623)	(-7.3633583769061364, 1.9815081016519294)	(1.7499683324580779, 4.0587410943860061)	1.0	slash	1.08733
31	M	A	N	B	A	4	2	shapes	N	3	False	4	(-8.53855886014105, 1.9934261472293908)	(4.8042271426095571, -2.5735929332304668)	(8.6633133929849713, 3.1972158289451968)	(-6.9219919568645745, -5.3159936614942751)	1.0	slash	0.75897
32	N	B	N	B	N	4	3	shapes	B	3	False	4	(-2.4573813499326116, -3.491640058073596)	(2.7428126803883313, -0.92891897048410055)	(3.4069984960601261, 3.9795415954340729)	(-1.7840540946205232, 0.79675421471313257)	1.0	z	1.20864
1	P	D	C	D	P	4	3	shapes	D	4	False	4	(3.7376333779567634, -6.8162530133636245)	(6.0022391829632795, 4.4949281426404806)	(-6.0526156510406466, -7.9143257465967514)	(-3.0255070364144023, 7.0698304864145847)	1.0	slash	0.90006
2	P	D	P	D	O	8	5	shapes	O	4	True	4	(1.1440502288896823, 4.6706083386741373)	(-6.6229558639475954, 2.1762570008871371)	(2.7609670852239194, -4.5649785936071199)	(-8.408457754083182, -1.9257861927855702)	1.0	z	0.677855
3	O	D	P	D	P	8	6	shapes	O	4	False	4	(2.5591826348167839, -7.9469117165351708)	(-8.0697628551557781, 0.86403379515323664)	(-2.8229197944774373, 6.38680212215381)	(-1.1057826923616281, -1.3991423517646382)	1.0	slash	1.56348
4	O	D	P	D	O	4	0	shapes	O	4	True	4	(6.2972908064918904, 1.9261303882671168)	(0.7285402569379329, -2.6882678087781615)	(-3.8732301042937047, -6.3936464284494079)	(-5.3062715399860512, 7.9380347156679179)	1.0	slash	1.34913
5	O	C	C	O	O	4	3	shapes	O	4	True	4	(3.483501349023177, -4.9474380296578273)	(-4.4472073704218769, 7.4402393789469947)	(-5.5140098879335113, -3.9232091040287802)	(1.3794424853007374, 6.3218669876584048)	1.0	z	0.784603
6	O	C	C	P	D	8	4	shapes	D	4	True	4	(3.5517524199061619, 8.104118992671026)	(7.2501821830666096, -8.6285663600054381)	(4.1442739898804213, -1.394366495470198)	(-7.4583030209533749, -7.9096262534883248)	1.0	z	1.22442
7	P	C	C	P	P	4	0	shapes	P	4	True	4	(1.0765038738824977, -3.3240262274615269)	(5.2897840493030319, 8.3453401660458439)	(-5.8055208113730021, 4.0713281393458143)	(-7.6619912866678952, -6.5229332420452426)	1.0	z	1.06187
8	P	D	O	P	D	4	2	shapes	O	4	False	4	(4.0617247148793254, 8.3388308696824822)	(5.7769401031777363, -8.145564031189279)	(-0.18429327998548395, 5.7654815084581568)	(-5.8777010461455417, -0.58580670358134235)	1.0	slash	0.883546
9	P	C	C	D	C	4	1	shapes	C	4	True	4	(-8.5788974410732486, 5.7889301469241534)	(0.10349400038732703, -6.0872145460937128)	(5.9678166393195546, 3.1591799365689432)	(-4.0010135269407909, -7.7312995707996297)	1.0	z	0.901286
10	P	C	D	C	C	8	5	shapes	O	4	False	4	(-7.9271847525839494, -7.3564494036603589)	(6.7493983203043975, 8.2473651734927991)	(-2.5669673502085404, -5.0011612678021251)	(3.7126206901294712, 3.2372621009867562)	1.0	slash	1.39694
11	O	D	C	C	D	4	1	shapes	D	4	True	4	(4.0779391319251026, -1.1549092554406899)	(0.31911428678631992, 5.26847666112665)	(-0.17006954407537833, -1.9745856795072934)	(-3.8103435005772042, 1.7989311540921786)	1.0	slash	1.37653
12	P	C	D	C	O	8	3	shapes	C	4	False	4	(-4.1062602988795005, 0.19926284135088324)	(-3.7763303055951214, 8.6929167114671628)	(3.8842336596751341, 6.1520508194887356)	(0.96691323759913494, -3.6081805573718659)	1.0	slash	1.17812
13	O	C	O	D	P	4	0	shapes	O	4	False	4	(-7.4151235419492831, 3.2031917501616221)	(2.2215558830077544, 8.5429715075241539)	(1.8493165484084795, -6.4362015382702715)	(-8.0808999894968228, -3.0789302486825925)	1.0	slash	1.29574
14	P	D	D	D	D	4	0	shapes	P	4	False	4	(3.2878084663478528, -6.5223104132996994)	(3.4854164055526642, 1.562547931136093)	(-3.507185188277731, 1.6269903290635455)	(-4.9452591150508072, -6.1662730217224526)	1.0	slash	1.01564
15	P	C	D	C	P	8	0	shapes	P	4	True	4	(-6.2748517444004541, 3.1079100021726767)	(2.5460171045196986, -6.5541357980558761)	(7.1549282558083735, -4.0205599543156092)	(-3.9377073341530808, 7.1169757601116377)	1.0	z	0.969036
16	O	C	O	C	O	4	0	shapes	O	4	True	4	(-0.92407419302193361, 5.1959737572990559)	(-4.406338210366779, -6.1130795662522681)	(8.5607870904176089, 6.2562156279338854)	(8.5458153878303769, -0.49488869891334097)	1.0	z	1.26476
17	P	C	P	D	P	4	0	shapes	P	4	True	4	(1.1068228430878211, 7.6829563435862447)	(7.7135819032188984, -7.4383130836785272)	(-1.456137290450374, -4.0057853130536785)	(-5.3219824958230681, 0.23437301216409168)	1.0	z	0.581995
18	O	C	O	O	P	4	2	shapes	O	4	False	4	(7.5708833405899121, -1.2781706316098536)	(-0.91439491701532027, 0.43404405107976451)	(5.0805410307497034, 4.3788988404451317)	(-8.0367950983435925, -1.7156245901411191)	1.0	slash	0.867898
19	O	C	O	C	O	8	1	shapes	C	4	False	4	(8.6228525633291966, -6.6341604990318128)	(-4.2384810046636536, -3.8882052876266533)	(-4.0038701044062677, 8.5641826114690502)	(-4.4555795605650781, -8.449835105044242)	1.0	slash	1.00358
20	O	C	O	O	O	8	3	shapes	O	4	True	4	(-1.3857953654307238, -6.8164976026114923)	(-6.6246399008574839, 5.9297342337004633)	(1.7258324476857112, 4.6458686918021375)	(7.3485772508674287, -2.1367403558866869)	1.0	z	0.815202
21	O	D	D	C	O	8	0	shapes	O	4	True	4	(-4.88780850387786, -7.8856855280495886)	(-2.5303432935578378, 3.2261917958197817)	(-6.3186381214472505, -4.1397507181936701)	(7.7239853128602576, -4.6563663023374291)	1.0	z	0.920825
22	P	C	O	O	D	8	7	shapes	D	4	True	4	(-6.7422889596148448, 8.5828541740527875)	(-5.838530698787423, -3.3154966006279771)	(3.8715435546702839, -5.381848631600473)	(8.4740666274269287, -0.61221412536640685)	1.0	slash	0.77261
23	O	C	P	C	O	8	3	shapes	C	4	False	4	(-0.12497965098229713, 5.9573482236411248)	(7.9892377647797694, -7.3882557818770653)	(-4.2716128661350101, 7.3195535064465211)	(2.7730075719186527, -0.32201850741030746)	1.0	slash	0.974226
24	P	C	O	C	C	8	3	shapes	C	4	True	4	(6.9891491809246453, 6.9376542136591777)	(-2.2399436217741586, 1.5081378669879673)	(2.0045002364955327, -5.7523526409057393)	(6.7381803421677748, -2.9000179498977126)	1.0	z	0.775614
25	P	D	C	C	C	8	5	shapes	C	4	True	4	(-0.74926102796078453, 1.578787747643446)	(-1.2980106610923494, 6.5364137966904376)	(4.9546295933383568, -1.1195105439125248)	(-3.7457058608218459, -6.0123092453105436)	1.0	z	0.823371
26	O	D	C	C	O	4	3	shapes	C	4	False	4	(-6.432207288823685, -5.9833503908516477)	(-4.3471727634606134, 8.2801480352602184)	(8.0549289634393588, -4.3310240478218347)	(3.0609555604528467, 2.0107622317931764)	1.0	slash	0.893083
27	O	C	D	P	C	4	1	shapes	C	4	True	4	(1.3389326855815522, -3.1552251698782179)	(-2.5196841616710968, 7.0547844924215966)	(-3.4363336001148594, -5.0191195215800697)	(7.0526427302534387, 2.4837625598323356)	1.0	z	0.884812
28	O	D	D	C	O	4	1	shapes	D	4	False	4	(6.5777935181927081, 3.9762068433301163)	(-2.9723966619625966, 4.3297648232587562)	(-3.3441559959063918, -5.5756359123936328)	(4.8773504377080048, -3.3431225008836689)	1.0	slash	0.765962
29	P	D	D	P	C	8	0	shapes	P	4	False	4	(2.9923322648594599, -3.4025772672089909)	(2.7772578411051203, 7.9055117166210458)	(6.1383072552810169, 4.8668183467879018)	(-3.0012233771188823, 0.52054737643663174)	1.0	slash	1.13003
30	P	D	O	D	P	8	2	shapes	O	4	False	4	(-8.2136296036299665, 5.3007127813684445)	(4.8292948196753791, 3.4143144848099247)	(3.1422101417806356, -3.7856472889682333)	(8.7080452611598034, 5.0683565304701119)	1.0	slash	1.67771
31	P	D	C	D	D	4	0	shapes	P	4	False	4	(-3.5075277375997418, 1.0583675474460232)	(6.9757887490364645, -3.370637985124044)	(-4.1280308072499716, -6.4286553457188358)	(0.20303442090738422, 3.5645048356165265)	1.0	slash	1.80728
32	O	C	O	O	D	8	4	shapes	P	4	False	4	(4.6220326003668042, -5.9042143791576276)	(-7.9873861177548733, 1.8224826281928177)	(6.577758316835439, 3.1243053285303635)	(-5.6576917511041991, -1.8874435010701367)	1.0	slash	2.73882
1	Q	F	R	R	E	4	0	shapes	Q	5	False	4	(5.5255509630351902, -5.6081447917447349)	(-6.8745361916197698, -3.6443237654060674)	(4.9907272524630635, 7.3944392305597013)	(-7.0076057860057102, 6.5581057644660756)	1.0	slash	0.868378
2	Q	F	Q	F	E	4	1	shapes	F	5	False	4	(-4.4268572761093816, -2.2484422310957468)	(1.3115755341991839, 5.6476510577782673)	(2.2661055045871592, -3.6464426832108483)	(-2.2451218529047363, 3.7876265559709186)	1.0	z	1.23199
3	R	E	Q	E	F	4	1	shapes	E	5	False	4	(2.7736964692301598, 0.96899620999886693)	(1.7169099848380434, -3.3457999197657546)	(-7.1317065257943364, -1.4848269166343542)	(-1.1156951527330143, 8.4081415510444977)	1.0	z	1.41164
4	R	E	R	Q	R	8	2	shapes	R	5	True	4	(3.139300353782378, -2.2038886416583363)	(8.5869016275382926, -0.46193514275307557)	(5.06052926620122, 3.5463118870959853)	(7.6546720840695244, 7.2144421872851225)	1.0	z	1.14929
5	R	E	Q	E	Q	8	2	shapes	Q	5	True	4	(-7.2546952911950378, -1.7412717505706059)	(-4.6819071264122814, -6.323881919672159)	(4.6301143931674247, 4.6544159535575726)	(-5.3284487323439427, 5.0076504569362221)	1.0	z	0.788937
6	R	E	R	F	Q	4	1	shapes	E	5	False	4	(-7.2651523572777776, 6.4485831095591379)	(2.2773450294590596, 7.4961338265374238)	(-0.80192835067134105, -0.34084601044609286)	(4.3481942792890464, -1.7007458340357005)	1.0	z	2.15254
7	Q	E	E	Q	E	4	1	shapes	E	5	True	4	(-1.1694600250538372, 0.2184784896935561)	(-5.8317727434772646, -3.087475451445501)	(5.8584204946836103, -1.1977864571435379)	(5.2854113763682946, 6.2218112849620972)	1.0	z	1.09182
8	R	F	R	R	F	8	5	shapes	F	5	True	4	(1.7356558124536896, -1.1423821554710214)	(8.7073690580093093, 5.6174894650584761)	(2.4763148170951084, 3.8973630760560951)	(-6.823750788055098, 7.6753143240456154)	1.0	z	1.0077
9	Q	F	E	F	R	8	6	shapes	E	5	False	4	(0.50558405328374612, -6.2515780351738872)	(-7.9692343120503173, -1.2704468329321372)	(-3.5087043246609113, -3.6483596228338007)	(7.8470533240992033, -3.0723311898493657)	1.0	z	1.05136
10	R	F	E	Q	E	8	1	shapes	F	5	False	4	(3.6635090945714257, 2.8977365049490551)	(-4.0296129727051877, -4.5612534685868571)	(-2.7961852663287239, 4.5877259269494797)	(3.8791736806252803, -8.5685345082395923)	1.0	z	0.926957
11	Q	E	R	Q	Q	8	3	shapes	Q	5	True	4	(-4.1171549081842951, -6.4682257573136859)	(-5.925922436704294, 6.5161118770890063)	(1.9054523546797473, -2.7237255407575853)	(8.5814973081805555, 5.6565141142627464)	1.0	z	1.70663
12	R	F	R	Q	R	8	5	shapes	Q	5	False	4	(-5.7898831336374394, -3.2303671060014691)	(-7.8480704764409364, -8.609098009554975)	(4.7540357842337073, -5.2927024701294796)	(-5.475793450939074, 1.3992204729176247)	1.0	slash	0.978227
13	Q	E	R	Q	Q	8	4	shapes	R	5	False	4	(-4.6610380080103004, 7.3291017238983152)	(3.910865651220174, -8.1296207380406003)	(5.3179595728391185, -4.2895792714469163)	(4.2661922692415111, 1.6483233878728338)	1.0	z	0.876927
14	Q	F	E	F	F	8	3	shapes	F	5	True	4	(8.2771877914034633, 7.6629456154027018)	(3.4779740949567675, 2.7448399572878923)	(-6.7870229138361138, 8.4793213110300947)	(-5.783410753838508, 0.53665690313335368)	1.0	slash	2.06546
15	R	F	Q	E	E	8	2	shapes	Q	5	False	4	(2.5936628395020751, -0.24388206644245436)	(-5.4764295109994166, 1.7587723048225712)	(2.7608684064297186, -7.7419441687154684)	(-2.4021402838933401, 6.0498441559151708)	1.0	z	0.936927
16	R	F	F	F	E	8	7	shapes	F	5	False	4	(3.7910608359015683, -7.2937767122488371)	(2.6455332980625688, -2.2523352316426388)	(4.2266295127447133, 8.5122384654450336)	(-4.0274070703849674, 3.5256183046922054)	1.0	z	0.882749
17	Q	E	F	E	R	4	2	shapes	F	5	False	4	(-0.9914462472816794, 5.9926672355666764)	(-1.2928973867506288, -0.84517369206117277)	(6.7467774208040527, -7.6967618144816896)	(8.4652440913563431, 6.4179274868089795)	1.0	slash	1.01228
18	Q	F	R	R	R	4	3	shapes	R	5	True	4	(1.0496758633015713, -4.6984733862598809)	(-4.0711761768957029, 4.8400849984320224)	(5.4737464172606423, 3.8185612999926413)	(-4.1410524649519331, -2.2238031427443286)	1.0	z	0.851805
19	R	E	Q	F	E	8	5	shapes	E	5	True	4	(1.3433173870442872, -4.2778940668072725)	(2.884871076859568, -0.42634649550640091)	(-6.2123217965656403, 6.3512489895031834)	(6.7228077646697351, 5.3906630712134458)	1.0	z	1.19948
20	R	F	E	E	Q	8	7	shapes	Q	5	True	4	(4.4530775833303604, -0.85961256532844299)	(-4.1460026842071063, 3.456176324751322)	(5.3226285688729842, 6.5415378844201211)	(-0.58133033073794849, -0.40207526224936352)	1.0	z	1.0211
21	Q	F	Q	F	R	8	3	shapes	F	5	False	4	(-7.1380912580995899, 0.9990542035131309)	(7.1152745216150048, 6.3793931989177981)	(-0.27196212498792605, -5.6103897742859319)	(-8.1537380928030867, -7.9431397110206285)	1.0	slash	1.24685
22	Q	E	F	F	F	4	3	shapes	F	5	True	4	(6.8956372869965001, 3.2715452680229991)	(-0.80258915513682183, 3.5389051499452222)	(-2.9651571955321971, -0.1125049799048945)	(6.9271240446636977, -4.4000900678328412)	1.0	z	0.864372
23	Q	E	Q	F	R	4	3	shapes	F	5	False	4	(6.3696839983187985, -3.6894272710096851)	(-5.8190185615583871, -0.25929675338416303)	(7.9117508389141378, 2.6023687215537308)	(-0.23812585613383241, 3.456682058106443)	1.0	slash	0.83823
24	R	F	R	E	E	4	1	shapes	F	5	False	4	(-3.3050198254718213, -8.036071336276267)	(1.2680837958438111, 1.0871424945211103)	(-8.1169798837861968, 0.78946361592322489)	(4.6837534099362657, -1.1787824229012571)	1.0	slash	1.12189
25	R	F	R	Q	E	8	7	shapes	E	5	True	4	(-2.4965135704921888, -5.1329567758854147)	(-0.74001804939358351, -0.24426144687675944)	(5.9909350910010328, -4.5262374203235529)	(-7.3717953242742453, 0.010287680833046764)	1.0	z	1.15745
26	R	E	R	Q	R	4	2	shapes	R	5	True	4	(4.311447375738485, 7.4675958861450979)	(-5.1089074904336966, -4.4100324252847436)	(5.9606334783453523, -7.7335993959840712)	(-6.4651963172653604, 6.4548518025205937)	1.0	z	1.00102
27	Q	F	F	Q	F	4	2	shapes	F	5	True	4	(0.4284065238012893, -8.3003017507015961)	(-1.1220240700395401, 1.8671158280140912)	(-1.7157126679481189, -2.9271345300890497)	(8.0249015137200317, 1.3580882459783226)	1.0	z	1.19479
28	Q	E	Q	E	Q	8	5	shapes	R	5	False	4	(2.536307993376461, 5.9934696483338943)	(5.8417594020452572, -0.39270435042308804)	(-2.5950521873334464, 3.5109876379196816)	(-3.0527595530593858, 8.0521632395321845)	1.0	slash	1.04841
29	Q	E	R	R	Q	4	1	shapes	E	5	False	4	(-7.9501203021505784, -0.29127036743963153)	(8.3327315417396299, -1.1812618883232755)	(3.7271996203118345, 8.2025031113556608)	(-1.0947843778057438, 5.8802263188853541)	1.0	slash	0.919858
30	Q	E	E	Q	Q	4	3	shapes	Q	5	True	4	(0.35259532389101622, -8.6853058691190146)	(-6.6304048922182748, 8.1071513656654233)	(8.2132150245541133, 8.6692034010023065)	(-4.5989026099749655, -7.3686685284616926)	1.0	z	0.809614
31	Q	E	R	R	R	4	2	shapes	R	5	True	4	(6.8905001590567565, -3.9735102317018578)	(0.71551811851483116, 5.4464213809768616)	(-6.7210996147219966, 5.085545396894835)	(-7.2011664387897198, -7.4066649888278056)	1.0	z	0.945129
32	Q	E	R	Q	Q	4	0	shapes	Q	5	True	4	(-2.8584928809455707, -1.516905779823646)	(5.0730202977971484, 4.5311052163424392)	(0.18081943841518289, -6.8723515418943748)	(-2.9228559849348983, 3.1440435513211096)	1.0	z	0.958913
1	M	B	A	N	M	4	0	shapes	M	6	True	4	(-4.0818567913409725, -6.4319329809046302)	(-8.5763410072354418, 8.5877221701452946)	(1.63274177381067, -8.0572230500229391)	(6.4297991622150619, 2.1974922812398034)	1.0	z	0.908087
2	N	A	A	B	A	8	1	shapes	A	6	True	4	(-1.0308658807653321, -3.9270295840378084)	(1.1365566196456722, 5.5853407876645189)	(-5.467276739840254, -2.7011846334263581)	(5.3392209938996675, 6.9714157432966015)	1.0	z	0.948256
3	M	A	M	A	M	8	1	shapes	A	6	False	4	(7.8545834432419888, 8.4405177198171408)	(7.3162826729453094, -0.14497238823489944)	(-5.1414592941776025, 3.4137011617293851)	(1.7543108385354351, 7.0236869757277756)	1.0	slash	0.657691
4	M	A	B	M	A	8	6	shapes	A	6	True	4	(1.1527991276019769, 8.6902490962375971)	(-7.0787759749904335, 7.3660968509877023)	(0.12744825714193198, 2.1345386109539053)	(4.2878015376042242, -7.2700701500968092)	1.0	z	0.865354
5	N	B	A	M	M	4	2	shapes	A	6	False	4	(-5.7844990775701168, 5.8589803924396655)	(6.3131658193688409, -1.4833608733997918)	(5.5267026135649395, 6.6637735170506982)	(-5.8619649874238746, -6.6960030163841218)	1.0	slash	0.775116
6	M	B	A	N	A	8	4	shapes	A	6	True	4	(-2.2528641201650874, 8.6341398109347089)	(-8.5123244852558262, -5.7459476036951873)	(4.395408681457269, 5.425668640331553)	(-3.9396150187557044, 1.5619465606006138)	1.0	z	1.13672
7	M	A	A	A	N	8	1	shapes	A	6	False	4	(-3.0471161327506664, 1.0448543795076937)	(6.7695500084427511, -2.9908415631839125)	(-5.8277356904540261, 7.5620821650695191)	(4.6104637370414743, 2.5821669299324288)	1.0	slash	0.754424
8	N	B	N	N	N	8	5	shapes	N	6	True	4	(-5.7101798145024061, -6.4557070057268451)	(4.5439150755573579, 5.0996601075083348)	(-0.68333791466052318, -2.5352827771442987)	(-7.5958874526788591, 6.3078179051874681)	1.0	z	0.664258
9	M	B	A	M	M	4	3	shapes	M	6	True	4	(3.074948847241922, 4.9060543272776869)	(5.5474247934381644, -7.5658856005298221)	(-8.0963145539842838, -4.6913011524414978)	(-5.8229038699592781, 0.85076021244207034)	1.0	z	0.869599
10	N	B	A	B	N	8	6	shapes	N	6	True	4	(2.2625720837988084, 3.3466776677991117)	(-7.4165766738469792, -1.0678501693129858)	(5.0150008538405437, -6.8634154662010003)	(7.3819112226031578, -3.1771333729442048)	1.0	z	0.893306
11	M	A	N	M	B	4	2	shapes	N	6	False	4	(7.1243624751644283, -5.7675802058972234)	(-3.9665891014817634, -5.2513184464091065)	(-5.1912394352869438, 7.1714726757151386)	(1.1879215795076821, 4.1511581033583802)	1.0	slash	0.772787
12	M	B	B	M	B	8	5	shapes	A	6	False	4	(2.8144232229853134, -4.4003669156547893)	(8.3385417273924247, -7.1584142206913945)	(7.4660723913685594, 4.1984187976989347)	(-7.0904676400025766, -3.2392385964442942)	1.0	slash	1.20675
13	M	A	A	N	M	8	6	shapes	B	6	False	4	(-5.0079491916389278, 8.2225091210022754)	(1.9141808212420415, -3.0752995068441784)	(3.1387289578212734, 7.7489726369830656)	(7.5730591116512436, -5.7219370600888624)	1.0	z	0.802315
14	M	A	N	A	N	4	3	shapes	A	6	False	4	(6.9978994105294348, -3.3082160536354692)	(-7.8013921625359774, 0.71068355429657437)	(1.6657811919241752, 4.4964959655106025)	(-7.560472134676604, -4.9661142782536096)	1.0	slash	1.30801
15	M	A	A	N	M	4	0	shapes	M	6	True	4	(2.8815280152971958, 0.94047263768496059)	(3.2679624354744554, -3.6091176867752823)	(-8.7409243229120914, -1.1574517089120056)	(-0.16124011363565138, 6.4551298402690165)	1.0	z	0.696884
16	M	A	A	A	M	8	6	shapes	A	6	False	4	(-8.2612571270158259, 6.9309435513310564)	(-7.1091460207581001, -2.7594082954009478)	(0.42637177129218706, 3.5515830880120856)	(2.9953654606899018, -6.4939975526046565)	1.0	slash	1.13734
17	N	A	M	A	A	8	1	shapes	A	6	True	4	(-5.075459030424871, -5.998803290498727)	(4.8151766546045796, 5.5377770753203244)	(-7.0536929194523985, -2.2468276443064381)	(4.4318454401806981, -8.3448373237559164)	1.0	z	0.914839
18	N	A	A	N	M	4	2	shapes	A	6	False	4	(8.5933559371529782, -1.4768054910007047)	(-8.6299143340333107, -4.3451183871278607)	(-3.4282072972016673, 1.7906596769281169)	(2.8249764854098274, 5.975107828620839)	1.0	slash	3.99836
19	N	A	B	A	A	4	2	shapes	B	6	False	4	(-5.9961094617968298, -4.2531889929148994)	(6.9207600346894189, 0.58735863064182503)	(-5.4280964173371906, 4.0981108948784861)	(4.0907238871488794, -6.3160714072428634)	1.0	slash	0.959888
20	M	A	A	A	M	8	1	shapes	A	6	False	4	(8.2320409066018421, 3.7005906616985165)	(-3.2099931509311777, -1.7602778976780371)	(1.881254125201103, 3.0734564056306937)	(4.6891829884209244, -5.5090053872009213)	1.0	z	0.987564
21	M	B	B	N	B	4	2	shapes	B	6	True	4	(1.6792863629304104, 1.0918393774128781)	(-2.4396638184624733, 6.7835059556227968)	(3.9117713058736836, -3.1417520648874806)	(-3.1161831760122229, -4.09666781617089)	1.0	z	0.239146
22	N	A	B	M	A	4	1	shapes	A	6	True	4	(-8.2222706951512361, -4.4370525188819618)	(8.1247600501098347, 0.97288222549331316)	(4.6351218293495844, -5.7738531916444513)	(-0.30599552979732714, 1.8436754443182135)	1.0	z	0.752819
23	N	B	N	M	N	4	3	shapes	M	6	False	4	(-1.3310217248095659, 6.8189194221886194)	(7.4343417537794245, 5.1368284750758288)	(1.677352328176136, -7.1363789428801176)	(-7.1338346277222575, -7.9616113211696495)	1.0	z	1.06058
24	N	B	N	N	N	8	6	shapes	N	6	True	4	(8.3039866048455444, -1.4966469984923414)	(4.0679101529086026, -3.921796624697623)	(0.20932249733871799, 3.7138052505583641)	(7.9715108704340452, 5.9824913232129422)	1.0	z	0.878012
25	N	B	N	M	B	4	2	shapes	N	6	False	4	(4.9678463863175875, 2.2880789462147071)	(-5.0667409493895548, -7.0393205751173609)	(-5.0294836874704512, 5.6500434325758278)	(1.9066100445684349, -7.937939215714195)	1.0	slash	1.14358
26	M	A	N	A	M	4	0	shapes	M	6	True	4	(-2.5865586025264058, -1.9491489350229481)	(7.8212146146065571, 2.7753369958465814)	(2.0940584904739037, -0.66098572653670473)	(-3.1849297776391907, 7.7388408053384055)	1.0	z	0.957573
27	M	A	B	A	A	8	4	shapes	B	6	False	4	(-5.7512534965650728, 4.2054102610959223)	(5.1005307014793075, -6.2174155294327207)	(4.6036189654023545, 2.6789158810938787)	(-0.62029630148841797, -0.41995488175556162)	1.0	z	1.27501
28	N	B	A	N	B	4	1	shapes	B	6	True	4	(-3.7295500443669365, 2.165305400209391)	(3.8374357529047192, 4.0059136170478258)	(7.1228450296041022, -3.8585508900383196)	(-4.3368793938016852, -2.2947059613078498)	1.0	z	0.998632
29	N	B	M	A	M	8	7	shapes	N	6	False	4	(4.8677305079921158, 7.001395877518247)	(8.0747803567984029, -3.5279825129178981)	(-5.0544820250971565, -5.7260805277336626)	(1.9971710177767523, -1.9769899060107106)	1.0	slash	2.36425
30	N	B	A	B	B	8	4	shapes	B	6	True	4	(8.0436187861882296, -8.1007963158562593)	(-1.5404599584624652, 2.0118756103089357)	(3.9204424970382146, -2.6030413001207142)	(0.31393117843473561, 7.3433133522142491)	1.0	z	1.06388
31	M	B	N	B	A	4	2	shapes	N	6	False	4	(6.2055929419872147, 4.7576615991472835)	(1.7605665786587839, -3.5236187052543757)	(-0.95791187629601104, 0.73591237152026601)	(-7.6920697247752976, -0.85767498254532004)	1.0	slash	0.773505
32	N	B	M	N	M	4	2	shapes	M	6	True	4	(-2.170634115885254, -0.68695276397297711)	(-6.1856969042959928, 1.958345450779257)	(7.6303040574209753, 4.9161541878386839)	(0.015145447912690457, -6.9427302336351584)	1.0	slash	1.02937
1	P	C	C	O	P	8	5	shapes	O	7	False	4	(-2.8248008611654614, -2.3670122005143837)	(-5.4691818757920379, 6.5551262197818829)	(-5.9840014273301021, -6.2392916811344339)	(6.8728731724976484, -0.83781072279968871)	1.0	slash	0.992721
2	P	C	P	P	O	8	4	shapes	O	7	True	4	(5.5004712754103142, 4.3617663418934036)	(0.57345225615942219, 8.6854067409415343)	(-8.4449512654885517, -6.1279349788464419)	(-4.3063735203665665, 2.0354727063072886)	1.0	z	0.652599
3	O	D	O	C	D	8	4	shapes	D	7	True	4	(-0.17747017915313812, -7.6667183761025814)	(5.6621681846407679, -5.1393589696143671)	(7.8859062549926691, -1.3089655520699868)	(2.2545614894783679, 5.2624076498915944)	1.0	slash	1.12618
4	O	D	C	D	P	4	0	shapes	O	7	False	4	(7.7318652409709223, 7.3196790575164208)	(2.2408700116557458, -5.5970711180868067)	(-6.3314419215407485, -3.6262248198594058)	(-5.8969533517527317, 2.9229850075241721)	1.0	slash	0.679785
5	P	D	D	O	O	4	2	shapes	D	7	False	4	(7.6770818076292962, -4.1545364814694068)	(-4.9083682618819751, 0.47170389976496274)	(6.2253711855512215, 7.5110938021339742)	(-4.4946981955981142, -8.1582479011491067)	1.0	slash	0.785452
6	O	D	O	P	O	8	1	shapes	D	7	False	4	(7.3694831801126774, 8.0283356363518159)	(3.3312850212569316, -3.9946264649388201)	(5.800231537178874, -0.65804569424772197)	(0.23436218611931992, 6.2653848239910328)	1.0	z	1.20114
7	O	C	D	O	D	4	1	shapes	C	7	False	4	(-0.83208007937325679, -7.6467800093274771)	(6.3564791839413211, -1.5574091156226828)	(-4.0400946265189264, 5.1578001224155443)	(3.2118756964853592, 1.2351615232526942)	1.0	slash	0.754698
8	O	D	D	D	O	4	0	shapes	O	7	True	4	(-5.515376849965401, 3.7131077670992063)	(6.2685566799318675, -1.7000760805271815)	(8.4311054603190172, 2.6778009318392169)	(-5.1557603018624363, -2.3202362620527666)	1.0	z	0.942327
9	P	C	D	P	P	4	0	shapes	P	7	True	4	(1.4454961252369678, -8.34676122314408)	(5.9794195718131533, 3.5420530953516085)	(-6.3717865929344502, -6.5579661416367339)	(-3.240055252925103, 1.5723013365607645)	1.0	z	0.755931
10	P	C	P	C	D	4	3	shapes	C	7	False	4	(-2.478275998881637, 2.1517478353207888)	(-5.2871412230691472, -8.4754781937329646)	(2.3935332436214676, 2.2380200086407473)	(3.3204408588930505, -7.8674490656102423)	1.0	z	1.38353
11	P	C	D	C	P	8	0	shapes	P	7	True	4	(-7.8767311892719105, -3.3972611163273756)	(1.4348089720087103, -2.2573482292480644)	(-0.70249641730828927, 5.7245753711214498)	(3.2977275786735554, 7.7940517179255266)	1.0	z	0.849387
12	O	C	O	D	P	4	0	shapes	O	7	False	4	(-3.3730861532698189, -6.7446682454809599)	(-2.3161611498588881, 3.584287731827164)	(6.8502375980062808, 7.0478011118374937)	(2.8537444805235204, -0.29220784068360217)	1.0	z	0.881066
13	O	C	D	O	D	8	6	shapes	P	7	False	4	(-5.0605949058208743, -2.8151381891552338)	(-4.8320953118796988, 1.7503498020093584)	(-4.5589429975750191, -7.5547365227746504)	(-4.3824286199036706, 7.5083473999992769)	1.0	slash	0.836609
14	O	D	D	D	D	4	1	shapes	D	7	True	4	(-1.8522353827500755, 4.7082227329746917)	(5.9592523536492337, 3.1481055808634117)	(2.4285146194901621, -4.2548987409240722)	(-5.5384944553713229, -2.9111602663182294)	1.0	z	0.800073
15	P	C	P	D	C	8	3	shapes	D	7	False	4	(-6.2259841030258141, -5.4725717167979218)	(-4.8159572132603499, 6.5982635626232877)	(5.2324872765197448, -0.4860970680222465)	(-2.0115219942751903, -7.108412384721122)	1.0	z	1.0999
16	P	C	C	P	C	4	2	shapes	C	7	True	4	(-2.7763855489079008, 8.60091071461434)	(5.8014378106308673, -4.1909863219284249)	(3.0313882219432049, 5.1018032123239614)	(-2.5560040699635653, -7.2908019530550083)	1.0	z	0.761429
17	O	D	P	D	P	4	2	shapes	P	7	True	4	(-8.2795608671917531, -3.8133394307105721)	(5.4590274504013436, -1.4942032655995146)	(8.6463000418117559, 6.6529540137396239)	(-6.0900055752668516, 5.5922076680882284)	1.0	slash	1.09112
18	O	D	P	C	C	8	2	shapes	P	7	False	4	(-6.1596908212488284, -8.0401824595825957)	(1.2305278712433285, 1.6746152234402079)	(6.3365605557604425, -5.9297929949076265)	(-6.6762979480852724, 3.1948229760086146)	1.0	slash	1.2048
19	P	C	C	D	P	8	6	shapes	P	7	True	4	(1.9629472481268326, 5.4219771656716649)	(-7.4612495733485993, 1.2085085630438535)	(7.2837920327212409, -6.7001100045773256)	(-2.7941692234235358, -2.9286326015982151)	1.0	z	0.712365
20	P	D	O	P	C	8	4	shapes	C	7	True	4	(5.234634131030198, -6.3995807675975209)	(-6.4260710240218231, -1.2582597111339)	(-1.8875478058847408, 3.9872146753149611)	(-2.1375196290202396, -3.3650526467716286)	1.0	z	0.830082
21	P	D	O	C	C	8	7	shapes	D	7	False	4	(4.827945633244596, 1.2571526087410483)	(5.1944301701742468, -4.4904258579837295)	(-7.7849410124160654, 4.8706902644011887)	(-2.3176284301084822, 6.8032468703959683)	1.0	slash	0.781531
22	O	D	O	O	O	4	3	shapes	O	7	True	4	(-6.0349325670700615, 0.51323257632415675)	(6.1586618478871227, -8.3498267874017227)	(-8.1935818383025758, -7.2663743075537663)	(4.2486994810786278, 1.1685672313406315)	1.0	slash	1.14738
23	P	D	D	P	P	4	3	shapes	P	7	True	4	(8.4722693881139115, 6.5054628395604812)	(-1.1087944157198342, 7.4823201035920093)	(-6.2083084164700955, -6.585361272920828)	(0.21029984613960373, -7.2754417388849646)	1.0	z	0.431022
24	O	C	P	O	O	4	3	shapes	O	7	True	4	(6.1268506337048425, 5.0855367083775)	(0.63476928220100781, -7.2163262790988085)	(-6.516487679714821, -3.4295957211642056)	(-7.246061797049709, 0.55584342255884067)	1.0	z	1.0026
25	P	C	D	O	O	8	7	shapes	D	7	False	4	(-2.9880879195427852, -4.2219797182523786)	(-0.52628328121099166, 6.1370309616603134)	(-6.6185172143989934, 6.6932176565668247)	(7.0651869513046037, -7.6191320731432235)	1.0	slash	0.94826
26	O	D	D	O	O	8	3	shapes	O	7	True	4	(-2.60114474088744, -4.9371721571876366)	(6.1878822568975522, -3.5596718801422673)	(3.3060665431259384, 7.184918854329684)	(1.1540360567730978, 3.0656671646336484)	1.0	z	0.691883
27	O	C	P	O	D	4	0	shapes	O	7	False	4	(4.1287370904808398, -8.2732910327303149)	(-7.3776996061357156, 1.961746064248878)	(-4.6561477269947185, -3.5141223252883931)	(4.5001680031445463, 6.2909018730810953)	1.0	z	1.05176
28	O	D	P	P	C	4	1	shapes	D	7	False	4	(-5.2876952506067774, -7.8398386333601735)	(6.7432797455300513, 5.1932098385585128)	(-8.3971136334110756, 5.9716366552207365)	(8.280238579994041, -1.2592139831158002)	1.0	z	0.875375
29	P	C	P	P	P	8	2	shapes	P	7	True	4	(-2.2869585449317871, -4.50828252202286)	(8.5510472609039176, -6.3721798535972116)	(-4.1542829569777142, 2.1668458604376983)	(6.9557235803878523, 7.2629582914933728)	1.0	slash	0.809048
30	P	D	C	O	C	8	4	shapes	C	7	True	4	(-0.52600902708883268, 3.5777201402461838)	(-5.1100779083027614, 5.0460050431781376)	(7.914184488878945, -7.9322565728391847)	(1.8228369466485344, -6.0306117181196548)	1.0	z	0.860073
31	P	C	C	D	C	8	7	shapes	O	7	False	4	(-8.2812680992222276, 8.5772343364131949)	(-0.99192069058185517, -5.9161409123479416)	(3.3753315207135106, -5.9521241637440978)	(-8.1024490820817743, 0.78847014920197189)	1.0	slash	4.79806
32	O	D	O	D	P	4	1	shapes	D	7	False	4	(6.9406032008937828, 2.9863210718363007)	(-5.435725633167138, 4.1912122411591977)	(2.9801629224137738, -2.4864753558095556)	(-0.86883645799553211, -4.9918439348154484)	1.0	z	1.61552
1	R	E	Q	F	E	4	3	shapes	F	8	False	4	(8.5124384384972664, -2.8073189445978954)	(6.9405489657493149, 5.0674796864213025)	(-5.7345395570296374, 4.7268125054397814)	(-1.5776275728927613, -2.8369515198495634)	1.0	z	0.939167
2	Q	E	R	R	R	4	0	shapes	Q	8	False	4	(6.6015655037118215, 1.8834707542274316)	(-5.7409519653393044, -6.7176797159859261)	(-4.5734125406349859, 6.0770990338418951)	(4.6056336959874926, -8.0841192458854056)	1.0	slash	1.12086
3	R	E	F	R	R	8	3	shapes	R	8	True	4	(-1.5515142860851387, -1.7660286801705807)	(-8.0022301757514089, 0.6396765689036048)	(8.4012016632645548, 2.6660538915281453)	(-1.2610091466880968, 4.3582323087145376)	1.0	z	0.638479
4	R	F	F	F	F	8	6	shapes	F	8	True	4	(5.2338756399511279, -2.3256638121250122)	(-5.8819481979246078, 0.46410901221026002)	(-0.95424381239659795, -1.2307345766425302)	(-5.5802410230025066, -6.5180132619922073)	1.0	z	0.659875
5	R	E	Q	E	E	8	5	shapes	E	8	True	4	(-5.405153384677571, 6.6718050013067476)	(4.1506110845948214, -1.6365528280032864)	(5.6820155518160735, 4.4983887086126249)	(-3.1253106491550762, -6.1663366311683241)	1.0	z	0.773834
6	Q	E	F	Q	E	4	1	shapes	E	8	True	4	(-8.3396609682045728, -2.2018654467538177)	(3.6318901755619883, -4.5069355970533387)	(2.058770357799256, 3.6235383789354429)	(-7.7025135925480708, 3.865846481701027)	1.0	z	0.605316
7	Q	F	R	Q	E	8	4	shapes	E	8	True	4	(-4.0265076109314615, 5.3890479553623685)	(6.5858709657222754, 0.13816279322421465)	(7.0670011119876186, -8.1081514328117024)	(-0.50410365168079885, -1.2914472496170584)	1.0	z	0.686483
8	R	F	E	Q	E	4	1	shapes	F	8	False	4	(-6.9041830152351675, 4.9737511691978913)	(0.74135925802632485, -8.4674926967992423)	(-4.9195123009244233, -2.6410022272914091)	(5.6499911310396556, 1.9007982511245558)	1.0	slash	1.01679
9	R	E	Q	R	R	4	0	shapes	R	8	True	4	(1.3558458145187107, 1.0053647237053873)	(-3.5858930572544274, -1.5673330727091388)	(-7.7485846021704212, 0.72976838725070259)	(5.9218233273242138, -4.277892572849499)	1.0	z	0.576284
10	Q	E	R	E	R	8	5	shapes	F	8	False	4	(-1.0785866788136733, -1.3549683525224649)	(-7.0031751542317089, 2.1986990357533962)	(6.6051041833718607, 2.469944480117821)	(-3.9783432048180369, -7.7938934656736585)	1.0	slash	0.746005
11	R	F	F	F	R	8	4	shapes	F	8	False	4	(-1.8561247656243705, 7.1572066717901119)	(6.997865566431658, -4.0217474722265134)	(3.0015160616825529, -2.2051162212164312)	(8.4671597807344163, 5.9226161892493536)	1.0	slash	0.887564
12	Q	E	E	F	Q	4	0	shapes	Q	8	True	4	(-8.4113599830554282, -0.96716640090969896)	(8.40813024727289, 5.088181673125181)	(-6.3372261562237764, 7.9721873858286152)	(4.6255760951473039, -6.6233002609787004)	1.0	z	0.817318
13	Q	F	F	R	F	8	1	shapes	F	8	True	4	(6.3447961800977559, -2.3005460106477367)	(-3.7402395339435355, 0.42058195743405768)	(3.5280520882774553, 6.9860087974270861)	(-0.62989524110537154, 8.1752093095932494)	1.0	z	1.179
14	Q	F	Q	Q	R	8	6	shapes	R	8	True	4	(-0.48839726680161455, -7.5317286232779503)	(5.9563257796819613, -0.067074184710099516)	(3.7019987877383453, 8.6026388350650329)	(0.12490224517172166, 6.2585123983637345)	1.0	z	1.03654
15	Q	F	Q	E	R	4	0	shapes	Q	8	False	4	(6.889285233349673, -2.4881141308444938)	(-1.272302662305048, 6.9061747744633006)	(-6.0965565323231345, -4.9444704223389326)	(3.2797175117083377, 8.3430969923894587)	1.0	slash	0.37623
16	R	F	Q	Q	Q	4	3	shapes	Q	8	True	4	(-0.66519166304065358, 1.5335017938342528)	(1.885151873118561, 6.7256052585740829)	(6.4763441854095714, -5.1023405380337765)	(-4.5394589091261306, -8.5834119521579098)	1.0	z	1.87987
17	Q	F	R	F	F	4	1	shapes	F	8	True	4	(4.0834380206385568, -5.8834134284422914)	(-5.1382837467363096, -7.0894662562663857)	(-3.9614865130774808, 1.2928231238601722)	(1.1858207550117736, 3.3814916485832462)	1.0	z	0.905432
18	Q	F	F	E	Q	8	0	shapes	Q	8	True	4	(2.0317437090834538, -4.3283643597814194)	(-2.466297899422635, -3.881929393989993)	(-5.8137932837828386, 3.3945709063478322)	(5.9006722862996863, -6.7479840186446198)	1.0	z	0.737156
19	Q	F	F	F	Q	4	1	shapes	F	8	False	4	(2.1446132195083472, 2.720390789204771)	(-6.8749985733640386, -6.5954126783883966)	(-7.6912416751746537, 3.5692230320108624)	(6.6509576975423865, -0.76731499434305661)	1.0	slash	0.72876
20	R	F	F	E	R	8	4	shapes	Q	8	False	4	(-4.2615957490866059, -4.1489070198074902)	(-0.83434290831731683, -2.0830563580976857)	(-7.5055798918066037, 3.6116517562904473)	(7.5174460466110382, 7.3928389158328791)	1.0	z	0.732356
21	R	F	Q	Q	Q	8	0	shapes	R	8	False	4	(-4.8922216184795317, 7.2520730295557563)	(6.6691620029859155, -0.64081158366088964)	(-7.2580539855793003, -1.0270175079995489)	(-2.8947816720673547, -1.8259864061597781)	1.0	slash	1.04628
22	Q	E	F	F	R	8	3	shapes	F	8	False	4	(-7.5437681093284672, -7.2761319809842044)	(4.5208846307127253, 4.7756818896408078)	(3.4632953675993132, -7.0288922124034618)	(-8.3454603390055038, 1.8619978628093374)	1.0	slash	1.15185
23	R	E	R	R	R	4	2	shapes	R	8	True	4	(-7.7043619998958937, -3.0027203311826733)	(7.7089214383970202, 0.4412513873564734)	(5.5298225043222242, -6.8961692619360129)	(-6.7390691656135733, 1.081432123900619)	1.0	slash	0.459421
24	R	E	F	R	R	8	3	shapes	R	8	True	4	(-3.9571898119970257, -8.5456090181965028)	(0.38980357253727327, 5.398914965685746)	(-1.6007602179144431, -3.3966182993154659)	(7.508159768778313, -4.0926016561325556)	1.0	slash	0.747011
25	Q	F	F	Q	Q	4	3	shapes	Q	8	True	4	(-3.282842556257167, -3.8824000237986054)	(-2.8763350145785962, 0.84232742185946918)	(1.8791479981512573, -3.0555850915205793)	(2.6398903681464816, 7.9925364898219762)	1.0	z	0.680671
26	Q	F	F	R	R	8	4	shapes	E	8	False	4	(6.6815847899235692, 7.9259609870193302)	(-5.7605519901615958, 6.9989008777886923)	(-2.3206597789784693, -5.5004431823272073)	(-7.9622027106849256, -6.7502247135357569)	1.0	z	1.10227
27	R	F	Q	Q	E	4	3	shapes	Q	8	False	4	(3.1963198600393703, 2.5738679838017724)	(8.4545758690270993, -8.6161654446236788)	(-8.2481188987875953, -2.3172503795721928)	(-3.385794250181525, 4.3875589519857829)	1.0	slash	0.900068
28	Q	F	Q	E	E	8	2	shapes	Q	8	False	4	(3.5120245465282398, 7.901082389981827)	(5.3634209166154179, 2.3195066437231819)	(5.9551233988003567, -7.4872364017193878)	(-4.9325880591012048, 7.07864974568216)	1.0	z	0.893669
29	R	F	E	F	Q	4	3	shapes	F	8	False	4	(-0.10390352730054175, -0.41925094237606153)	(8.7398950657545633, 6.0118122217385537)	(0.85634951456224506, -5.3488504825997572)	(-0.13946760832748595, 4.6369958934550386)	1.0	slash	0.829415
30	R	F	Q	F	R	8	4	shapes	F	8	False	4	(-6.4469804787732059, -7.6610007558937649)	(-4.1828844143899078, -3.4623100267121876)	(-1.6865043492517824, 1.5647780547228063)	(0.90188422676983215, -7.3082460020465732)	1.0	slash	0.924985
31	R	E	E	E	F	4	3	shapes	E	8	False	4	(-1.2400571717153337, -0.99624300151528367)	(-0.49500609579354382, 2.9886583640794715)	(8.0034546079762059, -6.1153424968843231)	(5.2605771637476835, 1.7579494838978853)	1.0	slash	8.26245
32	R	F	R	F	F	4	1	shapes	F	8	True	4	(-0.68751311219575939, 6.039023154409092)	(-8.1039148673757655, -2.9983898140854937)	(4.5424443194477231, 1.7068920663913101)	(3.9936385420866554, -7.3898440372095511)	1.0	z	0.947645
