TrialNumber	stim0	stim1	stim2	stim3	stim4	stim5	stim6	stim7	stim.probe	ttl.stims	corr.num	trial.type	stim.corr	block	match	Subject	stim.pos0	stim.pos1	stim.pos2	stim.pos3	ran	resp	RT
1	N	A	B	A					B	4	2	shapes	B	Practice	True	41	(-6.3661593872298585, -4.5182026206224641)	(-5.1064393548397859, 2.4934248044036647)	(5.2994755486109018, 6.2308249689257966)	(2.0399203206819845, -2.1731478596818583)	1.0	z	1.17419
2	M	B	M	B					M	4	2	shapes	M	Practice	True	41	(4.2355989929892779, 2.9322195869382455)	(-6.1247128225187195, 1.5233095428833625)	(-3.4255335301272698, -2.5153465804448052)	(1.6733500016463481, -6.9079376845593243)	1.0	z	0.565813
3	M	A	B	N	M	N	B	A	B	8	4	shapes	M	Practice	False	41	(-1.26174613531128, 5.3965322731086616)	(-3.7831998456619083, 1.6027026101711073)	(6.3151353664646148, 3.0853067996195893)	(-2.5215156776296475, -4.8788807611878529)	1.0	slash	0.917713
4	M	A	A	B					N	4	3	shapes	B	Practice	False	41	(-4.568164444695844, -1.681083136525551)	(2.1538046693739208, -4.6787648504511603)	(1.7000365886095121, 8.1032350381086964)	(-6.1505599864054101, 7.3361091260214657)	1.0	slash	0.925086
5	M	A	M	N					B	4	0	shapes	M	Practice	False	41	(0.86263470674908227, -4.0597008386302349)	(4.5415334998571328, 5.613498869124852)	(-1.3529134179428812, 0.11460362167504634)	(-7.6624643519587554, -5.5702376873282962)	1.0	z	0.583039
6	N	A	N	A	B	M	B	M	M	8	7	shapes	M	Practice	True	41	(-3.849549381631495, 8.5145177906919827)	(4.1685843406096534, 2.0737948948594589)	(-6.3460736655352754, -5.1333930739710345)	(-6.7860015296147491, 4.2609203574006997)	1.0	slash	1.04457
7	M	B	M	A	A	N	N	B	M	8	5	shapes	N	Practice	False	41	(5.9987534818328232, 5.8590355870100499)	(-5.0888955274357066, -2.0218827722886452)	(-1.5498528721017086, -7.7783161238938501)	(6.2401010813462232, -3.666554057215234)	1.0	z	0.741541
8	M	B	M	A	A	B	N	N	A	8	4	shapes	A	Practice	True	41	(3.9699936260299911, 0.52970614013460704)	(-5.5699190976911641, 5.7647826828734914)	(0.56253458053483385, 8.4456705354308781)	(-7.5761164078588923, -8.1256193699630099)	1.0	slash	0.862215
1	N	A	B	M					A	4	2	shapes	B	0	False	41	(7.0597095765238507, 2.6555990125572553)	(-3.4650807331355349, -1.1887962875864462)	(-4.4396898230467423, 6.4829613165319326)	(6.7031758020746732, -2.9458279035157364)	1.0	slash	0.78948
2	N	B	N	A	B	A	M	M	N	8	0	shapes	N	0	True	41	(-7.0430181754387196, 7.3589867049937325)	(1.5420378446028753, -5.0275891659843577)	(4.9404572860209015, 2.6449881210704724)	(-2.3068843188962944, 6.0770676048002663)	1.0	slash	0.979448
3	N	A	N	B	A	B	M	M	N	8	2	shapes	N	0	True	41	(-7.4240561351564471, 3.9598358057103198)	(0.22760967711151281, 8.1780106937254828)	(-0.50245520991745707, -4.5068946673288659)	(5.5559237070628544, 7.0471995866138286)	1.0	z	0.474528
4	M	B	N	B	A	A	M	N	A	8	0	shapes	M	0	False	41	(4.2983241555111125, 5.2875424775239619)	(-6.7001818221202374, 8.1287554142365614)	(-6.3185862093179148, -4.7199330701662996)	(4.2102556990862219, -6.814366561616704)	1.0	slash	0.790384
5	M	A	A	N	M	B	B	N	B	8	7	shapes	N	0	False	41	(-3.1959481131890763, 5.8724928514428143)	(1.3887445294076954, -2.6087861469781286)	(-6.3426458881844532, -7.6858082934889032)	(-5.2227283959379047, -1.866198364147162)	1.0	slash	0.770014
6	N	A	A	B	M	N	M	B	M	8	4	shapes	M	0	True	41	(-7.177832273477911, 2.704084940349901)	(-2.5798366272281612, 1.0006727066656769)	(-3.5978943908538144, -7.3315528156078162)	(0.20718366982331915, -3.9024487780587647)	1.0	slash	0.836016
7	M	B	A	N	M	B	A	N	N	8	3	shapes	N	0	True	41	(2.423619639247784, -4.2426237616780638)	(-4.3857579318696267, 4.6773102148115377)	(-8.3522041702140957, 2.587418367982103)	(-7.8387887486383985, -7.4511228858369725)	1.0	slash	1.37581
8	M	B	B	M					N	4	1	shapes	B	0	False	41	(-2.2881301448395526, -6.3445180544469952)	(-0.49409488523756373, 7.3859928679886586)	(6.3678716983062102, -6.6291856113274736)	(5.9478004238215565, 8.6774569853001431)	1.0	slash	1.0234
9	N	A	A	M					M	4	3	shapes	M	0	True	41	(7.4343463482601955, -8.0362804930805805)	(-7.7108350947443309, -5.7079686718711677)	(0.98749593496029853, 7.7089715444121474)	(-3.1449594985827858, 2.5712406621610384)	1.0	z	0.973078
10	M	B	B	N					M	4	2	shapes	B	0	False	41	(-2.1574600131404305, 8.1476369250752043)	(-7.9385877684623569, -3.0920056205688589)	(4.3784760629295771, 8.5958588952344677)	(3.3910760720100424, -1.3893240761374717)	1.0	slash	0.650886
11	N	A	N	A	M	B	M	B	M	8	6	shapes	M	0	True	41	(-6.04059420919865, -0.92186259327187692)	(5.9894783126776812, 4.7701320132753438)	(6.7037718675233755, -3.2365662140017681)	(1.4474102930917709, 6.8144644635110847)	1.0	z	0.796388
12	M	B	A	A	M	B	N	N	N	8	0	shapes	M	0	False	41	(-7.8521530450233294, -8.747265551321334)	(-7.3444348509990167, 2.7205827695639293)	(-1.8468897504429425, -6.4075898815757135)	(8.6151491106565459, 3.6738060198036706)	1.0	slash	0.960099
13	N	B	B	N					N	4	0	shapes	N	0	True	41	(8.2462159600063174, 5.0903162547745477)	(4.6404800681155134, -8.6910700787832393)	(-1.0667224846142753, 8.2795297233900094)	(-2.0872854946841564, -6.5992888149581574)	1.0	z	0.559872
14	M	A	A	B					N	4	1	shapes	A	0	False	41	(3.5530381466301204, 1.9537052336268701)	(-3.518996698115985, -2.8017485315277328)	(-8.1574074590849861, 1.3943574148568274)	(1.0473433847774647, -5.8517887387567082)	1.0	slash	0.633464
15	M	B	A	M					A	4	3	shapes	M	0	False	41	(-3.3908344564360613, 3.462604069559255)	(4.213522504290566, -0.89100820223556987)	(5.6516816368160576, 5.2125203189707481)	(-7.4347146323124473, -0.98807662801093166)	1.0	slash	0.780971
16	M	A	M	A	N	B	B	N	M	8	0	shapes	M	0	True	41	(-2.4495083316110158, -1.1027087311224193)	(-6.2726123184911371, -5.5768067175060301)	(8.5784207004073956, 4.2762257430623922)	(4.2391140993437553, -5.3946221253519715)	1.0	z	0.697957
17	M	B	B	N	A	M	A	N	M	8	1	shapes	B	0	False	41	(2.5502966633306556, 0.34885539241202856)	(-4.4118180954568258, -6.030080697566512)	(3.2641472102042144, 8.4118539296724038)	(-6.950626818099261, 3.9779071278675513)	1.0	slash	0.794373
18	M	A	B	M	A	B	N	N	B	8	2	shapes	B	0	True	41	(1.3516875899418839, 1.8574818832923814)	(-2.0263505329041749, 5.3543978422925385)	(-8.2205617773802668, 5.1189665465642857)	(5.356899276023368, -1.7936399769815061)	1.0	slash	1.54177
19	N	A	M	N					N	4	1	shapes	A	0	False	41	(8.6923427266007032, -8.580116654360717)	(-4.6722359931957547, 4.7834792847179433)	(8.1251290946586678, 4.2553106151404165)	(-4.9370087550925668, -4.3425499610941447)	1.0	slash	1.02767
20	M	A	N	N					M	4	0	shapes	M	0	True	41	(7.8953463256688892, -5.4063474844407082)	(3.6772291583472505, 6.535596587942571)	(-0.40114506691990748, -2.9324743083075973)	(-5.4526232697371793, 6.7451629096182977)	1.0	z	0.573246
21	M	A	A	M	B	N	N	B	M	8	6	shapes	N	0	False	41	(-5.2679776318828901, -1.6348558828207906)	(4.8461737067027659, -2.8366767066518834)	(4.1234997358949403, -7.6455147070252529)	(6.2784252779064182, 7.2222482367492784)	1.0	slash	0.908458
22	M	A	B	M					M	4	3	shapes	M	0	True	41	(-7.164715924809995, -6.7908738865011919)	(6.3958803871989129, 7.4790535836502521)	(8.6937816036434228, -7.3309850701578831)	(-5.2957607396556643, 7.3006087007005078)	1.0	z	0.350644
23	N	A	B	A	B	M	N	M	M	8	5	shapes	M	0	True	41	(-7.4320332546838568, 0.65667154613645451)	(6.310273741655088, -7.3786509283603063)	(-4.0954726411063822, -3.7344544458652216)	(-0.060169214138170446, 1.6984526153083817)	1.0	z	0.667635
24	M	B	N	M	B	A	A	N	M	8	6	shapes	A	0	False	41	(-2.0459760972669496, -6.748088769669673)	(4.9232211932831156, -0.14743187766612209)	(8.407011175237276, 7.5608267534125524)	(-8.4808485750240887, -1.3637206629543401)	1.0	slash	0.697579
25	M	B	M	N					A	4	0	shapes	M	0	False	41	(-0.13290279404848881, -3.3715153592495817)	(-5.5047121765958567, 5.7207705198587515)	(7.9566246522307402, 7.2268965625941313)	(5.7919367036326364, -7.8699289868903177)	1.0	slash	0.669547
26	M	B	B	A					M	4	0	shapes	M	0	True	41	(-2.9522536721419215, 7.2948482953054352)	(6.034311367705989, -1.6823034907009244)	(-7.1780693754465528, -6.3448957319069175)	(2.1504913405391033, 0.72548788995465507)	1.0	z	0.623368
27	N	B	N	B	M	A	A	M	B	8	0	shapes	N	0	False	41	(-0.93688117749980115, 3.135093848154499)	(5.4033654717485344, 7.6269562914947784)	(-2.9202700246155349, 6.6541736186875138)	(-3.7554537380130872, -1.6228036000171944)	1.0	slash	0.524377
28	M	B	M	B					B	4	1	shapes	B	0	True	41	(6.2929587132105471, 7.8722277528830418)	(-5.0651320946390399, 1.7110482337431652)	(-0.49492584904739623, -2.3483881598366496)	(3.3822811024937547, -7.820270580486425)	1.0	z	0.772587
29	N	A	M	M	A	B	B	N	M	8	0	shapes	N	0	False	41	(-6.1336803744672643, 6.4762827025034504)	(-8.3679600201316902, 0.39940235640445643)	(-1.6324352020971569, -0.13643645195440079)	(3.580883554881062, -0.4344163921155193)	1.0	z	0.628222
30	M	B	N	M					N	4	2	shapes	N	0	True	41	(3.7875267118240998, 2.6479149844776746)	(-8.6782166645797538, 4.7666576657055764)	(3.2911417980493773, -4.9123972117260264)	(-4.3411307352251018, -0.70398062922963689)	1.0	z	0.479876
31	N	B	N	M					A	4	1	shapes	B	0	False	41	(4.6102809221964147, -4.4459138675149354)	(-1.4267957748056519, 4.0356659107897563)	(7.1232846482553818, 6.4287685099717233)	(-1.1369201134945106, -7.2751459076188851)	1.0	slash	0.503564
32	N	A	A	B					B	4	3	shapes	B	0	True	41	(3.1344992634466742, 2.649507785970254)	(8.3211234167467474, -8.7347969358367905)	(-1.5466863483759132, -0.45640834332263758)	(-6.1396727824853059, 6.804037624519637)	1.0	z	0.627337
1	M	B	B	N	A	N	M	A	N	8	2	shapes	B	1	False	41	(0.57133588143333647, 4.4169403656885127)	(7.0180508586690475, -2.9169322489070773)	(-6.7718344659715228, 3.3783475057845855)	(-2.4115320286773239, -5.3298480470295528)	1.0	slash	0.691052
2	N	B	B	M	A	N	M	A	M	8	0	shapes	N	1	False	41	(5.5238781496340064, 1.6217989227314238)	(-7.2850390180575069, 1.4121843220309476)	(7.0690578025853359, 5.8354808537291163)	(-1.1290355040490994, -4.4259897056471278)	1.0	slash	0.746737
3	N	B	N	A					A	4	1	shapes	B	1	False	41	(3.3316298980225856, 1.7166003483050911)	(-6.7232244637650389, -3.8442324004957831)	(7.3523730558913591, -6.8226077619359469)	(-6.1508106834306897, 6.2957262862336183)	1.0	z	0.360331
4	N	A	N	B					M	4	0	shapes	N	1	False	41	(-4.6033555113661011, -4.2499116518388176)	(-3.2929766203622517, 8.39278179178039)	(2.2644923062932545, 3.6375957787713435)	(2.3164502491107779, -6.5102972820359852)	1.0	slash	0.626061
5	M	A	N	N	M	B	A	B	M	8	4	shapes	M	1	True	41	(-4.1496258884968107, -6.7292711412422577)	(7.2715987451671005, 0.67273935782149152)	(-7.0628207596039516, 3.5357707968263306)	(6.5042596145280882, 5.6724241725323914)	1.0	z	0.668979
6	M	A	A	N	M	N	B	B	M	8	4	shapes	M	1	True	41	(5.8846139049213679, 0.014934149988594214)	(-8.2311675977324796, 8.3918820681201751)	(1.5186049144611324, -2.1881506154470909)	(-7.0676260788909717, -8.0942747798215819)	1.0	slash	0.979746
7	N	B	A	M	N	M	A	B	A	8	6	shapes	A	1	True	41	(-6.4480541067694457, 1.468671071925888)	(-1.6771994610336396, -2.9289525447766218)	(5.5532520635916995, -1.6686774762361321)	(2.2175023868581842, 2.1111993313533937)	1.0	z	0.706815
8	M	A	N	M	B	N	A	B	M	8	2	shapes	N	1	False	41	(-0.341954541955511, 5.0773487414884269)	(7.8874465521817747, -4.3855861923390398)	(7.9884594537854738, 6.9058796128321589)	(-8.0137186539816625, 1.3736308396543055)	1.0	z	0.696474
9	N	A	B	M	B	A	M	N	B	8	7	shapes	N	1	False	41	(5.1816083503455062, 2.7654397889727722)	(-1.9622799938897195, -3.542884498464038)	(-4.236116014121369, 0.66895178813519962)	(3.9686178480328316, -1.855832072799906)	1.0	slash	0.832182
10	N	A	B	A	M	N	B	M	M	8	4	shapes	M	1	True	41	(-3.7018541179888604, 2.6441907027058313)	(2.1874876365389131, 8.4256872299384931)	(3.5159764539438996, 2.0978742697209256)	(1.5506341484168225, -3.449726219362848)	1.0	z	0.595674
11	M	B	N	N					N	4	2	shapes	N	1	True	41	(-3.5063568399774887, -8.3064175867669032)	(0.60074255723030134, 4.7364408696319806)	(1.4794628724275274, -5.1209735039207072)	(-8.2428715267477983, 1.3963044145441632)	1.0	z	0.583555
12	N	B	B	M	N	A	A	M	A	8	3	shapes	M	1	False	41	(0.64475121361674859, -0.033042612500960189)	(6.0735818898673752, -5.2571085892837424)	(-4.6611395184773432, 2.8813022085117161)	(8.5080273787394347, 6.0968150985793095)	1.0	slash	1.01268
13	N	A	B	M	N	B	A	M	A	8	5	shapes	B	1	False	41	(4.8447711761956214, -4.1464147484740943)	(3.1196893018199443, 2.0057953735760901)	(-5.4220994185045965, -7.1712288506060027)	(-5.8442518159305585, 4.0553700235566126)	1.0	z	0.823311
14	N	B	A	N	B	A	M	M	B	8	0	shapes	N	1	False	41	(-5.1575047098918869, 0.70889387365414613)	(-0.050486061452760467, -0.61125059121367542)	(2.2734406591410039, 7.8798147120273256)	(-8.7186295077661526, 4.7167759494601302)	1.0	slash	0.558548
15	N	A	A	M					N	4	0	shapes	N	1	True	41	(7.8365228171794392, 5.73679142980615)	(1.8532171052291915, -5.8702567489032447)	(-7.5877800894435863, -4.1181019592255375)	(-5.2154996646188971, 4.0579861271544964)	1.0	z	0.622126
16	M	B	M	N					M	4	2	shapes	M	1	True	41	(6.4589341506902986, 2.4971531670644769)	(-6.0102787388818406, -5.982253831306803)	(-8.3934856311311634, 3.0619099981582103)	(2.9070546228710796, -4.6819447694868703)	1.0	z	0.553752
17	N	A	M	N					B	4	2	shapes	M	1	False	41	(5.7460236037476289, -5.5309222080251033)	(-8.4698246239041275, -0.8676388896852858)	(-4.1259036166939405, 3.4598538105957655)	(6.3010472807009172, 0.1360213875520131)	1.0	slash	0.523457
18	N	B	B	N					B	4	3	shapes	N	1	False	41	(-4.8482877078108793, 7.4823162538481505)	(7.3213585830531862, -2.4820974496213353)	(-8.631502061552192, -2.1120692608402676)	(6.2272044339321138, 8.4365392466154105)	1.0	slash	0.557415
19	M	B	B	M	A	A	N	N	M	8	3	shapes	M	1	True	41	(1.8822204695635438, -4.5729958176119236)	(8.2627232258667505, -1.1626368419035833)	(-6.6141130711862148, 4.2158390099562162)	(5.6123722442526773, 3.6267466413967817)	1.0	slash	0.8884
20	N	B	N	A					B	4	1	shapes	B	1	True	41	(-1.6298228627420936, 6.3068263522578967)	(7.0178673794232793, -1.2849847088158803)	(-1.4614193382658023, -3.0874611807659553)	(5.987728308217088, 7.5117813680939562)	1.0	z	0.448505
21	N	B	B	A					B	4	2	shapes	B	1	True	41	(0.62699515593697974, -8.4944905332013541)	(-2.957730541387841, 2.4414933030883734)	(3.3060222777050488, 7.048788085655266)	(-7.5054091266364429, -2.7867742247354341)	1.0	z	0.720241
22	N	A	M	N					N	4	1	shapes	A	1	False	41	(5.2521626856589751, -8.6996918505594891)	(4.5928215708180691, 0.57124457470911061)	(-2.852180153415131, 3.2160965434493498)	(-8.3078266455561138, -5.1713375406040116)	1.0	slash	0.729864
23	N	A	A	B	B	N	M	M	B	8	4	shapes	B	1	True	41	(0.67927242844052493, -5.8757642936281087)	(-3.7769653942224073, -4.926695760354006)	(-0.094699490301595191, 5.4655802874453361)	(3.4807573571235348, -2.9036536569912865)	1.0	z	1.35508
24	M	B	A	B					N	4	2	shapes	A	1	False	41	(0.92343290844895698, 2.6481176874025945)	(6.9293513269707212, -1.41610939097023)	(-5.7685257948717155, -3.5041151568753017)	(-8.2305811151772978, 2.5739668060291798)	1.0	slash	0.663144
25	N	B	M	N					M	4	1	shapes	B	1	False	41	(2.6952527250826659, 1.3611024169163386)	(-3.2425096634079509, 6.6054797835661692)	(-2.9190770366461081, -7.7810310746284372)	(8.4521419818039476, -6.8159871299893737)	1.0	slash	0.732759
26	N	B	M	M					B	4	1	shapes	B	1	True	41	(8.0921751212280384, 6.0048311635884062)	(-1.6209816268886996, 1.1646506529379295)	(3.8796885403518537, -2.890765840934467)	(-6.939971079575904, -7.5137135591960478)	1.0	z	0.740533
27	M	A	M	A					B	4	2	shapes	M	1	False	41	(1.7380054854785332, 7.7763836332279652)	(-6.8255628357879337, 7.2610825008418338)	(8.2566073344616164, -3.0269785757022039)	(-0.75398091357525843, -3.9962750249423546)	1.0	slash	0.592203
28	N	B	B	N					N	4	0	shapes	N	1	True	41	(2.3126715744774931, 0.70510830151750703)	(-3.5945739367188763, -4.3793442495183772)	(6.3964564892373392, -0.21619104435361081)	(-0.076296095830343802, 7.8928391012485548)	1.0	z	0.491642
29	M	B	M	A	A	N	N	B	M	8	2	shapes	M	1	True	41	(5.2857271645928243, 3.7153785124999104)	(5.0613964201414365, -2.4767720723682496)	(-7.5933520309752822, 6.4656169606629739)	(-8.3726396488490487, -5.2703252037362676)	1.0	slash	0.867587
30	M	B	M	N	B	A	A	N	B	8	4	shapes	B	1	True	41	(6.3533868818206223, 6.6993474507098334)	(-0.87304430127768562, -0.14188911472432331)	(-2.6949265774989444, 4.0509759545212987)	(-1.1922249459043206, -5.0875092701893818)	1.0	slash	0.744526
31	M	A	N	M	B	A	N	B	M	8	4	shapes	B	1	False	41	(-4.2263598554750548, 2.7974784590811446)	(-5.3332630797495852, 8.3996331451306716)	(3.6936897780799693, -3.1629277211869313)	(6.6931574489708243, -8.5482928613776394)	1.0	slash	0.774202
32	N	A	M	N					A	4	1	shapes	A	1	True	41	(-6.1454276424612182, 3.9456796816697217)	(4.2927542134898697, 0.86714790666032826)	(7.8384366742326428, -2.6143388598910082)	(-2.205743486685007, -7.6614678390758533)	1.0	z	0.518488
1	M	B	M	N	B	N	A	A	B	8	0	shapes	M	2	False	41	(-7.4109778640887516, -8.2448594166022602)	(0.98566993173622741, 0.13502938317614266)	(-2.3772308202480898, -2.3527341100784689)	(5.8854197576803724, 2.7075021579305325)	1.0	slash	0.693461
2	M	A	A	M					A	4	3	shapes	M	2	False	41	(8.6503920898217075, -6.1635429026768254)	(-6.430674171588187, 0.25991064655741525)	(3.1826968320956475, 2.4401652999661803)	(-0.52831941304052599, -7.4886461837946303)	1.0	slash	0.971749
3	N	A	N	A					A	4	3	shapes	A	2	True	41	(-4.2463856914263332, -3.5504186140604475)	(2.2187996392415794, 5.1544724039558893)	(8.0152742518238789, -2.1923126916047808)	(-4.3819471977273716, 5.0668166705362552)	1.0	z	0.521467
4	M	A	A	M					M	4	2	shapes	A	2	False	41	(-3.2063121603162008, -6.0954222045841364)	(4.7192197059749521, 2.8723519565382709)	(-6.7774872255298462, 3.6950630329250451)	(4.0313167699818955, -2.6406832268035094)	1.0	slash	0.569157
5	M	B	B	N					N	4	1	shapes	B	2	False	41	(-7.3640023307730251, 3.3627794067095795)	(7.5494944593725961, 0.50410609149779617)	(-6.1751250867012271, -7.9784391884639909)	(3.8738990688384654, -1.8603698032793421)	1.0	slash	0.688669
6	M	A	N	B	N	M	A	B	N	8	4	shapes	N	2	True	41	(-4.4941643179642954, -5.8136917167918245)	(8.6198683441960569, 8.546106069443514)	(-1.1075289269449877, 7.2511230919472816)	(4.8723332419751273, -0.71356576024643914)	1.0	z	0.617932
7	M	A	A	B	M	N	N	B	B	8	5	shapes	N	2	False	41	(7.7781030599667673, -8.039381662445475)	(5.7819330700790701, 0.42378531154581189)	(-1.5221599473300076, 0.30671526333936328)	(-8.3870204799322892, 1.6532837178274047)	1.0	slash	0.706687
8	N	B	B	A					N	4	0	shapes	N	2	True	41	(0.79691740293546509, -5.3007015923988163)	(-4.2320047347349394, -0.92706938491888558)	(2.9127640004738442, 6.4502778609120242)	(-8.1049556977776795, 3.8574951131259887)	1.0	z	0.413803
9	N	A	A	N	M	B	M	B	N	8	0	shapes	N	2	True	41	(-3.2318395957453543, -7.4616707085679215)	(5.1666661532269416, 4.6955455441608223)	(-1.5984284190188607, 6.8940930023024016)	(4.1580383671385501, -5.7646488865150394)	1.0	z	0.757481
10	N	A	A	N	B	M	M	B	A	8	3	shapes	N	2	False	41	(-5.5943686281033491, 7.4486933803468567)	(8.7129468599392652, 2.0767081757754884)	(-1.0854678108605169, -2.127933684128374)	(-7.083368220046971, -1.8534017121583659)	1.0	slash	0.656168
11	N	B	N	M	B	M	A	A	B	8	1	shapes	B	2	True	41	(6.4882934211207637, 5.8651310643128216)	(-8.2165790297117116, 4.7818934193604683)	(1.7070962037353112, 0.99702656303579396)	(-6.8999602128699431, -6.1489648692722927)	1.0	z	0.616813
12	M	B	A	A					A	4	2	shapes	A	2	True	41	(3.9891415943986424, 7.7854250306759916)	(-0.20095337685516768, -5.9505619150115114)	(-5.8537207187610409, 5.5142024024341172)	(5.3714911614764507, -3.0414628408231108)	1.0	z	0.557841
13	M	B	A	N	M	B	N	A	N	8	4	shapes	M	2	False	41	(-2.0309352959403437, -1.3428389204064493)	(-5.9840048029689044, 7.7645059301171351)	(4.2517710028155982, 2.6634580356559674)	(4.2192298536541237, 7.7755904744657549)	1.0	slash	0.889601
14	N	B	M	M	A	N	A	B	B	8	1	shapes	B	2	True	41	(0.0009382151478121159, -7.4439198418760721)	(6.427214678981013, -1.1461426756636728)	(-1.2300257875932523, 6.0919955550637575)	(-6.9494497878148582, 0.22155277910498228)	1.0	z	0.410816
15	M	B	A	B					B	4	3	shapes	B	2	True	41	(-3.2585579260284439, -1.5733900540731467)	(8.3978409570097803, 3.0277191872429352)	(-2.7451160813947002, 6.0534806534028256)	(5.4699063386368234, -3.2367214522102756)	1.0	z	0.54554
16	M	B	N	B					A	4	2	shapes	N	2	False	41	(-0.56924695886518961, 5.3965880926751417)	(4.4769770922154333, 3.118501019591319)	(2.9452324711438216, -2.5061360498092764)	(-4.6380426186403989, -4.4777550793087917)	1.0	slash	0.58317
17	N	A	M	B	M	N	A	B	N	8	1	shapes	A	2	False	41	(4.4581769263797923, 1.1704590568110653)	(-7.91069048574247, -3.2636232639356164)	(-1.954006478113187, 1.9066739054537312)	(-3.1471879427652443, 7.6704505200589814)	1.0	slash	0.548768
18	N	A	A	M					A	4	2	shapes	A	2	True	41	(-7.3468901982897181, 2.2057649074252534)	(-3.8506603955242706, -0.85158307911076925)	(7.0013286868135935, 8.5394205496240581)	(1.7705401133976633, -2.3259217769507066)	1.0	z	1.07238
19	N	A	A	N					B	4	3	shapes	N	2	False	41	(6.626786037878885, 6.1656885458011956)	(-8.4224292063656279, -2.9368752223425778)	(-0.30569205431018887, 0.83638692150835503)	(6.0465771010844573, -6.8604142496645091)	1.0	slash	0.617995
20	M	A	N	M	N	B	B	A	B	8	6	shapes	B	2	True	41	(-0.27704545863110219, 2.7725958284984173)	(4.7675739136764683, 1.1145061087980146)	(3.8719162733349943, 6.2938252395562273)	(-1.1695562930557779, 7.0086205126526018)	1.0	z	0.553756
21	M	A	A	N					M	4	0	shapes	M	2	True	41	(-7.8525149978135147, -1.0750738117921621)	(5.0141581263925445, -3.0098484968760699)	(5.003363212828603, 6.3956803558647728)	(-1.3016156724773804, 3.7272574839469907)	1.0	z	0.371271
22	M	A	N	B	B	N	A	M	A	8	1	shapes	A	2	True	41	(1.4743675518101522, -1.0880036466852809)	(-1.0446850519490694, 5.491888824317698)	(0.40204021081937213, -8.145927078405176)	(-3.0675873881578353, -3.1690509695148377)	1.0	z	0.51501
23	N	B	M	B	N	A	A	M	A	8	5	shapes	A	2	True	41	(1.6258309878480937, -2.9929240519513023)	(-4.0200915459203959, -0.27855240809977033)	(-2.4626390738908341, -5.8206097161685477)	(1.8816136499691041, -7.3111360537189505)	1.0	z	0.630329
24	M	B	N	B					M	4	2	shapes	N	2	False	41	(-4.6628781789709421, -5.7668296050587333)	(5.4477249208133767, 0.88099469066032476)	(-8.2389672144395423, 5.0383428714592728)	(2.4721176830588742, -6.695418096140898)	1.0	slash	0.488461
25	M	B	M	B					A	4	0	shapes	M	2	False	41	(7.1556956722241516, -3.9511188013661824)	(-8.0698417259841726, -8.2471921293257697)	(1.5209992670218302, 8.4416142947941104)	(-2.4862771461441868, 8.0170719160529273)	1.0	slash	0.614056
26	N	B	B	A	M	A	N	M	A	8	3	shapes	A	2	True	41	(-7.5339124511172377, -4.5944607929403061)	(0.79664886077977215, -4.6372620724669664)	(2.570153450593466, -0.3494168365516277)	(-4.9119835677975843, 1.7732645326622247)	1.0	slash	0.677238
27	N	B	N	A					N	4	2	shapes	N	2	True	41	(3.3650560352031214, -1.3374090508875147)	(-4.3705003689720012, 3.0638460905963498)	(-7.5519080516327417, -8.1635235382521909)	(3.9054858454304906, 8.265074490525997)	1.0	z	0.501534
28	N	A	N	B					B	4	2	shapes	N	2	False	41	(-0.98848170192433127, -5.4394537348368264)	(5.9273150552893128, -8.0144793638959353)	(-2.1362721549863624, 4.1623048119553108)	(3.2371793125109143, 4.60635842966553)	1.0	slash	0.539229
29	M	B	B	M	N	A	N	A	M	8	4	shapes	N	2	False	41	(-0.8696919014832698, 6.7716955570418538)	(5.717999622713684, -6.9376317597968526)	(-5.6944373581940138, 4.314173263859022)	(3.3571242781188282, 4.9526712337685694)	1.0	z	0.466925
30	M	B	B	M	A	A	N	N	B	8	7	shapes	N	2	False	41	(-6.5457365664103166, -6.5526390529235847)	(-2.1187067959140338, 7.5088987027061158)	(1.8853691217965043, 7.2057564520829853)	(4.2621163075525104, -5.4271152049200513)	1.0	slash	0.448091
31	M	B	N	A					B	4	1	shapes	B	2	True	41	(-0.57170254850377411, 0.89111508309004073)	(4.3089025117817332, 6.6674520622896605)	(3.1923481000166003, -2.4948257440078194)	(-2.9068109555945423, -5.9032225467307242)	1.0	z	0.774267
32	M	B	A	B	M	A	N	N	N	8	3	shapes	B	2	False	41	(4.7033118976835535, -6.863949508440446)	(8.74645258723233, 3.9447302095592338)	(-5.0429271192605247, 0.050670735866610528)	(-7.4025031144077804, -6.3022158744326369)	1.0	slash	0.613322
1	N	B	N	A					A	4	3	shapes	A	3	True	41	(4.0842177614162836, 2.2493214999071345)	(-8.2048741447474534, 6.5387797325356818)	(-0.66689076883172049, -4.7103725005368382)	(7.3741101951130474, -4.1951791323867944)	1.0	z	0.533531
2	N	A	N	M	M	B	A	B	A	8	0	shapes	N	3	False	41	(-1.5853738341025148, -4.1560389771462454)	(5.7459221822071083, -3.5647797764516289)	(0.54235388337546198, 3.9865152197385019)	(3.4344904330139787, 0.82259664879532046)	1.0	slash	0.509104
3	N	A	B	M	N	M	A	B	N	8	4	shapes	N	3	True	41	(-6.0558044073742456, -2.6009610755373762)	(-0.2810549380819527, -7.8275107421620502)	(-1.0755850979426151, 3.975172430755137)	(3.576117250754816, -0.42010025726975364)	1.0	slash	0.802084
4	M	B	N	A	M	B	A	N	A	8	0	shapes	M	3	False	41	(-4.7633861099442347, 2.2525122870216325)	(4.7281796505463944, 8.0312801492787251)	(-2.3120216366654507, 6.1598718666230301)	(-4.8005973131924131, -2.1326685758635548)	1.0	slash	0.620513
5	M	A	M	N	N	A	B	B	N	8	7	shapes	B	3	False	41	(4.466833888083432, -4.6217348534049254)	(-2.5054806220505004, -3.3284005114542135)	(-7.9175798741359689, -3.0278507121686378)	(6.4043573810563927, 6.501133744574414)	1.0	slash	0.50754
6	M	A	N	N	B	M	A	B	N	8	4	shapes	B	3	False	41	(-3.6236472284220564, 4.3161587670378889)	(-3.983173649647445, -5.1490920029724467)	(2.5962652038954097, -7.119332433161043)	(-7.0402406079127404, 8.4387242322107561)	1.0	slash	0.753936
7	N	A	A	N					N	4	0	shapes	N	3	True	41	(1.7598863279999968, -7.7793567835597148)	(-7.6525375992124296, -6.8570173780395738)	(7.7872357015107987, 6.7725055740028406)	(-2.8813772937492192, 0.32055887634998115)	1.0	slash	0.403635
8	N	A	N	A	B	B	M	M	B	8	4	shapes	B	3	True	41	(-7.9547944175362897, -7.2968995546043898)	(7.7524541089798085, -4.5390101110709411)	(2.0933477126173585, -6.5090213988414005)	(-0.46221147204869517, 7.5676269417410609)	1.0	z	0.348716
9	N	B	B	A					A	4	3	shapes	A	3	True	41	(-7.4799938114294857, 7.587510570853393)	(3.7690835990403269, 7.2320146830877654)	(3.1912633815095557, -4.3741504308865276)	(-8.5805561787131381, -4.659671470960749)	1.0	z	0.328251
10	N	A	N	M					N	4	2	shapes	N	3	True	41	(-4.953153132609625, -7.4196772138543343)	(5.6334004102533441, -0.4377402496451257)	(-2.6454647261964794, 8.3017265703386371)	(3.7580122828094087, 3.6986475795280906)	1.0	z	0.376574
11	N	B	N	B					B	4	2	shapes	N	3	False	41	(4.5242651968817427, 0.47870664982854549)	(-0.087690904564835748, 6.0439036757056943)	(8.259976672720402, -5.6529936959866003)	(-8.475480686166609, -6.6899694259625644)	1.0	slash	0.544288
12	M	A	N	N					N	4	2	shapes	N	3	True	41	(-2.0384684784594196, 5.889732831827768)	(4.7802253278187621, -5.1408145308594806)	(-6.719091991861629, -0.28611763074686536)	(3.2343860787683827, 8.7487334484630992)	1.0	z	0.373956
13	N	A	B	N					M	4	2	shapes	B	3	False	41	(0.4739200019204759, 0.95438643826239478)	(-5.9238782954631635, -0.92206969316810916)	(7.6994149284787312, -7.8082894976230452)	(-5.6600329756002701, 7.136537252406546)	1.0	slash	0.483575
14	N	A	B	A	B	N	M	M	N	8	6	shapes	M	3	False	41	(-6.3346149256409898, -3.622738337342942)	(-5.7901625560614152, 2.4720029599357716)	(-1.3117612727003038, 7.2502164723897558)	(-1.0467218115642103, -1.1699903470167587)	1.0	z	0.765968
15	N	A	N	B					M	4	3	shapes	B	3	False	41	(-8.38826323730156, 5.8867475049661255)	(-4.7248190514897974, -0.79929504281225405)	(7.0241851567303222, 2.5308786320293422)	(2.7386333093816582, -8.504643769884261)	1.0	slash	0.573046
16	N	A	M	B					B	4	0	shapes	N	3	False	41	(-2.2237147760963287, -3.1868273352761989)	(-7.3084630468876552, 4.6561652680554442)	(3.6612186894588135, 4.8281676082952387)	(0.19006000355600428, -8.1552086248537066)	1.0	slash	0.508579
17	N	B	B	N	M	M	A	A	N	8	1	shapes	B	3	False	41	(-7.0885171698824854, 7.3139874377236538)	(-2.1064618912340212, -5.6648494730844803)	(-6.951620638142078, 1.6831395217244314)	(3.8651554473836711, -7.8431817863619466)	1.0	slash	0.698224
18	N	B	A	M					B	4	0	shapes	N	3	False	41	(3.1403238451400917, -4.5585906870199961)	(7.3575165839302095, 4.0239845344895961)	(-7.7917056866428798, -8.7324480143300232)	(-3.4942105806550687, 4.2416199275703548)	1.0	z	0.535461
19	N	B	B	A	A	N	M	M	A	8	5	shapes	N	3	False	41	(-2.4761420375217575, -6.690650028068494)	(2.3249950815549472, -5.3673782720236236)	(-3.6411000882045643, 5.9346647736790725)	(-8.1318120442433948, -0.78930604364249035)	1.0	slash	0.527021
20	N	B	N	B					N	4	2	shapes	N	3	True	41	(-3.8006032156888745, -2.3428193843131577)	(-3.9989694745352207, 3.4137557331427555)	(4.5341727865538779, 1.9674305434417185)	(8.4258364023341414, -5.3317952191543023)	1.0	z	0.425159
21	N	B	A	A	M	M	B	N	M	8	4	shapes	M	3	True	41	(0.81263907162856164, 3.3540549153083745)	(5.0221965798726966, 5.2805886609076449)	(-4.3244813805941869, -4.0424105850375867)	(-0.29677624834003957, -0.53553688743342676)	1.0	z	0.590988
22	N	B	A	A	M	M	B	N	N	8	0	shapes	N	3	True	41	(8.0336958797526137, -0.55828321513710755)	(2.9264258724344678, 2.1122502010944419)	(4.1727470052287039, 6.2339455877507)	(4.6754068897110539, -8.7346798668748775)	1.0	z	0.588637
23	M	A	B	A	B	M	N	N	A	8	1	shapes	A	3	True	41	(8.6813437331360923, -5.6010094176985961)	(4.9144196944588732, -8.2662665609542199)	(6.8232287067097772, 0.38918278999833689)	(-5.287744275191228, -1.4424383025615715)	1.0	z	0.698391
24	N	A	N	M	A	M	B	B	A	8	1	shapes	A	3	True	41	(3.6121461715453567, -4.6205233089991635)	(6.9129583747323231, -0.58257274954137372)	(-0.089016649408367954, -0.73503100506121299)	(-4.1790217414850153, -5.8155023975649947)	1.0	z	0.641456
25	M	B	B	M					A	4	1	shapes	B	3	False	41	(-3.7093686745558054, 0.43008611681533537)	(-0.63460232274792538, -3.6807006313817956)	(6.9154748277463991, 1.2131761003125714)	(7.5344005867587107, -8.5577901599575519)	1.0	slash	0.931697
26	M	B	B	N	N	M	A	A	M	8	0	shapes	M	3	True	41	(8.3124514356025507, 3.6059271748016251)	(0.91316745431597468, -3.2489205606300198)	(4.7690373938218702, 5.5128063759735184)	(8.0328550990100709, -0.74662863348734732)	1.0	z	0.754795
27	N	B	N	B					A	4	2	shapes	N	3	False	41	(-4.5551243530417889, -8.452347995366134)	(3.1689990215942512, 2.3320496961859405)	(-0.87822054941611505, 6.2641382280138824)	(7.1264170326938334, -3.7938460301364367)	1.0	slash	0.506893
28	N	A	B	A					A	4	3	shapes	A	3	True	41	(2.4732785527446079, 4.4178741164924169)	(8.0088373245268372, -2.0700046594849191)	(-3.9548953799996873, 5.143486597639976)	(-7.7424661372338992, -0.71086567829189207)	1.0	z	0.432777
29	N	B	B	A					M	4	1	shapes	B	3	False	41	(-6.5221478701981361, 5.0798115172888796)	(4.7080450052666034, 5.5840793437608678)	(-0.10072566166460106, -7.8159260065895975)	(0.16827339568285637, -1.6694172941845116)	1.0	slash	0.66812
30	N	A	M	M					M	4	2	shapes	M	3	True	41	(-2.0541817749034816, 3.3131059480939253)	(-7.1926652361541743, -7.2473741710638899)	(8.3967387080155937, -4.6290693504628901)	(8.2427458266839757, 2.4427339586171435)	1.0	z	0.663967
31	N	B	B	A	N	M	A	M	N	8	3	shapes	A	3	False	41	(0.35430899037460328, 0.39085741576982613)	(4.3204708371818761, 7.6216299413786253)	(-7.2053561339118417, 8.2307111728549671)	(-7.1541283908436393, 2.5169589751647514)	1.0	slash	0.765721
32	M	A	A	B	N	M	B	N	M	8	0	shapes	M	3	True	41	(-2.5414045230590236, -8.4109847947279857)	(5.4791012608228318, 6.8852077758537167)	(4.7363268945238843, -6.0062744599058613)	(-7.2743744906383583, 1.1279224576833737)	1.0	z	0.718823
1	M	A	B	B	M	N	A	N	M	8	1	shapes	A	4	False	41	(1.1302030757850083, 6.9924474118172864)	(1.6688045504898668, -1.3913437472463119)	(-8.5578238255259471, -0.22907626137140369)	(8.6885098362446982, 0.6860011079651791)	1.0	slash	0.544373
2	N	B	A	A	N	M	M	B	B	8	7	shapes	B	4	True	41	(-6.6797808645572392, -3.3231643520151382)	(3.4767014553174143, 7.8249350481310387)	(6.9193875628811021, -4.8780450442097933)	(-4.3933821046806054, 8.5472769502299855)	1.0	z	0.358425
3	N	B	M	A	N	B	M	A	B	8	0	shapes	N	4	False	41	(-1.7000652386642701, -6.3966921202716405)	(-4.2761329339956831, -0.97301111668300422)	(-8.1412556287103417, 3.077195242666388)	(6.75540405648246, 1.99651140415593)	1.0	z	0.394244
4	M	A	B	M	N	N	B	A	A	8	7	shapes	A	4	True	41	(-4.1254532034977185, 3.5585379514951292)	(-1.0944050477513816, -6.2413720780751865)	(-6.2749326894347801, -7.265627487646146)	(5.25842917812267, -5.6649075403835267)	1.0	z	0.853467
5	N	B	M	M					A	4	1	shapes	B	4	False	41	(5.5650185183686673, -4.7231008794683058)	(-3.958446700254278, -6.4106050414190259)	(-8.6205456267059883, 8.4203104297421483)	(5.7674018205485442, 5.6172924042271788)	1.0	slash	0.709695
6	N	B	B	A					N	4	0	shapes	N	4	True	41	(-3.7665851085776563, 7.4097075545435835)	(8.3766318806389179, -7.3029428094069893)	(-4.8020126880373635, -0.34738896659195539)	(7.165978794824305, 4.186205182322734)	1.0	z	0.417335
7	N	B	M	B					B	4	3	shapes	B	4	True	41	(-4.8350136028150299, 4.1500209571988247)	(2.8562667659820011, -5.2551371939284808)	(6.7877009224359881, 1.9832855579322892)	(-6.8931030001486135, -5.4067132393990764)	1.0	z	0.360886
8	N	B	M	M	N	B	A	A	N	8	2	shapes	M	4	False	41	(5.1695347868811865, -7.0948690405955519)	(3.8806186201976107, -2.8335826052226158)	(5.3549208903431413, 1.6006600883820248)	(-6.6923256522846124, 5.3777460467927156)	1.0	slash	0.986171
9	N	B	A	B					A	4	2	shapes	A	4	True	41	(1.3655030542025735, -7.1725510506572459)	(-8.3699865900306438, 4.3134658090808013)	(6.6941555194062499, 4.6570849800508025)	(-2.812451392923677, -3.2397691197371987)	1.0	z	0.552374
10	M	A	M	B					B	4	3	shapes	B	4	True	41	(-0.27623597058386196, 8.606542289739199)	(-1.7628436884374894, -6.7743739887841183)	(4.9258371095412219, 7.663066658257577)	(7.194365258955628, -2.6000921110422599)	1.0	z	0.52983
11	M	B	B	A					N	4	0	shapes	M	4	False	41	(-0.77498706715326993, 5.9202112684840813)	(4.0627464627007672, -0.24909813969887118)	(-6.8824969033911678, -3.0427188131231695)	(7.0100008914740926, 5.7961730074873596)	1.0	z	0.369591
12	N	B	N	B	M	A	A	M	N	8	0	shapes	N	4	True	41	(1.1183088668071104, 4.0102684869453658)	(2.0342306517967703, 8.1725981580271032)	(-1.7432058600552143, -1.7212685642725818)	(-8.2799720439578444, -7.8907596756953344)	1.0	z	0.579308
13	M	B	A	A					A	4	2	shapes	A	4	True	41	(2.5358391408334313, -3.6100863953687066)	(0.45020088274289627, 1.093075431702065)	(-2.5184363214130405, 5.1015225778700994)	(-2.8079274195598396, -2.0989527993118493)	1.0	z	0.862595
14	M	A	M	B	B	A	N	N	A	8	0	shapes	M	4	False	41	(8.3260263388328468, -6.7659178307841454)	(2.5567192301272144, -5.6262887899942857)	(7.2548944896406731, 8.1098458524339598)	(1.7331278443306015, 5.1408684761644281)	1.0	slash	0.924821
15	M	B	N	A	M	A	N	B	N	8	2	shapes	N	4	True	41	(-8.2914379248254946, 1.8476224845345737)	(3.6053527454063428, -0.57539803594644567)	(-4.6970166194515324, -5.2915238657955168)	(3.1744726821377043, -7.9046337447432702)	1.0	z	0.741896
16	N	B	A	N					N	4	1	shapes	B	4	False	41	(-3.2215534399267733, 0.32655863041054545)	(-2.6066124289619692, -6.2911510797587678)	(1.9627249244953973, -1.4088924983003661)	(0.42608694542627923, 5.6443203084879077)	1.0	slash	0.777965
17	N	A	A	B	B	M	M	N	M	8	7	shapes	N	4	False	41	(6.2532442531329959, -6.2900379841984684)	(0.85841544022874317, 1.6252504867155455)	(8.3622393614222617, 1.0227371994682652)	(0.51159866210378624, -6.9909524494106519)	1.0	z	0.659042
18	M	B	M	A					N	4	2	shapes	M	4	False	41	(-3.42351814542205, -8.7299476755730794)	(-1.589182114492063, 2.0119665992346754)	(2.5870767546347668, 6.8714605305161101)	(1.2137021745122833, -8.2551425860137595)	1.0	z	1.38533
19	M	B	N	M					M	4	1	shapes	B	4	False	41	(-3.466555102849032, -1.5745824421935399)	(7.790007944860097, -6.694083900522104)	(2.1438107102140975, 1.5015805083944649)	(-1.2312969760105172, 5.9505132191846375)	1.0	slash	0.590848
20	N	B	M	A	B	N	M	A	B	8	4	shapes	B	4	True	41	(8.0411729950239561, 6.0539205135183014)	(-8.6602997748418957, 3.4197247609214312)	(-4.4058181923963682, 1.0083156143929859)	(0.17804900985491123, -6.0922155632653467)	1.0	slash	0.977993
21	N	A	A	M	B	M	B	N	B	8	5	shapes	M	4	False	41	(1.1843478808690886, -3.8856202825891284)	(-2.5183401172714062, -0.47503447944076171)	(4.9407187218931092, 3.2890956724274485)	(2.1025003229077281, 8.5683735788433779)	1.0	z	0.721645
22	M	B	N	B	A	N	A	M	M	8	7	shapes	M	4	True	41	(-4.6437990054808989, -7.8060134706931219)	(-0.55667293076143665, 2.3960610460981702)	(6.9382704770107839, 2.7901840483536411)	(-4.7799142401961063, -0.27244089036713248)	1.0	z	0.685848
23	M	B	B	A	N	M	A	N	A	8	6	shapes	A	4	True	41	(1.018641344990117, 8.6201997812945663)	(5.1814728146064652, 1.3736893459642392)	(0.5724932192872636, -6.6887694416922265)	(8.1482588025044436, -7.5563601880127313)	1.0	slash	0.645012
24	M	B	N	N					M	4	2	shapes	N	4	False	41	(-4.0687103603949959, 5.3520396092189007)	(3.961973198648268, 7.9377802878515347)	(0.73424491228728961, -6.5394278785028703)	(-3.5990468434759073, -8.0662624152936075)	1.0	slash	0.74131
25	N	B	A	N					A	4	2	shapes	A	4	True	41	(1.460065686135426, -5.0787465969306727)	(-5.9496234755451329, -2.5234969953953374)	(2.4335884297951775, 1.8598260690315218)	(-6.3139143797863522, 8.402797281832548)	1.0	z	0.5309
26	N	A	N	B	M	A	B	M	N	8	7	shapes	M	4	False	41	(-5.2173086488544484, 6.2719250612645698)	(5.3225743547360018, 4.0402596999822507)	(0.89545826519729488, 1.9232566408689458)	(-1.1695311131350632, 6.8749137958960134)	1.0	slash	0.754736
27	M	B	A	M	A	B	N	N	A	8	2	shapes	A	4	True	41	(2.6367053770929338, 3.2191994310108694)	(1.6622691230063982, -2.613246410249408)	(8.3527487376375653, 4.8301293819797291)	(6.5490474198130944, -4.0266127700397263)	1.0	z	0.654697
28	N	B	A	M					B	4	1	shapes	B	4	True	41	(-0.48084400725690912, 3.7333893125728181)	(-6.6426862078356361, -7.711155447817708)	(1.9145148108042171, 8.1550803883717364)	(1.5185360460336863, -2.6551219384511935)	1.0	z	0.755349
29	M	B	M	A					B	4	3	shapes	A	4	False	41	(7.2291386208258963, -5.0068716879924065)	(8.2934909008374404, 7.3718028592948528)	(-0.58589454451887235, 5.5075199563643782)	(-3.0434576051168856, -8.2749594798388895)	1.0	z	0.549578
30	M	B	A	N					N	4	3	shapes	N	4	True	41	(7.2851688827798355, -5.3892871339462953)	(-1.4305181946653729, 0.59964710460268478)	(8.2224618272726175, 2.639553672866743)	(-4.1006349131697153, -3.3677126237260593)	1.0	z	0.489101
31	N	A	M	N	B	B	A	M	B	8	3	shapes	N	4	False	41	(-3.8751944656592938, 1.5782765598496837)	(6.2520500248090087, -2.7238009237573806)	(-7.2512507436912657, 5.6019363475812458)	(-7.914497618766644, -5.7309380316322489)	1.0	slash	0.730224
32	N	A	A	B					M	4	0	shapes	N	4	False	41	(6.6925321711516954, 5.988504293736737)	(-5.1450149543318382, 4.8262350871393931)	(2.1133164234232318, -2.1312542763695461)	(-4.6334980053306625, -6.012120373522496)	1.0	slash	0.712494
1	N	B	B	M					N	4	1	shapes	B	5	False	41	(-2.8856408099859667, -4.0991530104795499)	(3.8763368079914731, 7.8168522582407398)	(-3.1661822447569676, 5.6358949481877225)	(8.1679712790978236, -0.55835166368992084)	1.0	slash	0.894072
2	N	B	N	B	A	A	M	M	N	8	3	shapes	B	5	False	41	(3.7105118126145165, -2.5625835878264782)	(0.28421182316753146, 5.8255741059694284)	(6.1421858568358036, 2.8264016810143939)	(-6.541773918654096, 0.3626239546618244)	1.0	slash	0.805234
3	N	B	M	B					N	4	3	shapes	B	5	False	41	(-5.2298827072644523, -8.6571210190916279)	(0.04481800698141214, 1.9287840291586509)	(-0.97776331485220247, 7.7027437940235224)	(3.6673640136054306, -7.3211960194379193)	1.0	slash	0.557604
4	N	B	N	B	M	M	A	A	B	8	1	shapes	B	5	True	41	(-6.2640322597545008, 6.7649742968260931)	(8.701520106976524, 6.456478622671737)	(3.3193471471904346, -7.1968672568288694)	(-2.28649487473671, -8.610789526628114)	1.0	z	0.714053
5	N	B	N	A					A	4	2	shapes	N	5	False	41	(-7.6933390495749618, -4.338291648734061)	(1.1268111555861644, 7.5032139720220741)	(8.5230330642765075, -1.2768338097628744)	(-6.1050518146090162, 2.8496919973632515)	1.0	slash	0.468718
6	M	B	B	M					B	4	3	shapes	M	5	False	41	(0.16986100254255376, 0.41187839653277969)	(-6.7434212279900505, -2.991652453818415)	(8.5190130961149215, -1.3189895583740388)	(-0.8059875039995168, 5.2026304431723069)	1.0	slash	0.592495
7	M	B	A	M	A	N	B	N	A	8	4	shapes	A	5	True	41	(5.3389840969378746, 0.8961541392566712)	(5.8038860083688881, -6.0591748794145213)	(2.1403999597536103, -4.3313058467120964)	(-6.3604865028550197, 0.44594899444310165)	1.0	z	0.7641
8	M	A	A	M					A	4	0	shapes	M	5	False	41	(-7.9342931063344952, -8.4749776625660331)	(0.59355581848475047, -1.5261572185578665)	(-8.0457989072631442, 0.68565472921931025)	(6.8552149244007268, 0.21442784368278289)	1.0	z	0.540021
9	M	A	A	N					M	4	1	shapes	A	5	False	41	(4.0677193198068853, -1.0512602290261963)	(-3.7885793596656976, 3.7965880775266374)	(8.5497943438449937, 2.6119372738195406)	(-5.0493493656488475, -2.8104307250442826)	1.0	slash	0.585569
10	M	B	N	A					B	4	1	shapes	B	5	True	41	(-4.4515397897564473, 5.3425354176517672)	(2.8228342892817899, -7.8971017486841681)	(6.6246554895003893, 1.8049494022357209)	(-2.1276575885613696, -6.6991947980167783)	1.0	z	0.407112
11	M	B	N	N					N	4	3	shapes	N	5	True	41	(-4.8614998740956228, 5.2855180259888233)	(0.11285558902921977, -7.6837909493765357)	(-0.86440550034579289, -2.3791363834883512)	(3.9019336744983804, 3.5121315178322732)	1.0	z	0.358736
12	M	B	A	B	A	N	M	N	N	8	0	shapes	M	5	False	41	(7.8614874152551444, 6.228668894675959)	(-1.8405183837193881, 8.4821526573680543)	(2.8958548577914947, 8.7165923502708686)	(-7.1260222713424382, 4.8315158167121393)	1.0	slash	0.890501
13	M	A	A	N					M	4	0	shapes	M	5	True	41	(-7.9111141049992701, 3.3213648538608673)	(4.3744355896083764, 5.8076241331321796)	(7.3597927350287264, -0.28372959280186016)	(-4.1150948385631629, -4.3999897216354453)	1.0	z	0.858113
14	M	B	A	A					B	4	1	shapes	B	5	True	41	(-0.95080705911924124, 0.051741260455404614)	(-8.511915320922224, -0.83409513210906194)	(3.5246103397298327, 2.9091403538569125)	(7.5915875158692714, -0.46492815715653535)	1.0	z	0.559978
15	N	B	N	M	M	A	A	B	M	8	4	shapes	M	5	True	41	(-6.5946284086580533, 4.767743294961182)	(0.32227423597658422, -6.7598608570383325)	(5.5035949337971708, -2.0256890382103041)	(0.88380999144906447, 1.9876695904030441)	1.0	z	0.491693
16	M	A	M	A	N	N	B	B	A	8	3	shapes	A	5	True	41	(0.71257995197396085, -3.3314174908552543)	(-2.2649189352138883, 6.1275708416017594)	(6.7140558643351564, 2.3486225768006666)	(-3.7032993170184305, 1.2921397320671542)	1.0	z	1.26028
17	M	B	A	M	A	B	N	N	B	8	5	shapes	B	5	True	41	(0.22197000986819937, -4.6746774549436534)	(-6.304831616101227, 5.5368891298371068)	(-7.008444237274011, 0.61891191827882253)	(8.6975605350051239, -3.399396293820951)	1.0	z	0.546347
18	N	A	M	B					M	4	3	shapes	B	5	False	41	(4.2811313291137392, 6.9433174793452501)	(-3.9185059672793559, 4.3491071476332905)	(-5.7238490807361533, -4.1164574573182824)	(4.7616748658489794, -3.8004291581366427)	1.0	slash	0.526563
19	N	B	N	M	M	A	B	A	N	8	1	shapes	B	5	False	41	(-2.2062236582953592, 1.4303146035341499)	(-5.4469556268281405, -3.2179736726641313)	(-7.3777793546051917, 1.4785512240090029)	(8.3841195339744594, 0.0062313993685840785)	1.0	slash	0.581579
20	N	A	B	M	A	B	N	M	N	8	5	shapes	B	5	False	41	(1.0596662489153061, 8.6137988545274986)	(2.842149559934013, -7.344960076155191)	(-5.8662709235412436, -7.7657640120279012)	(-2.7898147604127699, 4.7810370571294509)	1.0	slash	0.531963
21	M	A	A	M					M	4	3	shapes	M	5	True	41	(4.5114156193831558, 2.2295663139017172)	(4.3574894786192342, -5.4167421900060999)	(-7.20244144237033, -4.7062970765246686)	(-7.420153728395265, 6.5957310880743165)	1.0	z	0.427488
22	M	B	B	N	M	A	A	N	B	8	2	shapes	B	5	True	41	(-1.6207951832004559, 1.2944859797063462)	(0.91690704931297162, -4.0219966538774017)	(-3.8393059011434687, -5.7441295668725214)	(5.1128677511905405, -6.5928751999858637)	1.0	z	0.720422
23	M	B	M	B	A	A	N	N	M	8	7	shapes	N	5	False	41	(3.5683262677584224, 7.3992966758894134)	(-7.7235093534011146, -1.2542833670089752)	(-6.076636159483388, -8.2047455008976673)	(5.0771538654557951, -1.912730140382485)	1.0	slash	0.92224
24	M	A	M	N	B	A	N	B	B	8	4	shapes	B	5	True	41	(3.5968635381738352, -5.7130420522641874)	(4.7921979678975024, 8.389120151127198)	(-6.1730885858619757, 7.4453195108396457)	(-4.0284306735573434, -3.0938114641910834)	1.0	z	0.515926
25	M	A	B	N	A	M	B	N	A	8	0	shapes	M	5	False	41	(5.3893741250636005, 7.4350550433818263)	(-8.037142710088375, 4.8212985663197916)	(-0.65637691508154639, -2.3789898605110498)	(3.4109913114812045, -2.3856767264386685)	1.0	z	0.671718
26	N	A	N	M					N	4	0	shapes	N	5	True	41	(6.7338635630098143, -0.19492492991060395)	(2.1111736597428354, 2.7328146134231499)	(-2.5501083650266274, -1.7972705714838639)	(-6.2474682565358233, 6.0177749054679079)	1.0	z	0.387801
27	N	A	A	B	N	M	M	B	A	8	2	shapes	A	5	True	41	(-5.857093376094352, -0.96421136601925461)	(2.2442087467887148, -5.4488863342645555)	(5.6685586547401137, 3.6407621369228949)	(-3.6776658071311799, 4.9958405008604814)	1.0	z	0.521636
28	N	B	M	A	A	N	B	M	B	8	4	shapes	A	5	False	41	(1.9794230901200827, -7.886011247534106)	(-6.2718538706544216, 7.1794828467677707)	(-6.6822551029246222, -5.5620081733816225)	(-2.64461195175741, 4.8114191599077802)	1.0	slash	0.546588
29	N	B	B	N	A	M	M	A	B	8	7	shapes	A	5	False	41	(-7.5179858630248546, -8.4859653751347768)	(6.248457052351565, -3.2487618329721455)	(3.7542748446647458, 1.8621056211366156)	(8.5597582514300612, -7.2584796829092806)	1.0	slash	0.546154
30	N	B	M	A					B	4	1	shapes	B	5	True	41	(-5.6881021789844679, -3.1855314976083822)	(-7.3857565367994527, 2.0796888134106304)	(2.8124752949569345, -5.7988104680224604)	(0.16328836915294609, 2.6770860860892718)	1.0	z	0.564403
31	M	B	M	B					N	4	3	shapes	B	5	False	41	(2.8186102357725655, -7.6952497693715287)	(2.2975019609065654, 8.5199394013637999)	(-1.406181551505612, 0.3425817130262061)	(-5.9792541049772758, -2.4432752338358892)	1.0	slash	0.694306
32	M	B	A	A					A	4	3	shapes	A	5	True	41	(7.6392355517076034, -7.4456833329160537)	(5.0656513197025514, 6.5624189961222168)	(-1.5422450873920415, 7.5815499544169462)	(-7.1320881120748973, -4.0471333715828646)	1.0	z	0.406887
1	N	B	B	M					A	4	1	shapes	B	6	False	41	(-7.8721705097309025, 5.2194376290862436)	(3.1122904982977726, -5.0945316804936684)	(6.8135365415130007, 1.7920446637934884)	(-5.8295464784944508, -3.6151192045585789)	1.0	slash	0.479742
2	M	B	N	B	N	M	A	A	B	8	5	shapes	M	6	False	41	(7.7685071695940628, -1.7129125909705056)	(4.6693674405600216, 2.6201783436610064)	(6.1174854439219892, 6.9289385752589823)	(-8.3371758033022587, -8.2220206915996457)	1.0	slash	0.74718
3	N	A	B	A	M	N	M	B	B	8	2	shapes	B	6	True	41	(0.059860223567831383, -5.4332202094487823)	(-7.1759106395178591, -7.4559785356458956)	(-3.5603044031379003, -3.5528619034218387)	(8.093657070981024, 2.7446215755140351)	1.0	z	0.600445
4	M	B	N	B					M	4	1	shapes	B	6	False	41	(2.3405891532379961, 1.8804058042564193)	(-2.7043946129211687, -0.44865510858967639)	(1.8310171842276013, -6.9968980114103605)	(-1.2807139137826384, 4.0971307389326252)	1.0	slash	0.482495
5	N	A	B	A	B	N	M	M	A	8	4	shapes	B	6	False	41	(-6.5976360587500906, 5.4670847089933972)	(3.5252368327350272, 2.5419770365936785)	(8.0623837653090327, 1.0928232665919957)	(3.4445592955941997, -7.3054694597755887)	1.0	slash	0.479115
6	N	B	N	M	M	A	B	A	M	8	0	shapes	N	6	False	41	(2.5448844796744137, 3.325859927320316)	(-4.0629167498056153, 1.6208203778915067)	(-0.52708231812991713, -2.4543463988986289)	(-1.6694362277465791, -7.7486117836346269)	1.0	slash	0.495822
7	M	B	N	N	B	A	A	M	A	8	7	shapes	M	6	False	41	(7.4684330855863337, 0.16681271473105852)	(-2.6456962671797628, 2.6386280498331001)	(8.3307184902351352, 5.2462519533258938)	(7.0182084405034235, -6.7905368918674078)	1.0	slash	0.647039
8	N	B	N	B					N	4	0	shapes	N	6	True	41	(-6.1922058973382335, 0.27019903005069956)	(4.3409189291827115, -1.3717606527798161)	(0.80595972620034573, 7.0051436367513293)	(-1.2661306824023209, -7.0857235237868803)	1.0	z	0.589278
9	N	A	N	B	B	A	M	M	N	8	2	shapes	N	6	True	41	(6.0060825430507236, -6.8290675472996414)	(7.8450134213650813, -2.0213683573046177)	(-5.1909232009418416, 5.3564511826745811)	(5.8873655488209291, 5.2545931292614956)	1.0	z	0.568536
10	N	A	N	M	B	M	A	B	N	8	0	shapes	N	6	True	41	(2.7198279668200058, 5.7007169882213162)	(-5.5291752799097793, -4.0200126075949916)	(8.335514764825767, 1.7436165847816234)	(7.1520870155932368, -8.0820179455743322)	1.0	z	1.05
11	M	B	M	N					A	4	2	shapes	M	6	False	41	(7.1553046385759203, -8.5362699860376292)	(-3.8272640257316395, 2.4755882042252768)	(-0.38060683037784493, -3.0660587539232242)	(1.7004749197056945, 5.9671620129303609)	1.0	slash	0.442336
12	N	B	A	A					B	4	1	shapes	B	6	True	41	(1.1359040012832722, 2.8682950506304863)	(5.9414413307324931, -0.7846605872247121)	(-2.3698219594429162, -8.2388437434109747)	(-4.3008039032538488, 7.3639403219634794)	1.0	z	0.355928
13	M	A	A	N					N	4	3	shapes	N	6	True	41	(-2.526287130134957, 3.6797697883829859)	(3.2517426483734688, -5.6730719818352373)	(5.8970384108532841, 0.80945350737031596)	(-7.6811959226994242, -1.8995480767633275)	1.0	z	0.54362
14	M	A	B	N	M	A	B	N	A	8	1	shapes	A	6	True	41	(2.4997265617002711, 5.3628806317232662)	(7.1743254741428313, 0.15111281276656641)	(6.5425841169409686, -7.5452694541052869)	(-7.8822854414951395, 8.2975638718721676)	1.0	z	0.485403
15	M	B	B	A					B	4	2	shapes	B	6	True	41	(3.6392210245968784, -7.7855579564932977)	(0.64738192393405569, 5.9729527970998486)	(-3.037916182260167, 3.9845211520756596)	(-7.3852067346184391, -7.1860131345918479)	1.0	z	0.413062
16	N	A	M	N					M	4	2	shapes	M	6	True	41	(-1.8479646526667386, 5.92192827410231)	(5.9292693017236324, 3.7345804519431063)	(-2.787152103236008, -7.8952369956793911)	(6.4348492311158729, -0.83715523831325278)	1.0	z	0.560799
17	N	A	B	N					N	4	2	shapes	B	6	False	41	(5.2450029379070084, -4.0171526033027947)	(7.2450458619415326, 1.0174080148083942)	(-4.324396438067641, 0.6305000819905775)	(-0.17205563509803135, -3.6939565261878551)	1.0	z	0.410162
18	N	A	M	A					N	4	3	shapes	A	6	False	41	(8.7460078425081491, -5.8723640838999236)	(0.83216132419442701, 6.4106160626915543)	(-2.8270637020868321, -1.3270067565979122)	(-6.1130352707621478, 2.3953454409303632)	1.0	slash	0.568155
19	N	B	A	N	A	B	M	M	B	8	0	shapes	N	6	False	41	(2.4696795470934845, 1.3637097178290762)	(-5.3195384326154613, 5.1999500606315152)	(8.4611438087475186, 4.4315752508126565)	(-5.59678823097485, -7.2711334051602705)	1.0	slash	0.48913
20	N	A	M	B					M	4	2	shapes	M	6	True	41	(-8.1412051325547132, -4.3958717667000897)	(7.143292353577003, 4.7450614547966374)	(-3.3838912747257268, 0.51173509969180309)	(7.8134403488951456, -5.8584635691849716)	1.0	z	0.753384
21	N	A	M	M					A	4	1	shapes	A	6	True	41	(2.1317733436915507, 0.6396198353743614)	(-2.6000098626300039, -7.6636083945927487)	(8.7416003698184106, -4.4799533113245644)	(-7.3085887658284552, 4.264072540792391)	1.0	z	0.572586
22	M	A	A	M	N	B	N	B	N	8	1	shapes	A	6	False	41	(4.4086856978783846, -1.7148510594493285)	(-5.2423177816567215, 7.5837967986289918)	(-3.3410179813963587, -0.9153235754733533)	(-1.4779548311871187, -5.1894113921268659)	1.0	slash	0.675944
23	M	B	B	M					B	4	2	shapes	B	6	True	41	(7.4321646823848084, -7.9413106784167002)	(8.1020984240954483, 4.020145472249542)	(-2.5104419271981415, 5.5103803194610546)	(-2.690120811077688, -5.0700211017962102)	1.0	z	0.454411
24	N	A	A	B					N	4	1	shapes	A	6	False	41	(-5.614366570042657, -1.1458519280254462)	(8.4389464084579977, 4.4043367866589307)	(5.8267075208759742, -6.0081193261300339)	(-0.17378473608825473, 8.3591146501457168)	1.0	slash	0.571519
25	N	A	N	A	M	M	B	B	B	8	4	shapes	M	6	False	41	(-4.7197578054780962, -3.2070987512991165)	(2.1972796092184819, -2.6818292650687026)	(-2.8957628403237878, 4.7444850977698536)	(-0.58383206849022962, 0.8989466045188852)	1.0	slash	0.803085
26	M	A	N	B	N	A	M	B	A	8	1	shapes	A	6	True	41	(-3.0170079136634378, -8.0701497302539735)	(5.1020759734962891, 5.2868023367476678)	(-0.66031401355940389, 7.6789279391230743)	(-8.3434024665770838, 0.93644522368164829)	1.0	z	0.53467
27	M	A	N	B	M	N	A	B	N	8	5	shapes	N	6	True	41	(-5.8227355967417704, -2.0488439414499888)	(3.270537094694113, 4.0269792078244429)	(3.238256195953003, -3.2955984054141743)	(-7.9866458187993956, 7.7013571796924367)	1.0	slash	0.860532
28	M	B	M	B					B	4	0	shapes	M	6	False	41	(-1.862132105025271, 4.0236872917760618)	(3.0602444753138531, -5.9628170936218341)	(6.8386259861448551, 3.6313910254304087)	(-1.4550774100727546, -5.4330109325469707)	1.0	slash	0.48272
29	M	A	A	N	B	M	N	B	N	8	7	shapes	B	6	False	41	(-1.9889975360559271, 3.4138425596060298)	(-8.4007805938912234, 5.5815011629747495)	(3.4538310687791345, -3.7039330395130738)	(5.7946978910102036, -7.7496225007633015)	1.0	slash	0.468207
30	M	A	A	M	B	N	B	N	M	8	3	shapes	M	6	True	41	(2.1628674821045983, 7.7892148403258723)	(-0.16195529011053011, 0.62418565062476006)	(-6.0902669665187981, 4.5031964421314221)	(3.0006615261637481, 3.5953636380382754)	1.0	z	0.562075
31	N	A	N	B					B	4	2	shapes	N	6	False	41	(1.9697640801188019, 4.8163701667082019)	(-6.8230045851030567, -7.5262226307352096)	(0.75169502094207097, -8.7039020153006739)	(-8.4221297300393125, 8.0731731650051657)	1.0	slash	0.497626
32	N	A	A	M	N	M	B	B	M	8	3	shapes	M	6	True	41	(-3.6576358401058817, -4.8939769072313624)	(1.224975022807401, -7.208396849335065)	(-6.0327559425062969, -0.77748650456946855)	(5.1173423942307039, -0.28493228777722912)	1.0	z	0.545223
1	N	B	B	M					M	4	1	shapes	B	7	False	41	(-7.8225708687203257, 0.80904388200950628)	(-4.4192571518043025, -7.8634594108872928)	(0.83936583213283278, -4.6994489284805034)	(8.3170763049525469, 7.8289574782195359)	1.0	slash	0.55118
2	N	B	B	M					B	4	0	shapes	N	7	False	41	(5.8288560698212315, -1.6943046909415873)	(-5.0144882599428975, -2.1715311132655311)	(-2.8282966185623399, 2.2384126644836897)	(1.221696349363949, 5.0266226988645322)	1.0	slash	0.498632
3	M	B	B	M	N	N	A	A	A	8	4	shapes	N	7	False	41	(5.4000214764326113, -1.5110842744634745)	(-8.5027903226248025, 8.3410531859977191)	(-0.34674893797870254, -2.8671402338685317)	(-3.9729105628405881, -7.0217937253335094)	1.0	slash	0.769813
4	M	A	A	N					A	4	2	shapes	A	7	True	41	(-8.1108924338880843, -2.3838736807202228)	(0.37966358320032256, 2.5992202295058888)	(5.8212091268835486, -6.1494129332540828)	(-5.0055469735592979, 2.5885635335164494)	1.0	z	0.423994
5	M	B	A	N	A	N	B	M	N	8	5	shapes	N	7	True	41	(2.6488588920762943, -1.1788996117313362)	(5.4997134458702828, -8.0752703582382122)	(-0.51815462658975697, 1.7716359214496844)	(-3.7403322385832238, 8.0508293516534337)	1.0	z	1.06125
6	M	A	A	B	M	B	N	N	N	8	7	shapes	N	7	True	41	(2.9042690271578788, -5.5010154408110239)	(3.7032995539770628, 2.2057277015502841)	(8.636641167984898, 1.283217393534791)	(-2.3077375152298991, -1.4818761044125806)	1.0	slash	0.859474
7	N	A	A	M					M	4	1	shapes	A	7	False	41	(3.5123344183987655, 7.7182020212364257)	(-7.2892306547662047, 2.0667693926037085)	(-2.716554116192972, -3.8067891184019844)	(4.2433576950793839, -2.7274129265886327)	1.0	slash	0.52107
8	N	A	A	B					N	4	0	shapes	N	7	True	41	(-2.8647704508785186, 4.3073486146291096)	(3.1448984849953039, -3.1110093567237653)	(7.6914961640197639, 2.4115383985710679)	(-4.0578320166730997, -7.7816978415821474)	1.0	z	0.656754
9	M	A	B	M	A	N	N	B	A	8	2	shapes	B	7	False	41	(8.1473865589936239, 2.9996405531573629)	(3.8946032358958096, -6.5718580874694368)	(0.095110085004716183, -2.314757086268771)	(-8.2642407078775975, 2.934117031949711)	1.0	slash	0.51236
10	M	A	M	A	B	N	N	B	A	8	3	shapes	A	7	True	41	(-4.950406323991972, -4.9985692906744834)	(1.4388295752953475, 0.70356392390939426)	(2.7256361698199516, -3.4974419090454942)	(3.0416245879563828, 6.7794237751524555)	1.0	slash	0.700355
11	N	A	B	A	B	N	M	M	B	8	7	shapes	M	7	False	41	(-6.3380388006925212, -7.9685513018549017)	(6.8784699109455172, 2.2590054751498609)	(-3.2528340306838048, 7.9089305199790942)	(-6.3415607950995714, -3.9182428863964995)	1.0	slash	0.691198
12	N	A	B	A	M	N	B	M	M	8	1	shapes	A	7	False	41	(6.7079103880314577, 2.0414278941506812)	(-4.4921564981655147, 2.8585795241878902)	(-3.1693749707685654, 6.917847088778931)	(8.7004387181908065, 7.793288474418091)	1.0	slash	0.69187
13	N	A	N	A	B	B	M	M	B	8	6	shapes	M	7	False	41	(-5.8550590387269565, -8.2771304608811374)	(-5.0728194737197008, 1.3906497657987398)	(-0.70903705040704779, -3.3351104981975679)	(4.1550054388120294, 3.6117616090167139)	1.0	slash	0.561098
14	M	A	M	A					A	4	3	shapes	A	7	True	41	(6.9157917066724455, -8.4173086147031704)	(2.1380498925967206, 8.6846578164718125)	(-5.7988009072384639, 0.60193230394019714)	(-0.74694121955515946, -4.7520457440158665)	1.0	z	0.426804
15	N	B	N	A					A	4	1	shapes	B	7	False	41	(-1.2648087994384554, -2.4750963883753689)	(6.1429976763835015, 3.0460021399341013)	(-3.4655675181681245, 4.1350476311182973)	(6.9349490494327206, -3.6957062593050747)	1.0	z	0.582338
16	M	A	A	M					M	4	2	shapes	A	7	False	41	(-7.6021435746616373, 1.1126088596769694)	(5.1063726986822466, 8.7155389209204905)	(8.2214679362796979, -4.881942004863248)	(-5.7186703143824067, -5.3970420405638144)	1.0	slash	0.706165
17	M	B	N	N	B	M	A	A	A	8	6	shapes	A	7	True	41	(-7.8864503670318085, 7.2503414801288741)	(-7.4149956667362709, -2.9657951485747409)	(-2.7617839732954632, -4.0094410906776314)	(6.7091467800413103, 4.7478364745081105)	1.0	z	0.645327
18	N	A	N	A					N	4	3	shapes	A	7	False	41	(2.5984036346583466, 5.8287045487085223)	(-2.9388834735957321, 0.66672974635186755)	(-8.4298420558280149, -8.6659429471672063)	(1.8856201578067058, -6.616026351833078)	1.0	slash	0.525574
19	N	A	M	A	N	B	B	M	A	8	1	shapes	A	7	True	41	(-2.1848240762937854, -6.9182060541889712)	(4.0324308969843816, 5.315132395466998)	(-3.775366425925557, 8.3511267789378536)	(-6.6897164125891191, -7.9027053019987674)	1.0	z	0.830566
20	M	A	M	B	N	A	N	B	N	8	6	shapes	N	7	True	41	(8.2849962970283215, -7.750427131965469)	(-4.2426238767768742, 0.42469856846040521)	(-8.746030564564899, 6.4274556252482657)	(-1.1127432622142956, -8.3067149760439367)	1.0	slash	0.8489
21	N	A	M	B	M	A	B	N	B	8	3	shapes	B	7	True	41	(-0.51501392003154045, -3.1278882396004519)	(-4.7676497362294539, -1.1756896385888469)	(-5.5278305211908094, 4.3718243691777037)	(8.1276202445129933, -6.6709163612651086)	1.0	slash	0.657608
22	N	B	A	B	N	M	A	M	A	8	1	shapes	B	7	False	41	(5.3396655791299459, -1.4858508576014327)	(-7.1832894025992555, 6.6137583112800904)	(-4.2157235836035234, -0.051215457263102948)	(-3.640097936801733, -4.4084527016453157)	1.0	z	0.625438
23	M	A	N	A					A	4	3	shapes	A	7	True	41	(-8.3573226568797754, 7.5850798912781663)	(8.1603379852917968, -3.2287554687824054)	(-3.0773456516264277, -7.7560558607542633)	(7.575167640432241, 3.8978475482280608)	1.0	z	0.471658
24	M	B	N	N					N	4	2	shapes	N	7	True	41	(-8.2719144683907704, 2.1894259962002405)	(1.8545125063805408, -6.7311458673470854)	(-2.1001743314525116, -3.2711391903164895)	(1.4083283757592717, 7.3479858759412338)	1.0	z	0.417726
25	M	B	N	A					N	4	2	shapes	N	7	True	41	(6.826176146087036, 2.270637606287206)	(2.6679301489830092, -3.6187485823589851)	(-2.8111849865097955, 1.0163633675904276)	(-4.6675980759193534, -5.9981717580954745)	1.0	z	0.655065
26	N	A	B	M	A	N	B	M	A	8	6	shapes	B	7	False	41	(-1.9878455454838706, -7.5255105798149593)	(8.4710369311953393, -3.6121675951619778)	(-6.7439744638620915, -5.20054056700776)	(6.354880728851322, 4.0370712898957954)	1.0	slash	0.630255
27	M	B	B	M					N	4	3	shapes	M	7	False	41	(5.6081966267443999, 4.3226380387779457)	(-1.0794221826811317, -0.91472146951382705)	(4.8018307100239692, -4.4788356685634492)	(-0.24249799985501497, 8.533764811640804)	1.0	slash	0.440422
28	N	A	N	A	B	B	M	M	N	8	1	shapes	A	7	False	41	(6.0273694116893957, 4.6255389124957667)	(1.492127637915619, -1.8151205257277194)	(-6.4372005132885564, -5.9712235632727388)	(6.9073588599241589, -6.8280837475462803)	1.0	slash	0.594183
29	N	A	B	B	N	M	A	M	M	8	5	shapes	M	7	True	41	(1.9137241755338348, -7.3142108290064893)	(7.4613039584791387, -1.632807326387522)	(1.7356741989011493, 1.2585794792008418)	(-6.2519521646160889, -3.1709251449830287)	1.0	z	0.693163
30	M	B	A	N					N	4	3	shapes	N	7	True	41	(4.4129778564818398, -5.2616758818119287)	(-6.4551276575110155, 0.36782257263692131)	(8.5798813423143478, 6.2901022449507185)	(-1.2160772060211862, -7.8488772597039471)	1.0	z	0.589424
31	M	A	A	N					N	4	3	shapes	N	7	True	41	(-0.6077826065395513, -5.5449834183714888)	(4.7130350059434107, -8.60121382448785)	(0.21010671119801216, 8.6714058164596359)	(-7.5326835560700189, 7.521730454558309)	1.0	z	0.519067
32	M	B	N	M					N	4	3	shapes	M	7	False	41	(3.520494853508918, -1.8912185484471502)	(-8.6288107481981147, 3.3599250024369987)	(-1.9331380682665067, -4.4545176020401351)	(8.5396435172121201, 1.0505450714223787)	1.0	slash	0.566742
1	N	B	B	M	N	M	A	A	N	8	0	shapes	N	8	True	41	(7.9643609458934534, 6.9638062973850516)	(-4.1147499290515785, -3.6855547723413702)	(5.587887253278458, 3.0860750247060587)	(-7.325482878277854, 0.21948939486641628)	1.0	slash	0.690052
2	M	A	M	A					A	4	3	shapes	A	8	True	41	(-4.0106082525004352, 1.4821588499593421)	(1.8733254345210639, 5.6400178282604347)	(7.8809860658221638, -1.2288028581506332)	(-4.6045082495901362, -2.4848261825389324)	1.0	z	0.567962
3	M	B	M	A					N	4	3	shapes	A	8	False	41	(-6.6884860523901288, 0.63427464543301326)	(1.2525261654171249, -0.13274359312777229)	(-7.2740217641752674, -4.6687765054915733)	(0.12919530326074202, 5.0689673866899145)	1.0	slash	0.543882
4	N	B	N	M	A	M	B	A	B	8	1	shapes	B	8	True	41	(5.7142139058820334, -5.0354395009008854)	(0.42407216230275679, -1.3639320391872269)	(2.8455079795456673, 7.3621637954474899)	(-5.2718200566457494, 7.3237969529552522)	1.0	z	0.373113
5	M	B	B	N	M	A	A	N	N	8	3	shapes	N	8	True	41	(4.7337038698078917, 0.86512909135544547)	(2.6328372778989042, 6.0121910820097177)	(-0.67260618708135489, -1.0606731137249445)	(-0.57833994721705473, -5.8741452195915667)	1.0	slash	0.684549
6	N	B	M	N					N	4	3	shapes	N	8	True	41	(-4.9124596760705295, 5.2828390944658778)	(-5.4281446437783885, -5.5498972037126633)	(2.3651863293730848, 2.6201261211196645)	(2.6442010938537948, -4.2903774262959056)	1.0	z	0.430748
7	N	B	N	B	M	A	A	M	N	8	0	shapes	N	8	True	41	(-4.0486201355689726, -3.8930507100305576)	(4.3850614319763022, 5.0603340145799542)	(-6.067324813333939, -8.6353513988329365)	(-5.6640469304804117, 3.2587831504473481)	1.0	slash	0.588007
8	N	B	M	B	A	N	A	M	A	8	1	shapes	B	8	False	41	(3.7528052626621449, 8.6750722559863185)	(-5.4983410276480296, 3.4664786551677427)	(7.0247354126849313, -5.922516702273823)	(-0.81649828052032625, 0.8708710575011942)	1.0	slash	0.641432
9	M	B	N	A	M	B	N	A	N	8	4	shapes	M	8	False	41	(0.26731287374582102, -4.7504269990801031)	(-6.963461338243647, -6.5113342380561976)	(3.822077850591544, 1.2822802048656445)	(1.2496689187549652, 4.624973331220513)	1.0	slash	0.579361
10	N	A	M	B					N	4	3	shapes	B	8	False	41	(-4.8008686387106811, 6.129261287297707)	(-2.6214312819700538, -2.2334498977063273)	(0.94001317190848255, 1.8560347825243504)	(6.5550692751645485, -3.6350762572510407)	1.0	z	0.497543
11	M	B	N	N					N	4	0	shapes	M	8	False	41	(7.9289641092444789, 7.1461919819121142)	(-7.4769348457175919, -0.4609195088204725)	(2.9786272791640069, -2.5821315595344796)	(-5.2846004598779643, 7.3588755574959244)	1.0	slash	0.56099
12	M	A	M	B					M	4	2	shapes	M	8	True	41	(-4.0146335637145505, -6.8973289312679871)	(-6.9777331775933646, 2.8165416066673288)	(0.11940830589092677, -1.8819111289980537)	(4.4550976335440353, 7.133359218943097)	1.0	z	0.414378
13	N	B	A	N					B	4	1	shapes	B	8	True	41	(2.5129961207375242, -0.81724890561311891)	(-8.0402077918023167, 4.7446463856106913)	(1.72721357309063, 6.1034669667216104)	(-3.0903137283862279, -8.3543047875706442)	1.0	z	0.456447
14	M	A	B	B	A	N	N	M	A	8	1	shapes	A	8	True	41	(-2.9353369517333778, -2.7814105272861251)	(-5.4215987963385377, -8.0290319538407733)	(7.2780745606197286, -3.2502593296242095)	(4.6613981634225983, 6.4984266664381565)	1.0	z	0.487755
15	M	B	M	B	A	N	A	N	M	8	6	shapes	A	8	False	41	(6.4300504962013942, 5.0049924118880256)	(-1.764022650552441, -2.1774665136204057)	(1.1772954370868085, 3.7192621520714439)	(-6.6568448129924196, -6.2161764528311991)	1.0	z	0.640026
16	M	B	N	M	A	A	N	B	M	8	5	shapes	A	8	False	41	(-7.5696629831225115, 4.2852271019928398)	(1.6847560291795691, -0.99202929325870048)	(-5.785227185681765, -7.3856019875355585)	(-5.9456299671081201, -1.5873388008880642)	1.0	slash	0.579223
17	M	B	B	M	N	A	A	N	M	8	1	shapes	B	8	False	41	(-2.4427446010093696, 4.9401021892195889)	(-1.9833108481343409, -8.470046101468105)	(-7.2446561662296887, 1.1868780529203118)	(7.8999418246678736, 2.8013422298718211)	1.0	slash	0.650731
18	N	B	M	B					N	4	0	shapes	N	8	True	41	(0.45739449993493686, -3.4677396335420845)	(-5.6991236482857444, -0.72657076443926272)	(7.5095691651294487, 8.3461712416969078)	(-8.5070104141309191, 2.6953516635082213)	1.0	z	0.376977
19	N	B	A	B					B	4	3	shapes	B	8	True	41	(1.0374027656490128, 3.6426727211918966)	(-5.5392166908781171, 1.9263862779422531)	(-0.88563712460541488, -2.5997033552067466)	(3.1964316332931144, -0.93229593942408862)	1.0	z	0.711974
20	M	B	B	N					B	4	0	shapes	M	8	False	41	(0.043128289037966283, 4.1226763217786679)	(-5.89041911353151, -2.5070224460247488)	(-4.0016899079170605, 4.303610836475638)	(2.9280876256329407, -8.1860195249828607)	1.0	slash	0.490133
21	M	B	M	B					M	4	3	shapes	B	8	False	41	(6.2554957165390608, -7.7933894604705314)	(-0.020064537863760279, 4.4499330575318297)	(1.8456136442176998, 8.2250478192904843)	(-2.9730744962767792, -2.1399118754256792)	1.0	slash	0.529756
22	M	B	N	B	A	M	A	N	N	8	7	shapes	N	8	True	41	(6.7481800911267147, -6.9024341262625111)	(-8.6572291171469544, 0.76447150257069829)	(6.4662504619049468, 0.67963924613494875)	(-1.1378513618476935, -6.6509119239196934)	1.0	slash	0.763051
23	N	A	B	M					N	4	0	shapes	N	8	True	41	(2.3910575539365961, -8.0576651914234212)	(-1.6767015173814643, 3.5530267563750755)	(-3.7832358152815431, -2.7346837361078471)	(8.2351339350662194, 8.0298184049088874)	1.0	z	0.307245
24	M	B	N	M	A	N	A	B	B	8	2	shapes	N	8	False	41	(3.089129084726034, 1.5137639686063302)	(-7.1685198182327836, -8.3153871510119828)	(7.5616202652250308, -0.79957547208781055)	(8.6767215301673772, 4.1884049515537569)	1.0	slash	0.496495
25	N	B	M	M	N	A	A	B	M	8	2	shapes	M	8	True	41	(5.8630701378648844, -4.9407437226585778)	(-1.5196698264060462, -8.7350862574520818)	(-8.1514922857581844, 6.0331520217274672)	(-3.7147772119313176, -0.42323124951782631)	1.0	z	0.40029
26	N	A	M	M	N	A	B	B	B	8	1	shapes	A	8	False	41	(6.9773354241029715, -8.5693920232755598)	(-7.0171739261054755, 3.3771800277815913)	(1.530126983639299, -8.736904269661137)	(1.9752324112743889, 2.0115399987762235)	1.0	slash	0.484196
27	N	B	M	N					B	4	1	shapes	B	8	True	41	(5.1534533102248723, 0.22222766464800614)	(0.78516041664250658, -5.0481541924487123)	(-0.67930730944273598, 2.0629686595153487)	(-3.8056422165890558, -8.1113352092307611)	1.0	z	0.341526
28	M	A	N	N					A	4	2	shapes	N	8	False	41	(7.899297227852017, 5.2389935063249595)	(-7.7832344737988848, -8.6732170079409201)	(-0.41087169501387955, 0.64276005303027972)	(8.2679846631227925, -2.6343970779396839)	1.0	slash	0.43566
29	M	A	M	A					M	4	1	shapes	A	8	False	41	(6.5934105267897909, -3.6795788367006717)	(-1.6958244622903091, -0.49477812661018028)	(-2.2315261702844191, 7.0153665413978636)	(5.0488816976828943, 1.9166364913069938)	1.0	slash	0.397363
30	N	B	A	N	M	B	A	M	M	8	4	shapes	M	8	True	41	(7.7416701921951514, 7.3772996504835895)	(6.5850526169234627, 0.75743366399536072)	(-5.786491980985744, -4.5252228379741126)	(-5.9823082298183827, 4.810231024355355)	1.0	slash	0.374385
31	N	B	M	A	N	A	B	M	A	8	7	shapes	M	8	False	41	(1.0176267942156869, -3.8824753545686654)	(6.964878573984393, -7.9490429954342572)	(-2.0311638187800725, 0.64360342357507072)	(5.3529962681067822, 2.6385143986876525)	1.0	slash	0.533931
32	N	A	N	A					M	4	3	shapes	A	8	False	41	(-0.96722848955878771, 6.7003769787570988)	(-7.2894960349391766, -3.7211924339395415)	(3.369697863588927, -5.8588953669318444)	(3.1486197753307774, 5.9325634565539023)	1.0	slash	0.476412
