TrialNumber	stim0	stim1	stim2	stim3	stim4	stim5	stim6	stim7	stim.probe	ttl.stims	corr.num	trial.type	stim.corr	block	match	Subject	stim.pos0	stim.pos1	stim.pos2	stim.pos3	ran	resp	RT
1	M	A	A	M					N	4	1	shapes	A	Practice	False	42	(4.4587566701149335, 1.0681890013745452)	(-2.9527092875621239, 0.48787466956207659)	(1.0232549388464296, -1.1639675874116193)	(-4.8883692893437836, -3.1708498769455824)	1.0	slash	3.03103
2	M	B	N	N	A	A	B	M	N	8	3	shapes	N	Practice	True	42	(8.7003762603753287, 3.2349844394649221)	(6.3778754067783154, -8.1435498523783068)	(1.7783600372951938, -8.0090568707701095)	(-3.2767514651995002, -0.71117212892818138)	1.0	z	2.26677
3	M	A	B	A	M	N	B	N	A	8	4	shapes	M	Practice	False	42	(4.0568855693129571, -3.6688071541765508)	(-0.37868430194344427, -3.1981815807344773)	(4.0426709674855292, 7.9611937885949899)	(2.8379157448393553, 4.0314601592571098)	1.0	z	2.71996
4	M	A	N	N	B	B	A	M	M	8	0	shapes	M	Practice	True	42	(3.0971666075373303, 3.206228410347622)	(4.1463357976824433, -5.4887802351035617)	(-7.2546288269181378, 2.6940943581167822)	(-0.61368822248080512, -0.97969279776414275)	1.0	slash	2.56555
5	N	A	M	B					A	4	1	shapes	A	Practice	True	42	(2.277515679364198, 8.3233821731216118)	(2.4094804389408182, -8.7339013438779052)	(-1.9182075361041822, 7.6077439102529674)	(-0.048684465369323249, -1.8138230422203048)	1.0	z	1.5591
6	M	A	N	A	N	M	B	B	N	8	3	shapes	A	Practice	False	42	(-0.17788882588807198, -1.234176169643141)	(0.65254209946447261, -7.591503614142189)	(3.4903840537269417, 3.115773545449537)	(4.4882100960943845, -2.3086334757740277)	1.0	slash	1.4927
7	M	A	M	B					M	4	1	shapes	A	Practice	False	42	(-1.3639384219592747, 5.2220701856930987)	(8.1027361534855942, -5.8924074149584769)	(-1.6517599412557082, -2.6010287636170499)	(3.7259637972172062, 0.049270902464121136)	1.0	slash	1.54032
8	M	A	M	B					A	4	1	shapes	A	Practice	True	42	(-2.6577188008363892, -7.9958764042500867)	(1.8262510641402585, -8.3151448838685731)	(-3.2990724923225558, 7.4997501201648298)	(5.11362420990387, 3.9222084378269653)	1.0	z	0.913911
1	N	B	B	N	M	M	A	A	N	8	7	shapes	A	0	False	42	(2.8032838575619721, 8.6038994068394459)	(2.5956215356164183, -3.7164661757338049)	(-3.7524147528688836, -3.3441750005756701)	(-5.4660746651810586, -8.1970906170613773)	1.0	z	1.98475
2	M	A	N	M					M	4	2	shapes	N	0	False	42	(-5.3291132905872978, -3.172199088724561)	(5.1450137363142527, 8.1761532544786171)	(2.148905042098761, -3.8866264923216747)	(-4.0051429125660496, 2.7488112080531675)	1.0	z	1.61415
3	N	B	A	M	N	A	M	B	A	8	5	shapes	A	0	True	42	(-8.0414285746545406, -0.10273408293278408)	(3.9286356823236428, 4.5200663033485071)	(-0.32340467674986151, 3.0056675273141291)	(-8.7487352155883542, 4.6871743819106637)	1.0	slash	1.13577
4	N	B	B	N	A	M	M	A	M	8	6	shapes	M	0	True	42	(-7.03473041265429, -3.9667497184009246)	(0.39482087346746297, 5.2309759738116224)	(5.0782887669403394, -5.3839548038462937)	(7.2538947714157871, 1.8372619313634431)	1.0	z	1.03936
5	N	A	M	M					M	4	1	shapes	A	0	False	42	(-7.634928770997564, -1.0983184285130694)	(0.35496586463107427, -0.22540955130106433)	(0.42323271906145798, 6.0319034841724992)	(-5.8249338953286038, 7.7490944367643984)	1.0	slash	1.46498
6	M	B	M	A					A	4	3	shapes	A	0	True	42	(0.67400225921653067, -1.0648815775431473)	(-3.9784862141520927, -6.5604531898109464)	(-5.4971292856715657, 6.6762718379787067)	(8.1282616829625205, 1.9208640376580171)	1.0	z	0.710645
7	M	B	M	N					N	4	3	shapes	N	0	True	42	(-1.6833125534732432, 8.6002590271409645)	(8.0961694683366829, -2.3760935195743311)	(7.4524915305194881, 6.9664095912607795)	(-1.2516577911475748, -6.2880700202643007)	1.0	slash	1.26626
8	M	A	M	A	B	B	N	N	B	8	5	shapes	B	0	True	42	(-2.3618553625737952, 3.7253466459145201)	(2.7332357351197754, 6.4091880887799366)	(2.3835898633094956, -0.26041803152964604)	(-3.6423461824806882, -6.1369258658981973)	1.0	z	0.809972
9	N	A	M	A					M	4	0	shapes	N	0	False	42	(1.7031589261187303, 3.3623520292908395)	(-3.0541018384301015, -8.3084881491433435)	(-7.8012498412849043, 0.19476640742156093)	(7.6413004031228304, -7.0669658981787524)	1.0	z	1.07366
10	M	A	A	M	N	N	B	B	M	8	3	shapes	M	0	True	42	(-0.900798591042971, -4.0995228481831543)	(4.3607717150045158, 3.2310728833218274)	(8.0328236519303786, 7.1790065952686888)	(-1.4756435089646427, 0.6536211002111969)	1.0	slash	1.21517
11	N	A	A	B	M	B	N	M	B	8	5	shapes	B	0	True	42	(7.4384334619476142, 2.6386625387373606)	(-2.7643085194950539, 4.1384420226382677)	(-1.3078056688869593, -4.313592473415409)	(-6.6789312478859397, 6.3981452071917051)	1.0	z	1.54468
12	N	B	A	A	N	M	B	M	N	8	2	shapes	A	0	False	42	(5.5495453676279975, -6.9949203196126524)	(6.2007313331339731, -0.47713122734979407)	(3.12666498779687, 4.7170732796031363)	(-8.6521404686469818, -2.307559179313766)	1.0	slash	1.7924
13	M	B	M	N					M	4	0	shapes	M	0	True	42	(-5.7976330615408207, 8.2698583540222579)	(8.3468108988601024, -1.2097961972717304)	(-2.4545189493020452, -1.0385758389131192)	(6.2964160854287066, 3.9728762080843154)	1.0	z	0.827943
14	N	A	N	A					B	4	3	shapes	A	0	False	42	(7.1859484460016567, -3.4485973067487308)	(-8.4603430771050743, 5.6452903396325489)	(-8.1075522325884055, -4.7607781886942133)	(7.0305790386289821, 8.7317434079227105)	1.0	z	0.871728
15	M	A	N	M					M	4	3	shapes	M	0	True	42	(6.7582945851874747, -3.3673778874398765)	(0.10080044451316716, 0.17405591566391898)	(-8.5762187547051951, 1.7600124653706377)	(-3.2287644708626297, -6.7552402067256176)	1.0	z	0.955262
16	M	A	M	A					A	4	0	shapes	M	0	False	42	(-7.5674931691289355, 8.4463997472722987)	(-1.4028923588270148, -5.5235509333721806)	(8.0828490142003879, -8.5668239642171429)	(8.6814601451314317, 2.2637989889006764)	1.0	slash	1.78289
17	N	A	B	M					N	4	0	shapes	N	0	True	42	(-4.7714435570563092, -7.3996675591329382)	(-8.0323497235755212, 3.5148714496065097)	(4.3732160288082369, -0.58026081037803934)	(0.57470189283015394, 0.71603115884956203)	1.0	z	0.732422
18	M	B	M	B					B	4	0	shapes	M	0	False	42	(0.3691144219314868, -5.7639235744090076)	(2.3676654286447025, 6.7955007841931945)	(-6.9792567243333874, 3.5419058760038791)	(-6.2965473948819763, -6.2216669371761011)	1.0	slash	1.15628
19	N	B	M	M	B	N	A	A	M	8	0	shapes	N	0	False	42	(-7.8058244238524024, -5.0791190826239188)	(0.01704411820691476, -5.2014802413090298)	(-2.4857393576403908, 4.4317445096011738)	(-3.6243519377909159, -8.6653809014081986)	1.0	z	0.943922
20	N	A	M	B	A	N	B	M	A	8	7	shapes	M	0	False	42	(-0.24080075161439751, -4.7663105348934796)	(4.892404110479383, 6.6855319522228562)	(8.2464130958041011, -1.5448625580650956)	(-6.0858230704579048, 3.9505393923900396)	1.0	slash	1.10135
21	M	A	B	N	N	B	A	M	A	8	6	shapes	A	0	True	42	(6.731307955877309, -5.0289718822682801)	(4.1713311234658352, -8.6394829796989594)	(-6.5194215205914965, -5.9528755426907232)	(6.118610375874681, 3.7584760883823023)	1.0	slash	1.67498
22	M	B	M	N					N	4	2	shapes	M	0	False	42	(7.4915775776423317, -4.8288666082590019)	(-3.6688417630202075, -1.128597499760291)	(5.2189283561966864, 0.59150885186507196)	(-3.0481286831012717, 3.8630608612538637)	1.0	z	1.00675
23	M	A	N	A					N	4	2	shapes	N	0	True	42	(-0.94322596000173142, 2.7225000273236191)	(-6.6509095307126103, -6.5721821279951316)	(1.6148132994630835, 8.0133257742438104)	(0.50783725459771567, -4.8749978982783073)	1.0	slash	2.48823
24	M	B	N	A	B	M	A	N	B	8	2	shapes	N	0	False	42	(-5.8806302896940199, 0.61415585432918718)	(3.0595883203697873, 3.3181858591368858)	(8.6736249377163688, -4.3732600740016823)	(-4.6262684195278077, -5.5058263473198323)	1.0	z	1.51569
25	N	A	A	B					N	4	2	shapes	A	0	False	42	(-1.7707569693382039, -0.97990547971632846)	(6.9173299649105999, -0.87900249848088485)	(-6.3407736412645743, 7.7869259554700996)	(1.6655201472227557, 1.769679877789665)	1.0	slash	1.00754
26	M	B	M	B	N	A	A	N	B	8	7	shapes	N	0	False	42	(4.7250507889052784, -7.4024713788135745)	(7.8294201736888382, -1.7247604864199904)	(-5.9171501999704104, 1.563511666616165)	(-7.1842711032170481, -2.3122923631147021)	1.0	z	1.38903
27	N	B	M	A					N	4	0	shapes	N	0	True	42	(8.4053351616964775, -8.6805413401311569)	(1.6547712117785274, 7.0501858000139368)	(-3.1292115262286604, -0.018447145970228007)	(-6.514166565580144, 6.8796649166550878)	1.0	z	1.05824
28	M	A	B	N	M	B	N	A	B	8	1	shapes	A	0	False	42	(1.7936348993838802, -5.1667861499140191)	(-8.2007274528636156, -6.1263566218394399)	(7.9228154596868556, 1.8021026184266553)	(-4.0550605886448032, -0.57230570312581186)	1.0	slash	1.12834
29	M	A	A	M	N	B	B	N	M	8	0	shapes	M	0	True	42	(0.37808503702556884, -4.5777379488489878)	(6.4947900614867216, -8.6596998764768802)	(6.8216810887201138, 1.4752771373035571)	(-6.9459416648209391, 7.6398812791920001)	1.0	slash	1.17992
30	M	A	M	B					A	4	1	shapes	A	0	True	42	(-8.0689525396604935, -8.7138838924797248)	(-8.4245269296351655, 0.38744151983840069)	(4.7662743572401336, -6.6311391806068762)	(8.0883985660021516, 5.7164604079306329)	1.0	z	1.00952
31	M	A	M	N	B	B	N	A	B	8	6	shapes	N	0	False	42	(-3.0061278203152773, -1.1632074416435767)	(-7.9644764341322967, -3.2657494333374641)	(3.2724211540704786, -3.6626653757636607)	(-2.4748700449386414, 5.6809049893588188)	1.0	z	0.957089
32	M	B	M	N	A	N	A	B	B	8	7	shapes	B	0	True	42	(-8.2791896106198131, -4.9282185079973999)	(3.7696079051780096, 0.91607685312673759)	(8.4189449068587443, -2.3603399084805323)	(-2.4464237739779104, 4.5822244501195541)	1.0	slash	1.2828
1	N	B	B	A					N	4	0	shapes	N	1	True	42	(3.7707537362253483, 8.4582696170750218)	(-4.2186073223977072, 6.5387425701973356)	(-0.8745232889799528, -6.9996491614199172)	(7.1003867544935009, -0.81654286667778475)	1.0	z	1.16833
2	M	B	B	N					A	4	0	shapes	M	1	False	42	(6.3752888773098633, 0.3818638534089942)	(4.4576831527355285, -4.7868538802091276)	(-7.239672487888857, -7.4171612067084922)	(-1.3214462096605866, 4.9322835193514436)	1.0	slash	0.927815
3	M	A	N	B	A	B	M	N	N	8	7	shapes	N	1	True	42	(-7.024205699674452, -5.3141626211415973)	(8.477196064076761, -0.42736820611155935)	(-1.7350726201958953, -7.5125091207051531)	(2.4121786163389256, -0.77162953784821742)	1.0	z	0.883747
4	N	A	A	M	B	N	M	B	B	8	4	shapes	B	1	True	42	(-6.7515802559087676, -7.0609122467735341)	(-3.3709179441911035, 5.077435798151388)	(3.7696756971139163, 2.2670828572356942)	(-1.2752906676792453, -5.5847818286523516)	1.0	z	0.831364
5	M	B	M	B					M	4	0	shapes	M	1	True	42	(-2.2014838240920955, 3.1182357785017842)	(6.2369399780792723, -7.8270922092873843)	(-6.4855765067884992, -6.9019282366701251)	(3.1172465360352142, 4.6870749538116421)	1.0	slash	0.842888
6	N	B	A	N	M	B	M	A	N	8	5	shapes	B	1	False	42	(5.2858665426018003, 3.1348516569182721)	(-7.7905314432975015, -1.8059399327261003)	(-0.13042938614765021, 0.40763011252023063)	(8.1890299636646979, -4.3504030712510575)	1.0	slash	1.0386
7	M	A	N	B	A	M	N	B	A	8	3	shapes	B	1	False	42	(-2.9372210206392113, -4.2867277051699189)	(4.7493688441549065, 5.3843738295369388)	(4.9872161439001204, -2.1210403882213358)	(-4.7340368017609809, 5.7830080853933534)	1.0	slash	1.30833
8	N	A	A	B					A	4	1	shapes	A	1	True	42	(-8.027358182975938, 6.5763171077798166)	(6.9935561950481837, -4.2878135264582138)	(3.8405185694496176, 6.3455485906751239)	(-5.9550995004569254, -1.4613223839752285)	1.0	z	0.85388
9	N	B	A	M	B	M	A	N	B	8	4	shapes	B	1	True	42	(8.0504960876261649, -2.8182479787658989)	(3.2481069079900902, 2.0824447813710645)	(-2.4086198267381063, -3.8179431576971314)	(-7.4515883560932901, 8.0569533011021157)	1.0	slash	1.14171
10	N	B	M	A					M	4	1	shapes	B	1	False	42	(-5.2536260503644456, -7.8226748674586277)	(5.1236743897821651, -1.6369451301748947)	(-4.5067846486857119, 4.0302149193022014)	(5.4262142052542774, 5.016574768367315)	1.0	z	0.739025
11	M	A	N	B	M	N	A	B	B	8	0	shapes	M	1	False	42	(8.3530107902679411, -0.058902533883705033)	(-1.3638501022346734, -0.51276193080036414)	(-4.2462509314210903, -5.9308129105085161)	(-5.8646065614250826, 4.9859919364037228)	1.0	slash	1.18698
12	M	B	M	N	B	N	A	A	N	8	3	shapes	N	1	True	42	(3.3401940368923828, 7.8202101244221005)	(6.8430523770481919, -3.5884954306241141)	(4.3781787185393171, 3.4264828239595069)	(-1.9815717955025427, -6.1361559126750054)	1.0	slash	1.00842
13	M	A	A	M					B	4	0	shapes	M	1	False	42	(0.31470251704292451, -5.9684032776732465)	(-8.6431741962660187, 5.870855115993459)	(-2.2090860172294855, -2.1222605560727583)	(5.6502387579729607, 8.2165551905297534)	1.0	slash	0.904051
14	N	A	N	M					A	4	3	shapes	M	1	False	42	(-1.0886432326689279, 6.7475949486952214)	(-0.72112255279994031, -1.7232417168758341)	(4.659197631139282, 0.85860613339902159)	(2.1047270390956783, -8.0713291843755748)	1.0	z	0.837794
15	M	A	A	B					M	4	3	shapes	B	1	False	42	(7.6947042744894389, 3.278410616835675)	(3.8268148044776851, -6.7263229645749609)	(-5.2225077686750598, -1.7535618482504134)	(-8.6532322727313158, 2.8000853717937275)	1.0	slash	0.903366
16	M	B	A	M	N	N	B	A	B	8	6	shapes	B	1	True	42	(1.4177066699014329, 0.15640261154554302)	(-6.1145205543008556, 7.3357823415795558)	(-4.3012676990323317, 2.5363775472955439)	(3.1586859540040138, 7.4448482235497266)	1.0	slash	1.04711
17	M	A	N	B	A	N	B	M	M	8	1	shapes	A	1	False	42	(-4.6308012280416229, -0.79730704105608385)	(1.1611059724958039, -3.5629762759302945)	(-7.1670482613948154, 4.5315814718004663)	(-5.3547693601739024, -6.6624079133673373)	1.0	slash	0.914733
18	N	A	B	N	A	B	M	M	A	8	6	shapes	M	1	False	42	(-3.9532532501475606, -7.4961873946722974)	(0.7274774524601284, -6.5706750718989584)	(-7.2041958488476929, 8.0753458857503873)	(-6.330964966541309, 0.34646853336042405)	1.0	slash	1.64632
19	N	B	A	M					B	4	1	shapes	B	1	True	42	(1.0082566254582357, 1.729119136925549)	(-6.3555651056568472, -2.7580719414307877)	(-4.3339976706152905, 6.2047093802446405)	(2.9589760875092157, -5.5137332690671395)	1.0	z	0.815969
20	N	A	A	B					N	4	3	shapes	B	1	False	42	(3.9976725079752011, -0.11223721028290967)	(8.5013067669861968, 3.9112288204460111)	(-7.9265921647017512, 8.1866114718988854)	(-0.35996640750435205, -6.3606284974856688)	1.0	slash	0.959546
21	N	B	N	B					B	4	3	shapes	B	1	True	42	(-2.5068898808423414, -4.612849480996859)	(1.6177919746506682, 6.5062848892596001)	(-0.73061891642138121, 0.83282177793938672)	(3.5223148948871188, -8.2376617453255037)	1.0	z	0.913254
22	N	A	B	M	M	B	A	N	B	8	1	shapes	A	1	False	42	(2.5020950589560247, -2.5793642973415638)	(-6.7574161258248777, -2.0324997076002171)	(0.37500658426761291, 3.1738902595662637)	(-3.178873021698938, 0.54234127917829156)	1.0	slash	1.1008
23	N	B	B	N	A	M	A	M	M	8	7	shapes	M	1	True	42	(-2.7502169112365102, -5.2685419052326843)	(-7.0120007909756863, -7.4542316592556812)	(8.729571160192485, 0.26709218468903018)	(-2.9086746518048026, 3.8138994933782033)	1.0	z	1.34042
24	M	B	A	M					A	4	2	shapes	A	1	True	42	(-3.2110540953940641, 1.2318982620107981)	(8.2353694882099049, -4.2204155725681494)	(4.2341053196649412, 7.8190309862043677)	(-2.9177053525293291, -8.2123596868772264)	1.0	z	1.29813
25	M	A	A	B	B	N	M	N	N	8	6	shapes	M	1	False	42	(-2.1450596603330343, -2.0257057798039124)	(0.70868752613425023, -6.3403936332048847)	(3.8801388160292287, 8.5353369317436396)	(-0.17056337218929762, 4.2088745117631454)	1.0	slash	0.923792
26	N	A	B	A					N	4	0	shapes	N	1	True	42	(2.7442895705613921, 2.8256802138418795)	(-4.7482749411213172, -1.5486163519619183)	(0.77729645197990926, -5.1758334184769783)	(-3.9997759751404454, 4.3810425851342423)	1.0	z	1.20536
27	M	A	N	A	N	B	B	M	M	8	7	shapes	M	1	True	42	(-8.2983520749065303, 3.3612828631300395)	(-6.478007362844858, -0.35867442823104412)	(-0.15750884406721255, -6.0349849101962736)	(5.4489349011528851, 2.2403976290320511)	1.0	slash	1.2789
28	N	A	B	N	M	B	M	A	M	8	4	shapes	M	1	True	42	(6.8505250651114284, -1.3492432342069858)	(5.5563701321158234, 5.4710915692763749)	(-2.4134662948121752, -6.1413225521122676)	(2.6188731936871523, -3.8499142541354132)	1.0	z	0.700611
29	M	B	N	M					M	4	0	shapes	M	1	True	42	(-3.5424388322117943, 4.4873235385678605)	(7.1885797426862332, 6.3636987221028924)	(7.4906684358891056, -1.5817888019786537)	(-0.092579096047634479, -8.0541592556719248)	1.0	slash	0.962283
30	N	A	A	N					B	4	2	shapes	A	1	False	42	(7.717961900388957, 1.9364400869257903)	(-3.015820229018451, 5.4039106202045986)	(-5.7331809529920994, -2.3263451898797758)	(3.729395686160629, -6.8055232929167104)	1.0	z	0.64194
31	N	A	M	B	B	A	M	N	A	8	2	shapes	M	1	False	42	(-4.0417952227734562, -5.8438774121852397)	(8.2957974708227944, -4.5138308334935227)	(-6.0586379042619676, 0.27781412969832608)	(-3.302831279199685, 4.7509499990506274)	1.0	slash	1.14962
32	M	B	M	B					A	4	0	shapes	M	1	False	42	(5.5864704311021285, 4.1443361365056859)	(-0.41046528646517899, -3.147611794341465)	(-8.3834407728478979, 2.2770841690199486)	(2.4519242435746484, -0.16087870694201989)	1.0	slash	1.08727
1	M	A	A	M	B	N	B	N	B	8	0	shapes	M	2	False	42	(-4.0300286538256742, 6.6937617247327772)	(-7.8733852774148367, -1.4131995988339954)	(1.9419502744137898, 2.4963914825524203)	(2.1153174495159632, -5.9609403555702354)	1.0	slash	0.840861
2	N	A	B	N					B	4	3	shapes	N	2	False	42	(5.2225977450702761, -5.2502163911865827)	(-6.9253052999331217, 6.4506540522305098)	(1.4775541673860477, 0.91244423386481799)	(-2.979358338882812, -7.8079293313265028)	1.0	slash	0.736483
3	N	B	B	A	M	M	N	A	A	8	7	shapes	A	2	True	42	(-1.9994077567081741, 6.5791168412705598)	(-6.5726527496849538, -6.769568038284504)	(8.5036490949322712, -7.2642817810817633)	(-7.0928230527328369, 7.0066338704981614)	1.0	z	1.14623
4	N	B	A	B	A	N	M	M	A	8	5	shapes	N	2	False	42	(0.61170660311473135, 5.6474177599629751)	(-5.9035357601178138, 2.0150213678552209)	(-2.7139282665542384, -2.4104656333044652)	(-7.3584631416711233, -7.7496652706001479)	1.0	slash	1.31212
5	M	A	B	B					B	4	3	shapes	B	2	True	42	(6.0030351533581356, 4.2183580899942701)	(-5.3625648288130225, 7.6027526758744877)	(-7.4648198972860715, -3.086549152148522)	(3.371909323589307, -0.72232484526923457)	1.0	z	0.915434
6	M	B	B	N	M	N	A	A	M	8	2	shapes	B	2	False	42	(6.921118926653957, 0.48826174343740902)	(-2.3877857831495826, -2.2069407439694633)	(0.3553726607954637, -7.6436492846645798)	(-8.5462345278266607, -0.22345522488503988)	1.0	z	0.831007
7	M	A	N	N	A	M	B	B	B	8	7	shapes	B	2	True	42	(0.84760424942065704, 3.828710880876665)	(7.1747615120281818, 6.2203346574964726)	(-5.5068623558814336, 2.3506967401603696)	(-5.188136971414222, -1.6975919870981944)	1.0	z	1.46061
8	N	B	N	M					M	4	2	shapes	N	2	False	42	(-8.2223483324592568, 6.6190367817762805)	(-4.5473271117421064, -6.1389672846962391)	(2.6175970508786452, 3.947974440432894)	(8.0418392896459885, -7.6439244090021354)	1.0	slash	1.02631
9	M	A	M	B					M	4	2	shapes	M	2	True	42	(5.4639777446163738, -8.4336984592979274)	(-7.8202733430319125, -6.1215928988736499)	(0.66318259827514758, 5.0698270477998122)	(-8.4451018620439466, 6.4179899725142722)	1.0	z	0.575925
10	N	B	N	M					A	4	3	shapes	M	2	False	42	(0.28964992621573771, 2.8322560018089113)	(7.3809942552798766, -8.0087780170153327)	(-8.0796240544709796, -6.1091147309528004)	(-6.5315729783758689, 4.3704798900526551)	1.0	slash	1.43961
11	N	A	N	A					B	4	3	shapes	A	2	False	42	(3.3900960030695337, 7.7753564067570657)	(4.4227667576299137, -6.0360412526981966)	(-0.38341888139899361, -6.6226679751490298)	(-5.7973051677227296, 7.3076113515271324)	1.0	slash	0.889148
12	N	A	N	A					A	4	3	shapes	A	2	True	42	(-0.11988020944403921, -6.2474160446183173)	(-8.1978158972492068, 5.50683975136862)	(1.3394425827852601, 2.3381188404066346)	(4.4071178227366961, -7.4559554736247078)	1.0	slash	1.08886
13	N	B	A	B	M	N	M	A	A	8	2	shapes	A	2	True	42	(-1.5131118235505623, -3.707350517554592)	(7.3502129141347829, 4.2000438818193384)	(-1.8662004226659183, -7.6922899528216178)	(-8.6647912597488563, 6.683237425685066)	1.0	z	1.13046
14	N	A	M	N	B	B	M	A	B	8	3	shapes	N	2	False	42	(7.2040647238823574, 8.0385150760441171)	(-6.28221249653439, 4.649370545715934)	(4.1505367800006585, -4.9658094161979225)	(2.1995160223961978, 4.3940539254896915)	1.0	slash	0.977997
15	M	A	B	N					M	4	2	shapes	B	2	False	42	(-2.6145319197704824, -2.7839346056100798)	(5.7976312931834126, 3.9069140492479075)	(2.106226408111409, -3.5887791626009395)	(-1.5349793422631519, 4.5442078049963897)	1.0	z	1.19985
16	M	A	A	B					A	4	2	shapes	A	2	True	42	(4.8225097520704985, 4.4898921554529103)	(-4.0927716443651612, -6.837676288060214)	(4.0706898995764682, -5.0685987750580184)	(-6.6094726952916103, 0.12436214367838616)	1.0	z	0.617381
17	N	A	B	M					A	4	1	shapes	A	2	True	42	(-4.2123851733734767, 3.4618431505324683)	(-1.5992239931436414, -1.0930274750279994)	(4.5880676729644794, -4.8532853015545641)	(5.3246188189476644, 5.2974813485459773)	1.0	z	1.12314
18	N	A	B	M	N	A	B	M	M	8	7	shapes	M	2	True	42	(-2.1809610237572512, -6.3625926012694194)	(3.3656768864285951, -4.4642616777980564)	(-6.2523940910100215, 6.8688766466417253)	(-1.3494911696452672, 8.0053940113930508)	1.0	z	1.52474
19	N	A	A	M					A	4	3	shapes	M	2	False	42	(-2.7392506704291986, 7.1312015617516344)	(0.9589295215882192, -6.806506859929808)	(7.7246964451503821, 5.4470090855785855)	(-6.1102519669606323, -5.214059924992327)	1.0	slash	0.838249
20	N	A	B	M					M	4	3	shapes	M	2	True	42	(1.8436091693850774, 3.6148144401023625)	(7.4089027665030258, -2.4982434780868212)	(-1.1567831008886929, -5.7676022034663434)	(-2.3397820442699633, 3.5128144762910356)	1.0	z	1.11187
21	M	A	M	N					M	4	2	shapes	M	2	True	42	(-3.6439978284486205, 7.2404377810257508)	(-3.3475479736848879, -2.4178021386420889)	(7.5137277063491652, -3.2655055074816381)	(6.3525191893880439, 3.8501332975161517)	1.0	z	0.8755
22	M	A	A	N	M	N	B	B	N	8	6	shapes	B	2	False	42	(5.4437246142763271, 6.4230856753061421)	(-3.8387574377277796, -6.9826237729532359)	(-0.97923639619768288, -3.4677960281717697)	(6.4443544320733306, -6.4635082697374067)	1.0	slash	0.848612
23	M	B	M	B	N	N	A	A	A	8	6	shapes	A	2	True	42	(5.0841000231398414, 0.79810288478685187)	(-6.3117067829279812, 5.7579353977787413)	(-3.4065280607977693, -1.4094529921836063)	(1.9323324040320742, -4.8098929026823827)	1.0	z	0.836842
24	M	A	B	M	B	N	N	A	B	8	2	shapes	B	2	True	42	(-3.2716112366264731, -2.0106345159823817)	(5.7763271464933208, -2.9116355750043237)	(4.7952862890011936, 1.859479855885688)	(-7.7996029100207842, 7.5362810159661358)	1.0	slash	1.08032
25	N	B	A	B					B	4	3	shapes	B	2	True	42	(4.6437528106310353, -2.766955529649092)	(-0.62521463471651906, -3.4360607777980769)	(-5.6137474497733084, 3.8059584061022775)	(8.4423739878071977, 3.2168233407746794)	1.0	z	0.650148
26	M	B	N	A					M	4	2	shapes	N	2	False	42	(-8.4165948590746833, 7.0606955016053146)	(-7.770967551986109, -0.28296165791069328)	(4.1829040183423132, -4.1755675961387366)	(8.1096048802931868, 2.0142339786391474)	1.0	z	0.825948
27	N	B	M	M	B	N	A	A	N	8	0	shapes	N	2	True	42	(-6.7749042562877149, -3.4257573285916765)	(5.6305195019678109, -8.4982856072269239)	(-8.0399714744526563, 7.4194560742787132)	(-4.0277737672615883, 2.5479296421323596)	1.0	z	1.52948
28	M	B	N	B	M	A	N	A	B	8	5	shapes	A	2	False	42	(7.7145100604020094, 0.50771552183064905)	(4.0289391895070032, 7.8902667885777014)	(2.9964067044238387, -6.5529321943733994)	(3.5648741948472775, -0.59728161629355192)	1.0	slash	0.75495
29	N	A	N	M	M	B	A	B	B	8	0	shapes	N	2	False	42	(-6.5913802910159101, -5.0790600126142316)	(-1.4610519688665349, 7.3659372921018971)	(5.0235464462189761, 2.02778516711947)	(-4.4834808202729395, 1.4867550735950292)	1.0	z	0.984579
30	M	B	M	B	A	A	N	N	A	8	7	shapes	N	2	False	42	(3.349529113798221, 5.735041326774045)	(-2.6975595342128074, -5.4884025651173767)	(8.2077477047731264, -1.0756025441417556)	(-5.5077846938656192, 6.131624151568106)	1.0	slash	1.18444
31	N	A	M	B					N	4	3	shapes	B	2	False	42	(-6.1360360820090509, -0.064805550683848523)	(-0.71389385331280053, 3.3230864308578205)	(1.9556692409785583, -7.6314748518511468)	(6.592273455412327, 3.6901510466637522)	1.0	slash	0.99809
32	N	B	N	A	B	A	M	M	N	8	0	shapes	N	2	True	42	(5.5160007195644543, -5.4161593942212818)	(-2.6102313382335591, 7.0092153990168438)	(-8.2045320931297265, -4.4187921426692887)	(-6.5202366178529694, 7.8530277840155414)	1.0	z	1.19558
1	M	A	M	B					B	4	2	shapes	M	3	False	42	(4.3524445984376161, -4.4811334297182261)	(-7.1034162937269807, 0.06960203591324543)	(-0.11206049020760389, -7.8791863902695303)	(4.4647964460611114, 4.2914533450309378)	1.0	slash	0.911151
2	N	B	M	M	N	A	B	A	M	8	5	shapes	A	3	False	42	(3.9504159204692524, 4.6744348694426172)	(-7.0086002790243898, 0.59943041727841795)	(-1.5219038216430016, -4.7415892319570245)	(6.068665096898533, 0.45673854784724099)	1.0	slash	1.00475
3	M	A	A	B	B	N	N	M	M	8	4	shapes	B	3	False	42	(-1.8091618738206199, -5.3738277028783195)	(3.10721960857569, 3.8622111509940833)	(6.3782879409704965, 6.4424905050069192)	(-1.272586369397338, 6.5863046957495168)	1.0	z	0.960507
4	N	A	A	N	B	M	M	B	M	8	2	shapes	A	3	False	42	(5.5297640715019138, -7.8981156235283141)	(6.6713335283891269, -1.7693583631079566)	(-3.7724512604790759, -6.4623358824289214)	(-7.2528730841660005, -4.2956457073948782)	1.0	slash	1.4862
5	N	B	M	A					M	4	2	shapes	M	3	True	42	(-2.5915016521847614, -3.7704375135003936)	(-8.5519139071422163, 0.9694436900979575)	(7.8506698882782757, 2.4618084710418717)	(2.4497418284972845, -2.7956018807194187)	1.0	z	1.35972
6	M	B	B	N	N	M	A	A	B	8	2	shapes	B	3	True	42	(1.152339349733694, -3.2342484271706589)	(4.2180407689288355, 7.4818202836102579)	(6.1392691194846467, 0.68143070842445219)	(-6.0677065377503707, -2.3252692805889863)	1.0	z	0.747315
7	M	A	M	A	N	B	B	N	N	8	4	shapes	N	3	True	42	(2.3070778472528009, 2.3430441784344165)	(3.8380015400325416, -8.129056140977827)	(6.5153865267657682, -0.075687136385854004)	(7.0403388918300482, 5.2261111112216305)	1.0	slash	0.57905
8	M	A	N	N					N	4	1	shapes	A	3	False	42	(-8.5582770588668691, -0.96166362851563392)	(-1.4130144705093244, 7.3141569804118198)	(8.0084106199686325, 7.3865236939178871)	(3.2828522054549563, -7.6230860108537302)	1.0	slash	0.862647
9	N	B	N	M					N	4	0	shapes	N	3	True	42	(3.8785341131426812, 6.771162412624113)	(-4.5716284161174707, -8.2253233505786536)	(6.6861431890164926, -1.4184843544804568)	(-2.1687749195507102, 3.11339872683123)	1.0	z	0.620329
10	N	B	B	N					A	4	1	shapes	B	3	False	42	(8.3885803624635855, 7.6438940551225159)	(0.37613673933252123, -3.189733907941199)	(-8.4842307486155697, 3.533413551916512)	(-0.22638548498774469, -7.9122650839121071)	1.0	z	0.705914
11	M	A	N	B	A	N	B	M	A	8	0	shapes	M	3	False	42	(7.771088601174057, 8.2759621194366808)	(-2.2673783056722776, 7.2990501710633922)	(8.7430830514272877, -5.3773213173593968)	(-0.94846182301731208, 2.9110535491808012)	1.0	slash	0.777666
12	N	B	M	M					A	4	2	shapes	M	3	False	42	(-2.4654688065240382, -5.3676541918607477)	(-2.016174487857529, 6.8719303126821867)	(0.011446730119631709, 1.7813003254418902)	(6.5190001879592128, -0.08469583618815868)	1.0	slash	0.709558
13	M	A	M	B					A	4	0	shapes	M	3	False	42	(5.7836293982663047, -1.2676874424960332)	(-5.0417411082541914, -6.5743595991634738)	(-0.40065954661767123, 7.2841683929088852)	(4.5819035424211574, 7.6422404850813663)	1.0	slash	0.921077
14	N	A	A	B	N	M	B	M	A	8	1	shapes	A	3	True	42	(6.5378297514929606, -2.4303773890184033)	(-7.2675740292431561, 4.1310867177385955)	(-8.5101195471815245, -5.5916791237016756)	(1.5706198135041536, -4.7551871965541421)	1.0	z	0.69275
15	M	A	A	M					A	4	2	shapes	A	3	True	42	(3.4583179715290981, 4.0142889859363695)	(-0.22063363473308684, -7.0002650877301198)	(-8.0257729466723458, 1.8228249419263935)	(1.9489669770053766, -2.6005023163934222)	1.0	z	0.660337
16	N	B	M	N	M	B	A	A	A	8	7	shapes	A	3	True	42	(-5.203008431107758, 6.5097213825348152)	(3.7117416337015268, -5.59927685042741)	(3.25582033842303, 7.2688391135549608)	(-7.4260439730177437, -8.6535979291810357)	1.0	slash	0.915917
17	M	B	B	A					B	4	1	shapes	B	3	True	42	(-1.4688138781532771, 3.120206593678148)	(-2.3231997417719201, -1.9902271022956999)	(1.891111870047224, 7.6940304680885347)	(1.8646264692579848, -5.7087924141246553)	1.0	z	0.478988
18	M	B	M	B	A	N	N	A	B	8	4	shapes	A	3	False	42	(-7.1123860721687144, 0.67723553734135855)	(-8.3896172370022981, 5.1176137669763655)	(6.7083242210472847, 0.23871302829290642)	(1.6551550582062688, -1.9825065297101379)	1.0	z	1.17331
19	M	B	M	B	A	A	N	N	M	8	2	shapes	M	3	True	42	(1.1598388228056749, -5.2736949699583189)	(-6.9567484590240136, 6.6905886649632738)	(7.0774861485037217, 8.6074735924189625)	(-0.8206290816070041, 2.1027103898527884)	1.0	slash	1.19699
20	N	B	M	M					M	4	2	shapes	M	3	True	42	(3.2186873706075207, -0.4563875459502782)	(-4.8503890876455795, -5.4192739563225274)	(-4.3518385537077942, 8.5291886873090235)	(2.7503841476070008, 6.7274650369797655)	1.0	z	0.456466
21	M	A	A	B	B	N	M	N	B	8	1	shapes	A	3	False	42	(-3.2752161503258241, 2.1657413349226253)	(2.5743722928804864, -5.7567350662507106)	(-0.50184520038898306, 8.1687159844214712)	(4.7924801608794265, 2.976176066871604)	1.0	z	0.98616
22	M	A	B	A					A	4	3	shapes	A	3	True	42	(4.6412754346835872, 6.0989019515290686)	(-2.8442592597118903, 3.7363610811013093)	(6.1465220739600177, -1.5757822039385996)	(-8.1102530745388339, -7.0363531768120735)	1.0	z	0.407803
23	N	A	N	A	M	B	B	M	M	8	7	shapes	M	3	True	42	(3.0209044680152299, 6.0361075837478193)	(-2.3199711166872801, 8.1335372422571837)	(-0.48374368312244975, 0.60045415502666621)	(-4.655909478386322, -4.8598814683176546)	1.0	slash	0.577475
24	M	A	M	B					B	4	0	shapes	M	3	False	42	(-0.25445631104975597, 0.92354198379294949)	(2.86932314454425, 5.4210440263256885)	(-3.9160502043597001, -7.1505529294524104)	(2.8558525993403379, -5.5784679168933184)	1.0	slash	1.09522
25	M	A	N	B	A	B	M	N	A	8	1	shapes	A	3	True	42	(1.8255834934999005, -2.1284185136232452)	(6.8822271702627074, 2.8433677021271535)	(7.6863106903737339, -6.4085534405674238)	(-4.0447150243045433, -7.7651864882054875)	1.0	z	0.656819
26	N	B	B	M	N	M	A	A	M	8	3	shapes	M	3	True	42	(-4.7893812726664464, 3.2738504775102353)	(7.563329643466826, 3.8033926046616848)	(3.7149292570098318, -4.0001370847165774)	(0.78448149611455342, -7.6668973495178045)	1.0	slash	1.01844
27	M	B	A	N	B	N	A	M	B	8	2	shapes	A	3	False	42	(-7.2853817317768614, -1.3550102207857977)	(-7.0233680784616297, 8.3683363173209138)	(4.3958896918813863, -7.4551923402130225)	(-2.4422107980451075, 4.6303167243842687)	1.0	slash	1.12431
28	M	B	N	B					B	4	2	shapes	N	3	False	42	(2.6575896913642119, 2.7585385169317647)	(0.75937105995464194, -6.1108104099602976)	(-1.7669195837425233, 5.056046930997887)	(-7.1446826136041892, -5.9138370056071361)	1.0	slash	1.01371
29	M	A	M	N					B	4	0	shapes	M	3	False	42	(-6.9931839794302215, 7.5795997365331367)	(-8.2683503658530544, -6.8886958710218842)	(2.8362123043366054, -8.5213017387943619)	(7.0039938753483746, 1.5149462703478687)	1.0	z	1.26137
30	M	B	B	M	N	N	A	A	M	8	1	shapes	B	3	False	42	(3.6523705061951652, -3.8238363123334986)	(6.8517759060261625, -7.9106519695232809)	(-4.8856724798557689, 4.6043899394151229)	(-6.5772609996326885, -5.3862820551880581)	1.0	z	0.725095
31	N	B	A	M					N	4	0	shapes	N	3	True	42	(-1.3761747866089342, 7.5947331836712024)	(6.2065342356302171, -6.5121778623093896)	(-7.1173347726994818, -8.7274467941327938)	(8.2959299273895617, 5.0454334814196429)	1.0	z	0.502831
32	M	A	A	N					M	4	0	shapes	M	3	True	42	(-0.46330248903002413, -5.4560396071336026)	(6.5581360050611721, -2.413818358407573)	(-4.0811472563660232, 8.513834964253217)	(0.51875567710701809, 8.4282203052631424)	1.0	z	0.588411
1	M	A	M	B					N	4	2	shapes	M	4	False	42	(-2.5492830271068927, 3.6206708401968228)	(3.5353347937622601, -4.4614307565234572)	(8.7075182503407795, 1.2454023906693106)	(-4.7934616072348204, -3.8262531214934787)	1.0	slash	1.21178
2	N	B	A	B	N	M	A	M	B	8	1	shapes	B	4	True	42	(0.27743943720688513, 3.3858540838378328)	(5.0732480734717456, -8.4517192244419359)	(-4.0315536505579033, 6.8804845132188461)	(7.6814999186933228, 3.5150468215194746)	1.0	z	0.845724
3	M	B	N	N	M	B	A	A	M	8	4	shapes	M	4	True	42	(4.5354202426653334, 0.58154567899796561)	(-5.5392561493535748, -1.833696414187866)	(-7.3693213912959292, -6.1321207750227646)	(7.9731149094642504, 2.8950775959791315)	1.0	z	0.937362
4	M	B	B	A					A	4	0	shapes	M	4	False	42	(-0.2165751279668271, 3.4595041458753499)	(2.2622823149155167, -0.48074492800406077)	(-8.2309410672536583, -4.0586705586511469)	(4.0234285390894051, 7.1922660672810146)	1.0	slash	0.708983
5	M	A	N	N					A	4	1	shapes	A	4	True	42	(-4.090626489842851, -7.9039782510463965)	(2.9194199957048088, -6.0886708601523338)	(-7.6437980997444583, 5.1696618076072109)	(1.134099391399392, 1.5115918785014255)	1.0	z	0.856578
6	N	B	A	B	A	M	M	N	M	8	4	shapes	A	4	False	42	(2.3488170255566487, 0.71269262655632204)	(4.3883177513916731, 4.5384816500465028)	(5.4055038311173131, -8.233402239872408)	(-8.0426453058024077, 6.6054724108897389)	1.0	slash	0.890312
7	M	B	M	A					M	4	2	shapes	M	4	True	42	(-3.691542059521649, -4.8453670647024119)	(3.6537459421596967, -8.662812074855994)	(-2.3889249674359352, 0.80638051635073005)	(7.9639525385412959, 2.653853712916467)	1.0	z	0.737623
8	M	B	A	N	A	N	M	B	A	8	6	shapes	M	4	False	42	(-6.0794683369160865, 7.5044766822031619)	(7.1390050170451556, 3.0538059887400646)	(8.4138337769986435, -2.1148979862184749)	(-6.2249536036276849, 3.2834242184012901)	1.0	slash	0.721485
9	N	B	M	M	N	B	A	A	M	8	3	shapes	M	4	True	42	(3.5428326755293824, 0.90511379395139535)	(5.9011988896314271, 8.4483521709688567)	(1.4790119977814502, -8.1954030222142435)	(8.0262602836325563, -1.4182145846509862)	1.0	z	0.677364
10	M	B	A	B	N	N	A	M	N	8	2	shapes	A	4	False	42	(-5.8169129817093879, 8.2025946335903939)	(2.6416272070439462, -4.6375263064855714)	(5.0448074071693121, -8.6736145298618528)	(-5.5146195783954512, -7.6323338321857577)	1.0	slash	0.912856
11	M	B	B	M	A	A	N	N	N	8	6	shapes	N	4	True	42	(-6.7918582687516498, 3.0209410936222927)	(0.29327537512633128, 5.897880333376758)	(8.6222544395895149, 1.4876409267645858)	(-5.1509936016910789, -2.4986084028340816)	1.0	z	0.862446
12	N	A	A	B	N	B	M	M	M	8	0	shapes	N	4	False	42	(3.2151486147682977, 0.89903018256373457)	(-5.0280610575285554, 7.8680572935257764)	(-0.36630758234562499, -1.4917665855495628)	(8.3901921796984027, -4.367926955340681)	1.0	slash	0.683994
13	M	A	A	M	B	B	N	N	A	8	1	shapes	A	4	True	42	(-3.9078233972976895, -5.4499135580863269)	(-1.8502628892764621, 1.7176047255885916)	(-6.7835600524892712, 7.0519428106108784)	(8.1359192965137979, 8.1236509675170225)	1.0	z	1.43186
14	M	B	N	M	N	A	A	B	A	8	2	shapes	N	4	False	42	(6.3233845019132779, -3.1640578761794211)	(-2.6048737119706171, 3.8372644326779941)	(-4.2583674293136635, -7.1304688310253903)	(0.21003780149750462, -1.8644086967527018)	1.0	slash	0.725288
15	N	A	A	M					N	4	2	shapes	A	4	False	42	(-1.5516590111515747, 4.787745186541196)	(-7.3933132043854926, -3.9218679704096715)	(8.1550843268685256, 0.33148045373996915)	(3.5215411247848145, -5.8919060130634389)	1.0	slash	0.89318
16	M	A	B	M					A	4	0	shapes	M	4	False	42	(-4.5757472179356045, -1.20502655973067)	(-6.3956501840910489, 3.6532698229394676)	(6.3619924146688067, -7.889643620790979)	(6.112525554017374, 2.0187788559752562)	1.0	z	0.666696
17	N	B	A	A					N	4	3	shapes	A	4	False	42	(2.4669684027136913, 0.78687974919638215)	(-5.987216885325596, 6.4955281949513619)	(-0.71445003444248378, -7.2467653409535178)	(4.3034681213025312, -6.3977411894508425)	1.0	slash	0.680471
18	M	B	B	M					M	4	3	shapes	M	4	True	42	(-7.1000082672723659, -7.4026251528190645)	(7.2149712377984674, -1.2609113185557792)	(3.6573361612038084, 3.7291910844789697)	(-5.2074968561263582, 2.7788112923102339)	1.0	z	0.60223
19	N	A	B	N					A	4	2	shapes	B	4	False	42	(4.9985218121637729, 4.2971331472113121)	(1.3525226243923445, -2.707647183610506)	(-1.6969672863354814, -5.3523739610603638)	(-6.4732407149229427, 6.8872909663658106)	1.0	z	0.497683
20	M	A	N	A					N	4	2	shapes	N	4	True	42	(1.105958431456104, -0.17648219022686717)	(6.9311957561472504, 1.4153414719082651)	(-6.0758560839454852, -4.4363270254395459)	(-3.2726672223079678, 8.4653328793960867)	1.0	z	0.303532
21	N	B	M	M	B	N	A	A	M	8	1	shapes	B	4	False	42	(7.0013966394426745, -0.93065275632557576)	(2.5518622635865853, 0.77881613303961927)	(-2.3464826725178192, 3.3749232395971802)	(8.0148782604957383, 7.7839402180178574)	1.0	slash	0.637305
22	N	B	M	B	N	A	A	M	N	8	0	shapes	N	4	True	42	(-7.2419141216105949, 3.1711668671897453)	(5.70854414580349, -5.7245380559215988)	(-6.76230791400695, -6.8737910221350846)	(-1.9502024472621917, 5.7004542079278195)	1.0	z	0.40071
23	M	A	M	N					A	4	2	shapes	M	4	False	42	(4.8220416472898791, -2.1044224778637624)	(-7.2217029112956022, 2.9614344330961959)	(-4.8600013737895651, -0.66053410102921895)	(2.6399822775442789, 2.1046361521750061)	1.0	slash	1.2584
24	N	B	M	N	M	A	B	A	M	8	2	shapes	M	4	True	42	(-8.081119132440266, 4.3261752578061703)	(-5.4100212850824896, -3.715175263688363)	(1.8137953337950758, -6.9593022595776386)	(0.93489880546134785, 5.689280843746884)	1.0	slash	0.996078
25	M	A	M	B	A	B	N	N	N	8	1	shapes	A	4	False	42	(-0.63820791165115764, 6.5546112749325367)	(8.0102398012657368, 5.7971677573871876)	(5.0324638538087534, -1.5651691329890047)	(2.158817886529814, 2.3037661155841089)	1.0	slash	0.807836
26	M	A	B	B	N	M	A	N	N	8	4	shapes	N	4	True	42	(-3.814379863986268, 0.7528189453414118)	(-7.9014024868071742, 2.0900467333106114)	(0.73183876080282495, -3.3919834964661382)	(-3.9452839562861612, -8.71894635421401)	1.0	z	0.323357
27	M	A	B	B					A	4	1	shapes	A	4	True	42	(4.7042596217138524, 1.9554228399989029)	(-0.14335143455880583, -6.9514431885694048)	(-2.208784549296162, 5.2798771561309366)	(0.82458902777637277, -1.3325685563639231)	1.0	z	0.261088
28	M	B	A	B					A	4	2	shapes	A	4	True	42	(-0.65851268701257126, 0.85486134935226232)	(0.1482081835483573, -5.3966381071600829)	(-8.6472707138124179, -5.6938164724314539)	(0.0013952654474991277, 7.0768869552876712)	1.0	z	0.49876
29	N	B	N	A	M	B	M	A	N	8	6	shapes	M	4	False	42	(-2.8503691358114036, -5.604440287086522)	(6.9191506514182617, 7.6962350206087216)	(-4.6673608093345962, 8.0101591958598419)	(-1.2326135200621104, 3.0230133853689161)	1.0	slash	1.70818
30	M	A	B	M					M	4	3	shapes	M	4	True	42	(6.931728065765757, 8.3109594576396155)	(1.1666272237349933, -4.0438896179843313)	(-7.0447230108376271, 6.1652435302931341)	(-5.0169406123814442, -1.4504651696736079)	1.0	z	0.680067
31	M	B	A	N					N	4	3	shapes	N	4	True	42	(7.9765237634637742, 2.3690982948981532)	(-6.4056722253749996, -7.1257872487093845)	(-8.7417881504495369, 6.0606338219526936)	(3.811612608436068, -0.45318136671666487)	1.0	z	0.833599
32	N	A	B	B					N	4	2	shapes	B	4	False	42	(-2.4474778894353948, -4.5787782213147548)	(3.6757499396849536, 8.6841611224567572)	(-4.9341573313278797, 2.8220019649319568)	(2.8311382678265833, -2.8546166639410187)	1.0	slash	0.837363
1	N	B	N	A	M	A	M	B	B	8	7	shapes	B	5	True	42	(-3.6572381192963972, -2.4469407229668203)	(-1.3449613394362556, 2.1240632855995187)	(7.0564831523157121, 6.3010781661879793)	(-8.7143466696227136, 5.1080093923692509)	1.0	z	0.818752
2	N	A	B	A	N	M	B	M	N	8	2	shapes	B	5	False	42	(-7.1665025231124213, -6.8532021923637387)	(-8.4954942200354537, 5.7815011319582901)	(1.0758455751157143, 7.875316227301429)	(2.5963047976049261, 0.65048281758704185)	1.0	slash	0.772642
3	N	A	B	B					A	4	1	shapes	A	5	True	42	(-6.8511446323576335, 0.29919652939846131)	(5.2107498219981956, -4.4286308129764063)	(-3.2141045517215145, -5.9486752798236857)	(0.77146584589479161, 5.9879453951067809)	1.0	z	0.594313
4	N	B	A	B	A	M	N	M	M	8	6	shapes	N	5	False	42	(3.9645325362480488, -6.6259978597574349)	(7.7405812272078514, 7.241182898715552)	(-4.0370349215169918, 7.3989813130080258)	(-7.3151181363540481, -0.58588385508242879)	1.0	slash	0.959922
5	M	B	A	A					N	4	1	shapes	B	5	False	42	(6.5212822540928297, -2.7203409241702392)	(-2.7966817656031973, -3.0221282761962325)	(-0.78322078957343955, 2.8062250967303957)	(3.7412094374906406, 8.6529213993394336)	1.0	slash	0.705635
6	N	A	A	N	B	M	M	B	N	8	0	shapes	N	5	True	42	(-6.5396856866034128, -1.4299944251325156)	(-2.1881683102768523, -4.2211553461352374)	(3.2939221091048196, -7.805871042666884)	(-2.805267606315387, 1.2382905928340779)	1.0	slash	1.50537
7	M	B	B	N	N	M	A	A	M	8	5	shapes	M	5	True	42	(-7.6523769838332729, -5.5495041618726226)	(-6.4240917141983758, 5.4312007353887441)	(6.3184698017253513, -3.4045768365131748)	(-1.4508482068681818, 5.0647852747815314)	1.0	slash	0.991027
8	M	B	A	B	N	M	N	A	N	8	7	shapes	A	5	False	42	(3.3860178586244043, -4.3554287484894516)	(2.1941672107924557, 4.7467078758418122)	(-4.6586851130305993, 4.8277139273580847)	(-4.3253024422717861, -8.2389593318055372)	1.0	slash	0.724371
9	M	B	M	B					M	4	0	shapes	M	5	True	42	(6.5496798624043002, -7.9259149509884761)	(-2.4334926560663179, 2.0638408931463648)	(-4.8206206110609084, -1.9398820340738414)	(5.4002467948901085, 1.2690843263618614)	1.0	z	0.750201
10	M	A	A	M					A	4	2	shapes	A	5	True	42	(-2.5674268678050112, 1.7846938550757407)	(6.9256027247647456, 2.6128696712156732)	(-5.1293270613264212, -2.4790594006610132)	(3.4231998058083395, -3.710500223067517)	1.0	z	0.881768
11	M	B	A	N					N	4	0	shapes	M	5	False	42	(-3.5801381936206695, -5.1418592918369663)	(-7.7057301320865692, 0.47880704304837884)	(7.8230137204509376, -6.2740487010052401)	(8.1528871351371919, 1.3587161909453034)	1.0	slash	0.76359
12	N	B	B	M	M	N	A	A	A	8	6	shapes	A	5	True	42	(-5.9008198862483958, 0.30476241485055233)	(-8.2158939226639234, 7.5447584468367808)	(4.1508452336441586, 4.1741541979539267)	(6.3261623947346646, -5.4303428245462699)	1.0	slash	1.18911
13	N	B	M	A					N	4	0	shapes	N	5	True	42	(7.5861932630223698, 4.4461933732052206)	(-1.9413115686512281, -8.5498936138428068)	(-0.50861370348196111, 6.2542920231264567)	(5.9636953191975941, -5.3119792756949078)	1.0	z	0.720778
14	N	B	N	B	M	M	A	A	B	8	3	shapes	B	5	True	42	(3.0345002467601336, -1.1218749842371922)	(-0.90418183986927225, 8.2741662363018271)	(-8.0846029183842099, 4.1236057017037933)	(-8.493990018761739, -6.5687401434648489)	1.0	z	1.39641
15	N	B	B	A					N	4	0	shapes	N	5	True	42	(1.7860745127483124, 1.372635427224985)	(-3.1660764182121977, 4.2994334685915625)	(7.4869854539288454, -3.3371044527175986)	(-0.49934297952704298, -7.0199868109709076)	1.0	z	0.519965
16	N	A	N	B	B	M	A	M	B	8	5	shapes	M	5	False	42	(-5.3911194077256166, -4.3491942321339199)	(2.3204497279512513, -4.6058231075194316)	(-5.7281217893937688, 7.4309637205803476)	(7.4963919912530699, -8.5935343897471963)	1.0	slash	0.545715
17	N	A	M	A	B	B	N	M	M	8	5	shapes	B	5	False	42	(-4.8751241538500691, 4.6913005452579828)	(2.3818575362994991, 3.9404733303557418)	(7.824728385993307, 0.17980253268622803)	(-0.22470061946309272, 7.2983282386172696)	1.0	slash	0.825159
18	N	A	M	B					A	4	1	shapes	A	5	True	42	(-0.90295382946943636, -4.4341041354381536)	(-0.144622072534764, 0.32432809740828539)	(4.2290981016815579, 1.1719714277132347)	(7.510004110018933, -1.6812049707129946)	1.0	z	0.582958
19	N	B	A	N					B	4	2	shapes	A	5	False	42	(7.1588021052469184, -8.0151277108661532)	(-7.7110679528850099, -6.9811658787746218)	(-7.6863246998036407, 6.7330445659738434)	(5.1984207147805819, 4.7226890483530592)	1.0	z	0.772737
20	M	B	N	N					M	4	2	shapes	N	5	False	42	(-2.5116762552708165, -5.654767153000666)	(6.025648402953717, 0.90247407445889927)	(-6.6253371861012926, 3.7666158591790975)	(1.9458233815072727, -2.7365673990721513)	1.0	slash	1.10051
21	M	A	B	N					A	4	2	shapes	B	5	False	42	(-1.9737698487986846, -2.5295916516815904)	(8.5390059275347738, -5.1832601751028831)	(6.0655991365713007, 0.5036560587430472)	(-6.6800833904700632, 8.1530617141429751)	1.0	z	0.794038
22	N	A	A	B					M	4	0	shapes	N	5	False	42	(7.0895368445242184, -7.3399881189134746)	(-1.3540413593185106, -1.8884605545233066)	(2.5789122600353522, 0.37241795314526271)	(-7.9649535933331119, 8.0183786376895902)	1.0	slash	1.03572
23	N	B	N	A	M	B	A	M	A	8	6	shapes	A	5	True	42	(-7.1587105140919061, -8.0786659737916473)	(4.366532953489271, 2.2026170898668909)	(4.6967223958376429, 6.6509507920748145)	(-7.0793990139553671, 3.1070715984279911)	1.0	z	0.703261
24	N	B	A	M	B	N	A	M	A	8	6	shapes	A	5	True	42	(2.7149101875617419, 4.3128489702899699)	(-2.4207290992514432, 5.0726834218154302)	(-7.3071459708220976, -6.1702082237647016)	(-5.4557137100368971, 0.33705888839568487)	1.0	z	0.76487
25	M	A	B	M					A	4	2	shapes	B	5	False	42	(0.53050216617799428, 5.98454135401626)	(2.574713455917621, -4.7000508879772278)	(-0.28849921509185883, -8.6809628584935918)	(-4.1858888029021317, 1.4346737387333146)	1.0	z	0.582681
26	M	A	A	M	N	N	B	B	M	8	3	shapes	M	5	True	42	(-7.4554613602637385, 7.4689182100150333)	(-4.8141473566859982, -2.2551108024960413)	(-2.0974203191434277, 3.3482348661119676)	(0.16135113803885304, -4.5237067533723065)	1.0	slash	1.08433
27	N	B	N	A	A	M	M	B	M	8	4	shapes	A	5	False	42	(7.5736872361102385, -3.6789180664733925)	(3.6754545428713108, 5.3149932507495876)	(-6.3605544194033552, 1.5060241653887729)	(8.4101889995776382, -7.6405827797815773)	1.0	z	1.42386
28	M	B	M	A					B	4	3	shapes	A	5	False	42	(-8.5680768711392155, 6.2033451337040866)	(4.6927789851932413, -5.7991672485045793)	(-3.3836117427419152, -4.2768040100838931)	(0.35893442277198773, 2.3855166947026678)	1.0	slash	0.909428
29	N	A	N	A	M	B	B	M	A	8	7	shapes	M	5	False	42	(-6.3756509714222496, -7.0755587500025374)	(4.7945148577700127, -4.0446588578388729)	(8.132802764532947, 1.8758061460000661)	(0.77187098956098943, -4.3683166768028174)	1.0	slash	1.03696
30	M	A	N	N					M	4	0	shapes	M	5	True	42	(-1.179628005689044, -2.4216390720612848)	(-2.1953253254192298, 3.4040463832347161)	(3.1414988733867855, 2.5829232561258042)	(7.7361774033792834, -8.4880842975574655)	1.0	slash	1.08871
31	M	A	A	B	M	N	B	N	N	8	3	shapes	B	5	False	42	(-5.0244377110106999, -3.4656257024085697)	(-8.2438525835919503, 1.9373078807817574)	(7.6193367861987937, 5.4769733108398029)	(3.5581469741543561, 4.6342608928845017)	1.0	slash	0.596495
32	M	B	A	M					B	4	1	shapes	B	5	True	42	(-2.4554044857763504, -2.7193604385847783)	(6.8212837735623264, -3.2747023331756111)	(1.3305607664312351, 4.052734831659432)	(-5.1874541876404994, 3.7447269655712923)	1.0	z	0.640203
1	M	B	N	B	N	M	A	A	A	8	4	shapes	N	6	False	42	(8.6105613719280818, 2.7489757679857814)	(3.8012112889394363, -0.10218520337305925)	(3.6668600751968174, -8.1315635857546891)	(-0.20825678938845193, 2.1696737551338856)	1.0	slash	0.783826
2	M	A	N	M					N	4	2	shapes	N	6	True	42	(3.0712680761593383, -6.9732222567890503)	(5.3169464996181617, 7.6841448657092641)	(-8.4587837268043167, 8.6937440749250534)	(-8.5322201470318788, -4.2671453403756665)	1.0	slash	0.773281
3	M	B	B	N					A	4	3	shapes	N	6	False	42	(-7.9851514360145357, -1.6282162068721791)	(6.2809220562127752, -7.0173427134352746)	(-0.809774292641122, 6.5270925246001905)	(4.6958707395264216, 4.8024455340513459)	1.0	slash	0.717219
4	M	B	M	A	N	A	B	N	M	8	4	shapes	N	6	False	42	(-2.1469922331833038, 4.709681792316033)	(7.3107497683439213, 1.4585899397536917)	(-1.4804964214140472, -5.4338103148844974)	(2.653609676825365, -3.5469865164376824)	1.0	slash	0.818666
5	N	A	B	M	M	B	N	A	A	8	1	shapes	A	6	True	42	(-4.1893114009432395, -6.1902326677704451)	(7.7556805937529987, -6.8635597153789849)	(-5.5615554300675036, 2.7704640220772419)	(3.527767406888815, 2.6199273767326776)	1.0	z	0.473938
6	M	B	N	B					B	4	3	shapes	B	6	True	42	(6.6799888439568633, 3.0786803288345546)	(0.25012364130649622, -6.7686850562452276)	(-6.6397089288707996, -4.7477032944749222)	(-3.1906708855778811, 0.31465367840473313)	1.0	z	0.830054
7	N	B	M	N					N	4	3	shapes	N	6	True	42	(-5.6653353974879348, 4.1781593386772631)	(4.2293285462069719, 1.0243295624777975)	(7.8464744235980071, -1.7852762419192256)	(-1.4052149511122387, -6.6456167618386122)	1.0	slash	0.649702
8	N	A	N	A					N	4	0	shapes	N	6	True	42	(-4.139157557167402, 0.13434397025302758)	(1.0003076223264209, -2.9873064811817498)	(3.3174332944602334, 1.1781665454230339)	(-3.6030334951273897, -5.6172020465962866)	1.0	z	0.417413
9	N	B	B	M					M	4	3	shapes	M	6	True	42	(-0.5774021092624082, -3.7660046208086602)	(-5.4812380168092574, 2.0308915007872859)	(4.2268786786665551, -1.0460448062801966)	(0.20797982804228887, 8.4922076963198592)	1.0	z	0.477123
10	M	B	A	M					A	4	3	shapes	M	6	False	42	(-7.8083055930614416, 1.6358193860917929)	(0.93936956711648278, -1.1743598943725555)	(0.47460762045550808, 3.0013021088263638)	(-2.296452139281314, -7.852676348341177)	1.0	slash	0.702733
11	M	B	A	A	N	N	M	B	A	8	5	shapes	N	6	False	42	(4.2769018709048456, -5.0163618818055555)	(-6.7950527268870609, 0.75690678103850928)	(-5.9450969275498329, -7.3728926879187568)	(-6.8036749929596132, 6.0156030410932093)	1.0	z	1.15625
12	N	A	N	A					N	4	0	shapes	N	6	True	42	(-2.875283847230695, -2.5991300800209363)	(2.4435735674949406, -3.2654711309211102)	(3.8490140783129334, 8.6372255350297245)	(-0.40317401486201021, 6.082908258123199)	1.0	z	0.528133
13	N	B	B	N	A	A	M	M	A	8	5	shapes	A	6	True	42	(-0.087792959199173737, 1.5620361987381202)	(-6.0953145972281426, 6.5731510164399971)	(7.105845805986867, -8.3626345840995704)	(6.634689991734561, -0.92968692110852214)	1.0	slash	0.617591
14	M	A	B	B	N	N	A	M	B	8	0	shapes	M	6	False	42	(1.6462669904098615, -3.3001076077091831)	(5.2276534025214563, 4.3759643691346533)	(0.53927060391082904, 5.7524221086607383)	(6.2550152111746069, -2.7370783341288005)	1.0	slash	0.923484
15	M	A	B	A					A	4	1	shapes	A	6	True	42	(-7.6221261254382968, -6.4276587451744369)	(3.8066524606676122, 1.3242614865209958)	(-5.9743366033772904, 3.9658015608799246)	(8.2345734993822362, -2.928082929168256)	1.0	z	0.789004
16	M	B	N	B					B	4	3	shapes	B	6	True	42	(4.5752399769008303, -0.33837635959921819)	(-4.5830983123787234, -1.2367361725325132)	(-3.0165424082914827, 8.6381263314673475)	(8.0730721224509345, 4.5922694781042548)	1.0	z	0.92076
17	N	A	M	A	M	B	N	B	B	8	3	shapes	A	6	False	42	(8.6411954913557594, 3.2475213126012736)	(8.6284535469997046, -5.6547597536686673)	(-2.9840649243453683, 1.0102858835694768)	(2.8049957902203371, -1.6374643211253765)	1.0	z	0.796408
18	M	B	B	N					A	4	2	shapes	B	6	False	42	(4.7632897144369455, -6.6705550146301302)	(7.7630534264990558, 4.7455232521692672)	(-7.602594054689817, 8.7279315634808334)	(-1.8935770469287059, -3.8833275508187182)	1.0	z	0.456052
19	N	A	M	B	N	M	B	A	A	8	7	shapes	A	6	True	42	(5.7703295444242801, 7.8070249401017016)	(-2.1407135089782692, 4.5444635974695089)	(-8.5163207706546018, -1.910746158209303)	(-1.9761549776870186, 0.047186462953128228)	1.0	z	0.647733
20	N	B	A	N	B	M	A	M	N	8	0	shapes	N	6	True	42	(-6.2081565446990599, -2.5212592441638799)	(-2.3901423099560004, -3.8163876207819545)	(1.5549645068212268, -6.9781238506858259)	(1.9162323499774256, -0.90462517144357868)	1.0	z	0.609417
21	M	A	B	M	N	N	B	A	B	8	2	shapes	B	6	True	42	(-6.1643681629613294, -6.1435868470993942)	(-1.8819705783273815, 4.729201568436455)	(2.4468617445858953, 4.8521381407997293)	(-6.3683382807328854, -2.0155111281742952)	1.0	slash	1.36295
22	M	A	A	B					B	4	2	shapes	A	6	False	42	(-3.7769148394547694, -3.2318060273096698)	(0.37560062004362571, -6.354432242606932)	(1.7620187138428758, 4.6029315733972069)	(-5.4485296865591257, 8.2374997336667803)	1.0	z	0.532455
23	M	A	A	N					M	4	1	shapes	A	6	False	42	(-1.7347938538198084, -6.8960525313860348)	(-5.8234504390841622, 4.7789128782331662)	(2.7913748550976489, -8.7340888954419515)	(5.0296727834779791, 4.4849841410288676)	1.0	slash	0.932163
24	M	B	M	B	A	N	N	A	A	8	1	shapes	B	6	False	42	(3.7632313469266059, -6.3475792775817528)	(3.4667123261855313, 3.3878939893292515)	(-0.44294135315783478, 7.1259817825299443)	(-8.1623227195769559, 2.4037566165033653)	1.0	z	0.510007
25	N	A	M	N					A	4	2	shapes	M	6	False	42	(-3.7247420509409572, -6.2894761511298354)	(4.875184351078774, 4.8978759136961987)	(-4.9216807467292796, 3.1034044524912296)	(4.7219846815294382, -2.2014249488920292)	1.0	slash	0.993377
26	N	A	M	B	N	A	B	M	M	8	2	shapes	M	6	True	42	(-4.1779605493806429, 0.73253015501754959)	(-8.1685151276656995, -7.0801199465900737)	(-5.5535892931829922, 6.79997850599724)	(4.804177143867296, -2.8108576585424085)	1.0	z	1.99926
27	N	B	A	A					A	4	0	shapes	N	6	False	42	(-4.9974016480436525, 8.1675476095651014)	(-4.2494534328253089, -6.4196019327703144)	(4.4610716862288786, -7.2931332053048106)	(3.0109180371062259, 8.0059259863308192)	1.0	slash	0.710735
28	M	B	M	A	A	B	N	N	A	8	1	shapes	B	6	False	42	(-3.5543761387872701, -1.0695637071730992)	(6.5841761775909369, 6.4239950354795141)	(7.535740324871508, -0.41885558142395851)	(-4.221962897708786, -6.248252115489576)	1.0	slash	0.524452
29	N	B	N	B	M	A	A	M	N	8	6	shapes	A	6	False	42	(8.1873401361431313, 2.4353660214946924)	(-6.4872517100839344, -0.067307860469686176)	(4.6451991233384149, -6.2414923363889407)	(2.8039100596138251, 8.6822604463861488)	1.0	z	0.568219
30	N	A	A	B	N	B	M	M	A	8	2	shapes	A	6	True	42	(0.62211615114150476, 0.52715110911761798)	(7.4846024645425331, -0.54126855575919741)	(-2.0335420778105924, 5.2371823438532168)	(0.91544770934419617, -6.3072771063496287)	1.0	z	0.683792
31	M	B	M	B	A	A	N	N	M	8	0	shapes	M	6	True	42	(4.1771953473586017, -4.6422630681416148)	(-5.1766397515570723, -2.3483112513430289)	(-0.0040798871394862601, 5.8374899846770791)	(8.7143105150567948, -5.1600377784312297)	1.0	slash	0.783431
32	N	A	A	M					N	4	1	shapes	A	6	False	42	(6.8837995266575298, -3.2594206475032008)	(6.3867877106645494, 1.3071699775271348)	(-3.0389714454713923, 3.9364696186907775)	(-1.850091671985771, -5.0383707424476665)	1.0	slash	1.06913
1	M	A	A	N					B	4	3	shapes	N	7	False	42	(-3.0786925919017003, -1.897733133473384)	(7.9495812494318265, 1.9199556873429913)	(7.5020509260899289, -8.3003068187323397)	(-0.84221830703050493, 6.4223996074639107)	1.0	slash	0.762786
2	M	B	A	M					N	4	1	shapes	B	7	False	42	(0.23209936834337519, 4.3980253240014466)	(-4.2803876495697795, -4.0163017905890017)	(5.5751405141395356, -3.8446457070931217)	(-7.676809823143719, 0.12746143874535498)	1.0	slash	0.868316
3	N	A	A	B					B	4	3	shapes	B	7	True	42	(-4.7027869305323753, 7.0127967967227338)	(8.7180488577940878, 8.5829338484431084)	(1.0302356682689862, -1.6481564097230192)	(-7.4939087439020575, -5.609508663403)	1.0	z	0.776285
4	M	B	M	A					M	4	2	shapes	M	7	True	42	(-0.72668379025550678, 2.3977742429002724)	(5.0714632613084536, -8.1655352672353523)	(-7.2793248459956006, -7.437549242354363)	(1.3611963884272544, 7.4766453161203188)	1.0	z	0.727818
5	N	B	M	B	M	N	A	A	A	8	2	shapes	M	7	False	42	(-4.466317490076297, -7.4172307537966073)	(-4.9825542751167511, -2.0265319094980878)	(3.793000247262432, -0.47835554009789938)	(8.262094213961344, 0.45703144932452844)	1.0	z	0.945303
6	M	A	A	M					M	4	0	shapes	M	7	True	42	(3.8304798581547068, 4.7660603270983017)	(-7.2976420082482782, 0.8619621856891424)	(-1.1118434143047304, -5.0555618029017424)	(6.8314405631722828, -7.9595222824188427)	1.0	z	0.471052
7	N	B	B	A					B	4	3	shapes	A	7	False	42	(0.92222246078107872, -1.9837789276790661)	(-1.632150491028912, 2.4950458564502611)	(1.9862156242994953, 6.7664259488768597)	(-1.8232445733642271, -5.5071583728396796)	1.0	z	0.706564
8	N	A	N	B	M	A	M	B	A	8	5	shapes	A	7	True	42	(-1.2768247640314714, -6.9987140832867443)	(2.0800204913237863, 7.1689300535181832)	(-2.0714530275970189, -0.44367124438882044)	(2.8222895380852098, 1.1668993466485347)	1.0	slash	0.480407
9	N	A	N	A					N	4	0	shapes	N	7	True	42	(-1.2676828721164455, -4.4344238947102115)	(-3.3366362152883848, 1.0542353172941787)	(7.586577366616936, -7.4442973313626633)	(0.36859194021528019, 4.8786472325556094)	1.0	z	1.12195
10	M	B	N	A	A	N	B	M	A	8	4	shapes	A	7	True	42	(5.5558410644570646, -4.9047925869058115)	(-6.1785943572071265, -6.565367750247705)	(-5.7260729755167352, -0.26543055415931072)	(4.735498185617562, 5.0802582603618074)	1.0	z	0.77166
11	M	B	N	A	B	N	M	A	N	8	1	shapes	B	7	False	42	(-0.34580017033333199, -5.7203873803826166)	(7.7773647823982692, 2.2115173350493365)	(7.3512415987850126, 6.5279458862673696)	(3.1677813371338317, -2.4821126246841638)	1.0	slash	0.845343
12	N	A	N	A					A	4	2	shapes	N	7	False	42	(-4.8573394179425113, 6.8603787061849228)	(0.14907651546153922, 8.1074059071779416)	(-0.085976277008354529, -0.78219920470489779)	(1.6812467106105498, -7.8383896444444989)	1.0	slash	1.38299
13	N	A	M	M	N	B	A	B	A	8	6	shapes	A	7	True	42	(-7.525839040892877, -4.7658570451854718)	(-1.5033145171229823, 7.2394221126326848)	(-0.71755526030163352, -7.3718177774969229)	(5.454394655767727, 6.4050383710983905)	1.0	z	1.30054
14	N	A	N	A	M	M	B	B	A	8	1	shapes	A	7	True	42	(6.3887918839440871, -7.914558032580735)	(-7.5778721355397156, -1.3105977176967887)	(-0.94952016855351751, 2.639610613028589)	(-4.1407056390486314, 7.567381393101229)	1.0	z	0.828131
15	N	B	M	A	N	M	A	B	M	8	0	shapes	N	7	False	42	(-0.36176019780631563, 6.1087563334168031)	(4.2827704479408961, -7.5379012762362878)	(5.8621223703362553, -2.2166235438246087)	(-4.6596778103772492, 0.53707818899965787)	1.0	slash	0.809926
16	N	A	N	M	M	B	B	A	M	8	3	shapes	M	7	True	42	(2.5593837932909125, -7.4187907525890742)	(-2.8137150961777939, -4.3499751707640932)	(-7.1853312604409396, 2.9533711417943724)	(3.4517352411573334, 6.0919834674026632)	1.0	z	0.587468
17	M	A	A	M					M	4	1	shapes	A	7	False	42	(8.7276487809154162, 7.5642869632138314)	(4.2177247096030097, -5.3978590698656532)	(-5.962320833435661, -2.8162508129049293)	(-1.8516159913064838, 0.2342058410095138)	1.0	slash	0.871152
18	M	A	B	N					B	4	3	shapes	N	7	False	42	(1.3869923783185314, 2.768726188394643)	(2.3481965356391417, -6.0658988196755583)	(-7.8212927904749874, 7.3410309681771189)	(-8.6220331007915085, -5.6103001335389013)	1.0	slash	0.784749
19	N	B	N	A	B	M	A	M	M	8	3	shapes	A	7	False	42	(0.14605462004012182, -6.8900895426901876)	(-7.7591448136748316, 2.1609148887073815)	(2.687349722535572, -1.9872323629685136)	(-3.0843506260827498, 8.3873715099440957)	1.0	z	0.816426
20	M	A	A	B					A	4	2	shapes	A	7	True	42	(6.124715709850479, -7.7729731902758656)	(-6.8565068490609633, 3.5793777351384239)	(-1.8233426557926595, -0.67997962605185513)	(2.4499613551204593, 4.2798902937469059)	1.0	z	0.390093
21	M	B	A	M					M	4	3	shapes	M	7	True	42	(-2.2193796770585363, -6.5286397728604104)	(1.6292793439451234, -1.6923627105900296)	(3.8507140474265906, 6.8077355215590494)	(-8.4983093948757595, 5.7661808029713271)	1.0	z	0.585843
22	M	B	B	M	N	N	A	A	B	8	2	shapes	B	7	True	42	(-3.3730758380813946, -7.455281972148553)	(5.304057891036976, -2.4886683498495605)	(-7.927882975616674, -5.4848341164628955)	(-0.72505904878558525, 2.7113938230657055)	1.0	slash	1.04147
23	M	A	B	A	M	B	N	N	M	8	1	shapes	A	7	False	42	(-6.4968574221118063, -4.8825689478929464)	(1.9052385593850136, -0.22366321517667309)	(8.0723319250014853, 5.9640940421372832)	(-2.6708111069118363, 3.2733682089977201)	1.0	slash	0.762705
24	N	B	M	A					B	4	2	shapes	M	7	False	42	(0.65058260184100369, 6.7966296769230752)	(-0.53082444984792154, -3.0871842348181291)	(-3.8687903137759978, 6.2741170033993718)	(5.3890330854137858, -4.004176006221126)	1.0	slash	0.548666
25	M	A	M	N	B	B	N	A	M	8	5	shapes	B	7	False	42	(-6.9655668898464231, -2.1206432708008816)	(-2.4973714472472581, 1.1623209645062804)	(1.7022774564076286, 7.062075077167167)	(-6.4524654977756288, -8.2259080463715346)	1.0	z	1.03647
26	N	B	M	A					N	4	1	shapes	B	7	False	42	(-8.4753483471107689, -6.7223515503692228)	(5.7444050138360048, 8.5252052679641217)	(0.52050861822376149, -7.9559975836716825)	(-7.1522447757095353, 1.1655329569716688)	1.0	slash	2.6942
27	M	B	M	A					B	4	1	shapes	B	7	True	42	(8.4954431079250909, -1.7952125797172629)	(-1.0212345680360571, -2.2584459096539495)	(-8.0644314127596601, 8.2903354571794949)	(6.151560687329459, 1.9622358835785345)	1.0	z	0.861696
28	N	A	N	M	A	M	B	B	A	8	7	shapes	B	7	False	42	(-4.8062142988741883, 3.0585949862388038)	(-0.70811066777571163, -2.5928452517856666)	(-8.0778426501267422, -1.2725526874601094)	(5.7437555107290912, -6.2406821708967426)	1.0	slash	0.741224
29	M	A	A	B	N	M	B	N	A	8	2	shapes	A	7	True	42	(4.1126620315337927, 6.9465867226648896)	(-5.3875735932059623, -0.95124955666044197)	(-4.1849241260084078, 4.2642187817081023)	(2.2285525084727471, -4.9169739746508787)	1.0	z	0.788966
30	N	B	A	N	A	M	M	B	N	8	0	shapes	N	7	True	42	(1.2707572088251666, -8.185160375979077)	(6.6332536725963518, 0.77870013563650176)	(4.4104863931737999, 7.4788341818517985)	(-2.3824287981414702, -0.38710715811281382)	1.0	slash	1.23656
31	N	B	B	N					N	4	3	shapes	N	7	True	42	(-8.696253611839472, 8.7174867747828593)	(-0.10837413299862497, -6.5638294233705023)	(2.6158430897893297, 2.2494769100496175)	(3.9238212469184433, -6.3882233947537435)	1.0	z	0.44815
32	N	A	M	M	N	A	B	B	B	8	3	shapes	M	7	False	42	(-6.3063377500679678, 7.9017089030456518)	(-8.034866343981367, -3.9183052225132835)	(8.4225346585969838, 2.6071237766599609)	(-7.2300450334553119, 0.56662509800458061)	1.0	slash	1.13993
1	M	B	B	N					B	4	0	shapes	M	8	False	42	(2.2604840994864794, -6.9312247774233899)	(-4.1966081985512877, 7.687996489606757)	(5.6074595909976406, 6.42362389504021)	(-0.64708468265077101, -0.95730122926670447)	1.0	slash	0.685154
2	N	B	B	N	M	M	A	A	M	8	5	shapes	M	8	True	42	(1.7932401972829837, 7.7273063025761388)	(0.5700700821676552, 2.7501490395787105)	(-0.088553640235101483, -4.9460950555765173)	(-3.266984511562633, 6.9626262560456862)	1.0	slash	0.64117
3	M	B	A	B					N	4	0	shapes	M	8	False	42	(-4.6907004928034706, -3.0073793489084748)	(-0.93632210514978276, 1.3979317442397363)	(6.267524954379514, 6.6095544686940304)	(2.4083164807579323, -1.9884725401999201)	1.0	slash	1.38673
4	M	A	B	N					N	4	3	shapes	N	8	True	42	(2.5347125051071941, -5.9554746566236929)	(-0.94826553137693548, 8.1098067412694128)	(-1.7282087017463601, -5.0457172482462465)	(4.6229089052973968, 5.1131364771259289)	1.0	slash	1.82234
5	M	A	A	N					M	4	0	shapes	M	8	True	42	(-0.25625497365866678, -2.2342167170507254)	(8.7143094390850386, -4.3168610090872157)	(5.3077448938089145, 7.8984558873948316)	(-0.6453282294665641, 7.0926313355121593)	1.0	z	0.732009
6	N	B	B	N	M	M	A	A	A	8	7	shapes	A	8	True	42	(6.8180482862103027, -2.6965424083641762)	(7.8137826017440091, -6.9469250078679456)	(-7.2434301598934532, -7.0831887914628222)	(-3.6437440699841837, 5.8851922050725705)	1.0	z	0.683715
7	M	A	B	A	B	M	N	N	M	8	5	shapes	M	8	True	42	(-4.1573552851480837, 8.7043839596746153)	(8.0236783078980949, -6.5966700524232307)	(2.4754707917027989, 3.1732781773655319)	(-8.6942427664434643, 2.2369258814836357)	1.0	slash	1.32475
8	M	B	M	B	A	N	A	N	A	8	6	shapes	A	8	True	42	(0.81851727036483624, 8.307004330278005)	(1.8782461351179336, 2.1177110834870163)	(8.1585110353313937, -2.1744569751917027)	(-7.2524658586060609, 1.9769491407112074)	1.0	z	0.81492
9	M	A	A	M	B	N	B	N	N	8	0	shapes	M	8	False	42	(-6.2289208497758297, 2.6441148385145965)	(-4.9330108372810653, -3.00783589936563)	(-3.0738351340591983, 7.2006320248929168)	(7.4604977708443876, 7.9647285318413168)	1.0	slash	0.70271
10	M	A	B	B					B	4	1	shapes	A	8	False	42	(-2.6867828068199069, 4.8721296843851647)	(6.5869748686084009, -5.7652011972470181)	(6.8506649363916665, 3.4670889202773481)	(-3.5456271158698032, -6.5505821023510098)	1.0	z	0.66029
11	M	A	B	M					M	4	3	shapes	M	8	True	42	(-6.9524111439103464, 3.9960252136643497)	(-5.9966080507463086, -5.3246904733295555)	(4.5613218332020402, 3.8432387566665618)	(2.7327029374692025, -5.5833714541806714)	1.0	slash	0.969964
12	N	A	N	B	B	A	M	M	B	8	4	shapes	B	8	True	42	(5.0807336659200146, -8.3062836565907805)	(1.2903890632037793, -5.8121240359695427)	(3.1837591048476988, 6.4905896464940014)	(5.2052066555827707, 2.2235020463793749)	1.0	slash	0.637507
13	N	A	M	M	N	A	B	B	M	8	2	shapes	M	8	True	42	(-7.4023182512741466, 3.8715950098693774)	(2.6714495141084189, 7.8830700702106995)	(2.6806424566287923, -6.4783883734079346)	(4.1919092688651993, -0.55518913835930306)	1.0	slash	0.77922
14	N	A	N	M					N	4	2	shapes	N	8	True	42	(6.9978501965248849, -7.9139153598948191)	(-2.0799691012844166, 5.8916014943530062)	(3.5009349340823732, 7.6950134390329197)	(-7.9309137593453114, -6.9906557524983306)	1.0	slash	1.3288
15	N	B	B	M					B	4	1	shapes	B	8	True	42	(3.0050785520717369, 7.7924493775913071)	(-2.6644175540953103, 4.5673215191583694)	(-0.26776833990400917, -5.4400661750965353)	(8.420180807303673, -4.5592716057810438)	1.0	z	0.424477
16	M	B	A	A					A	4	0	shapes	M	8	False	42	(-8.7084641135534717, -0.22976990720685464)	(7.5236510642796084, -4.9212284332025114)	(-8.4433854596401208, 7.8573416711349147)	(1.64290074087344, 6.2711802102625747)	1.0	slash	0.726102
17	M	A	B	A	B	N	M	N	B	8	0	shapes	M	8	False	42	(-1.4202478620379644, 6.4433009885329184)	(8.2992370599716523, -7.6803773613726118)	(4.8794346686971259, -1.2181360405087363)	(-1.4935672419508581, -6.9221204113328456)	1.0	slash	0.801827
18	N	A	B	M					M	4	0	shapes	N	8	False	42	(-7.686293729863749, 3.6819924407932145)	(6.1144628275176807, -1.1601035788199114)	(-0.42353703019778166, -5.3861386389832555)	(6.7343312993837454, 3.4228176166665722)	1.0	slash	0.675437
19	N	A	A	B	M	M	B	N	A	8	3	shapes	B	8	False	42	(-0.449001027279607, 5.383328182244675)	(-5.4248086445485457, 5.1969432009906296)	(-7.3499422812075146, -0.36715593011174974)	(7.8300741555928468, 2.1417820541851054)	1.0	z	1.18112
20	N	B	N	A	B	A	M	M	B	8	4	shapes	B	8	True	42	(-1.3117418545060078, -5.17060763632381)	(-8.0051569944807834, 5.0360694076708121)	(-7.8672542816241355, -6.7303357188083091)	(5.7743125643072251, -1.1060885579450987)	1.0	z	1.34854
21	M	B	N	M					A	4	2	shapes	N	8	False	42	(-8.6959880661020481, -3.4192274152981961)	(6.6438883064263123, -0.64880639420409913)	(-2.5003389976227739, 8.3407574729276419)	(4.3840610872819692, 8.0602723318469813)	1.0	slash	2.06426
22	N	B	N	B	A	M	M	A	N	8	2	shapes	N	8	True	42	(5.3246171913041227, -2.6560818738206384)	(0.64506366128138026, -3.4525442361918595)	(4.2941737058024092, 2.6800041942278554)	(-3.1737184873731286, 0.12902677672586016)	1.0	slash	1.25311
23	M	B	M	N					B	4	1	shapes	B	8	True	42	(-7.1812659594514088, 0.48580327773554366)	(-3.2083950733227882, -0.66931310369550978)	(4.9530458365868899, 4.119172682483109)	(3.9743396405044944, -3.0564479553798822)	1.0	z	1.21951
24	M	B	A	M	A	N	N	B	B	8	5	shapes	N	8	False	42	(-0.65100989168034751, 8.1124903226952334)	(-7.6476777517263343, -2.6792069766680182)	(-4.8209843009987559, 5.5118529530409646)	(7.0947789748950232, 6.1802188635099231)	1.0	z	1.14708
25	N	B	M	N	A	A	M	B	B	8	5	shapes	A	8	False	42	(7.5284984729543396, -7.7668346475204855)	(-4.1640900501964815, -2.8968584777014579)	(-0.15577141448587639, -1.5347168693001123)	(0.43731995520800915, 3.043070056314324)	1.0	z	1.23479
26	N	A	B	M	A	B	N	M	B	8	7	shapes	M	8	False	42	(-0.54793248577237641, -6.9908239111769017)	(-6.6080982394875702, 1.1728525262937257)	(3.4680925068216872, -8.2226839343115667)	(-6.0295156442668532, -8.5861631486421164)	1.0	slash	1.03046
27	M	A	N	N					A	4	1	shapes	A	8	True	42	(-7.6327080854106191, -1.1748540131586616)	(3.5152206733328875, -5.2942171795989399)	(-8.3804954723010674, 5.7903327304519063)	(3.8087968650266664, 8.5864268578320804)	1.0	z	1.16185
28	M	B	B	N					M	4	0	shapes	M	8	True	42	(4.6205390399928596, -5.3712172277759791)	(-0.21299886857716643, -2.6590045914759592)	(-5.8766686947090694, 6.0521669022721127)	(8.6852323532307025, 2.7051504284782713)	1.0	z	1.09167
29	N	A	M	N					N	4	1	shapes	A	8	False	42	(-7.0893667685269115, -6.829753468485209)	(-0.90262626913264565, 4.0192045844868112)	(8.3738535457621133, 8.2948491068074084)	(7.05724037575267, -4.7405204586564809)	1.0	slash	0.96336
30	N	B	M	M					B	4	0	shapes	N	8	False	42	(0.79203075159220049, 3.8045128391162191)	(-3.9919192580751028, 5.5721467048669631)	(-2.2948653660350473, -5.3069691751904049)	(3.4003499405937454, -3.145284153322109)	1.0	slash	0.874632
31	N	B	A	B	M	N	A	M	N	8	4	shapes	M	8	False	42	(0.59528777503771302, 4.361125119607216)	(5.5169752132423593, 6.2035294129950689)	(-8.4515658460773153, -8.4686775260895999)	(3.6770353205473238, -1.5748050834316469)	1.0	slash	0.854577
32	N	B	N	A	B	M	A	M	A	8	1	shapes	B	8	False	42	(-3.0068160939904169, 7.8590999253370946)	(-8.1064004478877845, 4.1522522742619863)	(-7.0300207856412831, -6.2208755523193657)	(-2.5216105606129098, -6.8648955826144133)	1.0	z	0.710175
