TrialNumber	stim0	stim1	stim2	stim3	stim4	stim5	stim6	stim7	stim.probe	ttl.stims	corr.num	trial.type	stim.corr	block	match	Subject	stim.pos0	stim.pos1	stim.pos2	stim.pos3	ran	resp	RT
1	N	B	B	A	M	M	N	A	A	8	6	shapes	N	Practice	False	45	(-1.2185075168725339, 4.4290049190625407)	(3.0433762693948943, -3.9335989396624846)	(4.3795816555357998, 2.7082042927907111)	(-6.8380605920190138, 1.4357184980149906)	1.0	z	9.22722
2	M	B	A	A					N	4	0	shapes	M	Practice	False	45	(-8.2973875165590911, 6.5850797083473616)	(1.2353219849501276, 4.8532807648564429)	(5.7528664353471815, -0.15304743840841972)	(-2.4073671688351714, -4.0989557628879032)	1.0	slash	1.1904
3	M	B	M	A	N	A	B	N	A	8	3	shapes	A	Practice	True	45	(5.2051640490137885, 4.8598800252208729)	(-6.2424440069685794, -2.2815621366470289)	(1.3135949423599964, 1.012958575984257)	(-3.0492566153269545, 2.7450962405769541)	1.0	z	1.09415
4	N	A	M	B	N	A	M	B	A	8	7	shapes	B	Practice	False	45	(-4.6872635446869282, -4.1830855947876495)	(6.2874240838352975, -0.25617288280640338)	(-0.94617571234868603, -0.82099549860468812)	(-5.3489474937661043, 2.5103998047325184)	1.0	z	1.42369
5	M	A	N	N					B	4	1	shapes	A	Practice	False	45	(-2.5243562532292971, -5.7445704539347693)	(-3.6040175968647068, 8.3703668803595477)	(7.4018447363681936, -5.7635838762187168)	(1.7409167879723064, 8.7138615029982986)	1.0	slash	0.957367
6	M	A	A	M					A	4	2	shapes	A	Practice	True	45	(8.2292898927625728, 1.4707250613758482)	(-3.1742168830905397, 5.5993370414182131)	(-5.9690538674640727, -4.1344922877815975)	(1.3680865330874301, -1.6655828170348084)	1.0	z	1.19083
7	N	A	M	B	A	M	N	B	B	8	7	shapes	B	Practice	True	45	(-8.2095479396478517, -7.7412652144036915)	(6.1562241529039134, 3.4362541255522014)	(4.912789453520233, -2.1344952525176275)	(-8.1202757732280162, -2.0520225013971283)	1.0	slash	1.54046
8	M	B	N	B					B	4	3	shapes	B	Practice	True	45	(0.25639286732928213, 5.8001762999229047)	(-8.2285624512781528, -2.5069928853961345)	(5.2547656510802128, -7.2025945358705838)	(-5.5924737744894557, 3.3952073190334602)	1.0	z	0.818199
1	N	B	M	N					A	4	2	shapes	M	0	False	45	(-4.3476913148362977, -5.778983237843546)	(2.2904534163734311, -6.75098193333125)	(1.9180005299762861, 5.2070936473630383)	(-4.03701558096403, 2.419687306953648)	1.0	slash	1.1629
2	M	A	M	A					N	4	1	shapes	A	0	False	45	(-3.2149407771698186, -3.9401884192518661)	(8.0621214333473112, -6.4084370672066076)	(1.1322412227322456, 6.2237759658336778)	(-3.9830159644009768, 6.3099153287227772)	1.0	slash	1.29254
3	M	B	B	A					B	4	2	shapes	B	0	True	45	(0.30062144544177016, -7.2123384782373545)	(-8.6597447422121654, 4.1464462357497371)	(-8.1715823341147544, -6.4451333690909376)	(7.9645302860798424, 2.901572423784371)	1.0	z	1.26008
4	M	A	B	M	B	N	N	A	M	8	0	shapes	M	0	True	45	(-6.8522279114390363, -7.6939732932970406)	(-1.2035815570174613, 2.5647141603009871)	(1.124349388854311, -4.3137727936604309)	(-3.9751377144718658, -3.7062214865353456)	1.0	z	0.861798
5	M	A	N	N					N	4	3	shapes	N	0	True	45	(7.1860229343474327, 3.5145505064721743)	(7.9576639151035344, -5.4569470074128432)	(-0.14244319073319289, 3.6090170750236794)	(-6.3644960525916643, -5.1857450472131452)	1.0	z	1.88336
6	N	B	N	M					N	4	0	shapes	N	0	True	45	(-6.1241564246140019, 1.3912278260852382)	(5.005631937150298, -7.7162790437742439)	(4.8669185327852844, 2.6976365077149627)	(-2.3589350573145111, -0.98431187569864331)	1.0	z	1.11685
7	N	A	B	B					B	4	2	shapes	B	0	True	45	(-0.97414072824876996, -3.6097998690823987)	(0.58556148044171152, 4.8771397990185328)	(-7.7077845982515765, 0.70985974675238239)	(3.9064117994455874, -7.5650631956393255)	1.0	z	1.11254
8	M	A	N	M	B	B	A	N	N	8	7	shapes	N	0	True	45	(-7.1459644663293487, 6.9737968297302757)	(8.052497134412306, 0.10890288241823676)	(3.9224627496124924, 6.1686080269190828)	(4.3803297457218839, -6.5886990058254362)	1.0	z	1.63032
9	N	B	N	B					A	4	3	shapes	B	0	False	45	(-7.2735769695996435, -4.7333648865864646)	(7.3930525295458374, -5.058806991973146)	(-1.1161694109046199, 6.2412399837331751)	(5.0870867120560526, 2.8805511114961924)	1.0	slash	1.13779
10	N	B	N	M	M	B	A	A	A	8	0	shapes	N	0	False	45	(-3.7136719543639725, -8.7455785362651337)	(-5.1932426890679562, -3.3065670796718525)	(2.7763243682521246, 4.1994013346793935)	(-7.9963439225544146, 0.56790143180853825)	1.0	slash	1.05949
11	M	B	A	A					M	4	2	shapes	A	0	False	45	(7.1847250465223027, 2.3960094982074462)	(-4.7765484787489143, -2.6288415199546229)	(3.4189426576211286, -3.4164627703074544)	(-1.9310122105136385, 2.0754397396957707)	1.0	slash	0.823229
12	N	B	B	A	M	N	A	M	B	8	2	shapes	B	0	True	45	(-2.7687831882810068, 3.563912268813537)	(1.2924165477460132, -4.680624771965185)	(4.9846621392124781, 6.3681710475157427)	(-3.4617096841039983, 8.6483264888062266)	1.0	z	1.78268
13	N	B	N	M					B	4	1	shapes	B	0	True	45	(-7.4622560059771539, 4.6094242381457917)	(-0.62775148434964834, -8.3527119073712637)	(7.0877149257013787, -4.306326350188419)	(1.0254565274120111, 6.513050791911267)	1.0	z	-9.21056
14	N	A	N	A	M	M	B	B	A	8	2	shapes	N	0	False	45	(-6.1977913762557231, 1.0120199013204711)	(-3.9162944022259687, -5.7738142035815514)	(1.260469096656033, 1.7615567631336742)	(-4.8785153721891632, 8.0452964607762709)	1.0	slash	0.901811
15	N	A	M	N					N	4	3	shapes	N	0	True	45	(-2.6950720809567139, -0.35813134518964773)	(6.4301046256372025, 5.2986652038425959)	(8.635712668616101, -5.9373201616667846)	(-5.5879114468735995, 2.4090603431744455)	1.0	z	0.955693
16	N	A	A	B					B	4	0	shapes	N	0	False	45	(-4.6491358142054713, -5.4443206080904698)	(-6.5921591506798585, 4.7208673977986937)	(3.469421460500616, -1.0888806761391141)	(0.20725615751645066, 6.3494054885551172)	1.0	slash	0.831221
17	N	B	A	B					M	4	1	shapes	B	0	False	45	(-2.8213688685105538, 7.4156538810158743)	(3.7516690843798166, -7.0448494026901951)	(3.6098381013417331, 3.7997722960754121)	(-5.2770389044163206, -2.7274911633674463)	1.0	slash	1.08292
18	N	A	M	M	B	A	B	N	N	8	6	shapes	B	0	False	45	(-4.6188426587339091, 3.0602977049892353)	(-6.3856054063678354, -6.6619627093415472)	(6.3414254874171174, -7.0656935644094032)	(-1.5948647220783938, -4.2128387911473615)	1.0	slash	0.926489
19	N	A	M	M	B	B	N	A	B	8	5	shapes	B	0	True	45	(-3.1832042002713967, 6.7077173545265314)	(-3.701193071229004, -8.1913274052898313)	(6.2460008623833687, 1.5127897788716762)	(1.2058153326595686, 3.0078643946558614)	1.0	slash	1.58622
20	M	B	B	A	M	N	A	N	M	8	0	shapes	M	0	True	45	(8.0454629273434541, 0.28327086349267283)	(-0.70127172360851375, -3.6552203067172409)	(-5.8842388240991186, -4.7853170851950306)	(-1.6767433000450378, 4.0845797554887877)	1.0	z	0.881782
21	M	A	B	M	N	A	B	N	A	8	3	shapes	M	0	False	45	(7.1192868007643693, 4.5770654450164656)	(0.67156633176214342, -7.7624758301509669)	(5.1580546354592514, -5.7646191892172691)	(-4.9808919743208122, -4.2461448224260261)	1.0	slash	1.87752
22	N	A	N	B	B	A	M	M	N	8	2	shapes	N	0	True	45	(6.3377226574777463, -4.7333249139589766)	(-1.6535739719357814, 6.149283140478687)	(-3.1845132222621508, 1.0792923047158727)	(-4.432800147897245, -8.3174230125953788)	1.0	z	1.25897
23	N	A	M	M					B	4	3	shapes	M	0	False	45	(-8.5598954834476828, -1.2796269384183869)	(7.5539529385413928, -5.1494009219868158)	(5.2641030005680953, 5.3744829690856264)	(-4.105625591314352, 0.58550704995757918)	1.0	slash	0.776386
24	M	B	B	A					M	4	2	shapes	B	0	False	45	(-5.0555031890587596, -7.7035334673366549)	(0.56403899125569978, 6.7101377568863061)	(-7.2846702208223268, 2.454801998887941)	(1.8776169278057022, -5.7652993598155842)	1.0	slash	0.936318
25	M	B	A	N	N	B	A	M	N	8	3	shapes	N	0	True	45	(-1.7783748159908104, -4.0111351371730404)	(3.6032251902617496, 2.7208467136526551)	(-5.6721556243766447, 5.4060752364792428)	(7.5105201437466427, -0.39719208251991134)	1.0	slash	1.20172
26	N	A	B	A	N	M	M	B	M	8	7	shapes	B	0	False	45	(6.0927770815662416, -5.5837612135707015)	(-3.0643815056734214, -5.8984462758339564)	(7.2099535629131442, 6.4497572375603482)	(7.2641458455703436, 0.73837715602146048)	1.0	slash	0.877555
27	M	B	A	B	M	A	N	N	M	8	7	shapes	N	0	False	45	(-0.27397834489447703, 6.8571967682672152)	(-7.1763282584690442, 5.5445752984639949)	(7.1137602944717244, 5.9726712688747448)	(0.13323283077408199, -5.2776352036257936)	1.0	z	0.883176
28	M	B	B	M					B	4	2	shapes	B	0	True	45	(3.5246494500077574, -1.8835452757192739)	(-3.1601926547884283, 7.2799714838533767)	(2.527086826486773, 6.5538273154092686)	(-1.2199897446882275, -5.2330975117238303)	1.0	z	1.86101
29	M	B	M	A					A	4	3	shapes	A	0	True	45	(6.5106922922845207, -8.178349577308305)	(-0.52445325084534922, 2.1197760704067328)	(-2.7056558491276999, -7.8134393754422202)	(5.810120363300264, 4.1491001601437922)	1.0	z	1.97038
30	N	A	M	M	A	N	B	B	A	8	5	shapes	N	0	False	45	(6.2091882114279819, -6.7608357629408156)	(7.5078461304577253, 0.0025994731804335203)	(-2.6977984942711766, 7.1516542870696966)	(-8.5269915846949331, -7.6895452982898593)	1.0	slash	0.997911
31	N	A	B	M	N	A	B	M	B	8	0	shapes	N	0	False	45	(4.7765736861152241, -5.5305412276505912)	(2.665622767575357, 3.4482234299665357)	(-0.83027161142188088, -3.2486929594033542)	(-2.9168417631923482, 8.6516169440661308)	1.0	slash	0.92326
32	N	B	B	A	N	M	A	M	N	8	4	shapes	N	0	True	45	(-2.1422618954959871, -1.1918350686468653)	(-6.2800905338068205, -8.5788395673827917)	(4.2033640021513214, 5.7679329059423861)	(-6.2518434883085963, 2.1345309245502282)	1.0	slash	1.15901
1	N	A	N	M	A	B	M	B	M	8	4	shapes	A	1	False	45	(4.0291804702934755, -1.4133012720209503)	(-5.9488287551387389, -2.1248898093305852)	(6.8523477814773184, 7.9979968314772059)	(-5.5060361899913071, 4.5053721487302578)	1.0	slash	0.830706
2	M	B	B	A					B	4	2	shapes	B	1	True	45	(-8.0334214240667752, 5.1999649281929834)	(-5.6777223392450331, -8.0159002597538986)	(1.5848792178887567, -1.1432913889318836)	(7.236312733263377, 0.31127110889814702)	1.0	z	0.698396
3	M	A	B	B	M	A	N	N	M	8	0	shapes	M	1	True	45	(5.3616312773510639, -5.5751398312958838)	(-3.949096979233528, 4.0681480264347645)	(-3.2496942309044732, 8.1481488075860433)	(1.0700917827197873, -2.2047899638733481)	1.0	z	1.69202
4	M	B	N	A	M	N	A	B	M	8	4	shapes	M	1	True	45	(-0.45671378136584018, -2.0003432360410525)	(-2.5922077834113075, -6.7927648414681254)	(-2.7765757878839716, 3.5138445150381887)	(6.7451935087935855, 7.7599745181927382)	1.0	slash	1.14964
5	N	B	A	M	B	M	A	N	M	8	1	shapes	B	1	False	45	(-2.7236896372641732, 2.8394012255250551)	(6.5184492442786937, 4.8213997380760159)	(1.384516412207919, 2.7598285580116588)	(1.3899784268732134, -6.3238768056624322)	1.0	slash	1.35934
6	N	A	A	M					A	4	2	shapes	A	1	True	45	(-1.6837312700567786, -7.2363062835522687)	(6.2296827908045422, -8.6084738368956533)	(-3.4194944891647001, 8.6061472516298636)	(6.0854149330662235, 1.1436964366586579)	1.0	z	1.24882
7	N	A	B	B					B	4	0	shapes	N	1	False	45	(2.5387113012145885, 2.6381458532071758)	(-7.608164734606909, 6.3385675562364732)	(6.4992846266723205, -4.4801471141628406)	(-4.5445512686097516, -6.1669511893144406)	1.0	slash	0.872465
8	N	B	M	A					B	4	1	shapes	B	1	True	45	(-2.2458518302008397, -3.9138899557087052)	(-2.7949409277387884, 6.4209676337889814)	(2.999486800389068, 4.000770887530674)	(3.0035324768708573, -4.5286870786416538)	1.0	z	1.30803
9	N	B	B	M	M	A	N	A	M	8	3	shapes	M	1	True	45	(-4.5346362800745981, 1.9853526518175357)	(-1.6698782917030188, 6.3846445297536505)	(-4.4097008409859741, -5.4073306155081138)	(2.9089620487128229, 1.5667138568001029)	1.0	z	0.931819
10	M	A	B	N					N	4	1	shapes	A	1	False	45	(5.0486760606543157, -0.23160836407350516)	(-6.675837940011685, -2.9323041641984133)	(1.7352796733762599, 5.7906465335620858)	(-3.2247430379629876, 3.4835898663613385)	1.0	slash	1.27507
11	M	A	M	B	B	A	N	N	M	8	0	shapes	M	1	True	45	(1.0675855672855867, -4.2093453722251111)	(-2.1233505414247347, 7.5795074504288138)	(-5.1585446902916097, -0.42628820615085949)	(6.082795767097025, -0.7301699993323858)	1.0	z	0.777153
12	M	A	N	B					B	4	3	shapes	B	1	True	45	(7.8875415333772239, -5.6145807272391632)	(-2.8253519520723298, -4.124479250620162)	(8.3737197799591421, 5.1458991813173665)	(-0.87632148179670821, 2.4619099417987993)	1.0	slash	0.966615
13	M	B	A	N	A	N	M	B	M	8	1	shapes	B	1	False	45	(5.5349132222064554, -2.9160947440531269)	(-2.6329681978263322, 2.9613496035353268)	(-1.4223758048904722, -8.0746843637121444)	(4.360071310404571, -7.7480714649140907)	1.0	slash	0.850205
14	N	A	A	N	B	B	M	M	N	8	3	shapes	N	1	True	45	(-2.5871933944410479, -3.3694843494109836)	(-8.6982813757566788, -6.9028368461214882)	(-1.4565601366756189, 4.8088459474611778)	(8.1564827125293391, 6.3536443824549735)	1.0	slash	1.1162
15	N	A	A	B	B	N	M	M	M	8	7	shapes	M	1	True	45	(-5.7207095931453873, 3.8649731625609167)	(-0.88031267619296649, -1.9151174276992915)	(6.8588235153055646, 6.926155423636942)	(-0.9767344866551646, 3.5353110714199758)	1.0	z	0.815701
16	N	B	A	M					N	4	3	shapes	M	1	False	45	(0.71198117869985111, -3.84448209413807)	(7.9307118452090606, 5.3218470526960342)	(-3.4946429360299289, -6.5351157245007689)	(-7.2107884147622023, 2.8696546826388243)	1.0	z	3.26318
17	M	A	A	B					A	4	2	shapes	A	1	True	45	(-0.99546527844362753, 7.6348599936660904)	(-6.5306361733906142, -5.7237071496059713)	(3.4810856628765574, -1.4327595464829486)	(0.30659507320679857, 1.4280426342285573)	1.0	z	1.90082
18	M	A	M	B	N	A	N	B	N	8	6	shapes	N	1	True	45	(3.8681751764763082, -3.0860937010635974)	(-6.8070024739331014, -7.6036915129823575)	(5.7917471789323347, -8.6594278593870389)	(-8.7177058379794605, 5.4898155945701479)	1.0	slash	1.2683
19	N	A	N	B	M	A	B	M	B	8	6	shapes	B	1	True	45	(0.95469932456509987, -0.57101750364992299)	(-5.7921474867268792, 5.0242580379277584)	(5.142244420707673, -0.029788126036075724)	(-5.2260944336499158, -5.9441522686559178)	1.0	slash	1.57999
20	N	A	B	N	A	B	M	M	N	8	4	shapes	A	1	False	45	(-2.5449489720337786, 3.8200318277904959)	(5.475682841206357, 3.3578286682200815)	(8.2087806547918731, -8.5416167390458924)	(-3.8442438515146975, 7.938835102812444)	1.0	slash	0.701606
21	N	A	A	N					M	4	0	shapes	N	1	False	45	(8.5307926723177054, -6.7737479282489996)	(-0.041453465359989394, 1.0148988691755658)	(-5.4734287445259362, -2.3331380288011019)	(2.8782538156191499, 5.3457277746291432)	1.0	z	0.955158
22	N	B	A	N	B	M	M	A	B	8	3	shapes	N	1	False	45	(1.22612897801943, 4.8898116949068751)	(-3.2906056911234476, -6.9002208621595669)	(-7.6778751161742846, -8.3072074993676512)	(7.8564226824092458, -6.5448309436272085)	1.0	slash	0.754955
23	M	A	M	A					M	4	0	shapes	M	1	True	45	(-3.4190005095660894, 2.8094817517456026)	(-1.8220785898163383, -3.4760905140424301)	(1.0385990996373717, 3.8553980417961071)	(1.1265798920850347, -0.53378356644346603)	1.0	z	0.870365
24	M	B	A	B	N	A	N	M	A	8	6	shapes	N	1	False	45	(2.3293167254630998, -2.5987591646999553)	(1.0145182933555006, 4.5461584701185025)	(0.17598812213467419, -7.1619382225014574)	(-7.5307327656939149, 5.4078092493806853)	1.0	slash	1.0442
25	N	A	A	B					A	4	1	shapes	A	1	True	45	(8.0515141174808988, -0.29495347003434347)	(2.1407623685291579, 0.77775869909024564)	(-7.4340542815687343, 6.9069986971505717)	(-7.9996511563221899, -0.74510649936334339)	1.0	slash	0.637975
26	M	A	N	B					B	4	3	shapes	B	1	True	45	(8.6153180900081381, 2.1506578721577974)	(-5.6874062473024001, -5.8866600681663126)	(-8.6474126884609035, 7.7168290402746216)	(6.6004147387219714, -8.3455407391592544)	1.0	z	0.8313
27	M	A	A	M					M	4	1	shapes	A	1	False	45	(-4.037610647319644, 6.2428291146438397)	(-2.935891614321033, -3.506086196481693)	(5.7415470898140413, 6.49379048059747)	(8.2633064132563767, -8.6336120746070275)	1.0	slash	1.05092
28	M	A	B	A					N	4	0	shapes	M	1	False	45	(-0.30340873480794528, -4.9845259422585571)	(2.055941982229772, 4.3695505588668127)	(-4.8054066208402979, 4.5003912110337403)	(4.6146406137383664, -0.86200086261157338)	1.0	z	1.78676
29	N	A	M	N	M	B	B	A	N	8	4	shapes	M	1	False	45	(2.7673240915593436, 0.2075233381637176)	(-0.4150320667108236, -8.2399890615277815)	(4.9981925770658595, 6.9652044873067336)	(6.1839345226983404, -6.2978980541617515)	1.0	slash	0.906037
30	N	A	N	M					N	4	1	shapes	A	1	False	45	(8.2164691131832583, -6.7990371268547403)	(-3.9247690271984377, 6.2739980962873219)	(4.0246451633804767, 7.6000221418707987)	(-2.338931192637153, -7.0721218428704464)	1.0	slash	0.855915
31	M	B	A	N	N	M	A	B	M	8	2	shapes	A	1	False	45	(0.68232106818535954, -8.4884638789380009)	(-5.8753108819729629, -7.6688545570073918)	(2.909640436030136, 3.0718695768702258)	(-3.2770085118040821, -1.8145631763352599)	1.0	slash	1.65764
32	N	B	M	A					A	4	0	shapes	N	1	False	45	(8.1542505435431103, -8.624986646472788)	(-6.2856757574963149, 5.5990927432669899)	(1.697898588511789, 0.6573460685123429)	(-2.3563226711449365, -4.1461988686206945)	1.0	slash	0.91122
1	M	A	M	B					M	4	0	shapes	M	2	True	45	(-0.73919999552832572, 8.2284362734589251)	(1.1797003537646074, 2.7347736500517215)	(8.5003655198747907, -5.3001914013648026)	(-6.5332319794265992, -0.87050129510989116)	1.0	z	0.686752
2	N	B	B	M	A	A	N	M	M	8	4	shapes	A	2	False	45	(1.7131651043963956, -7.0656200214724931)	(-6.8717910642700861, -5.158214524360309)	(-7.1595144903016799, 6.1348559867342374)	(3.7593227758586849, 3.2251323034803132)	1.0	slash	0.698609
3	M	B	A	B	N	N	A	M	B	8	2	shapes	A	2	False	45	(2.4421988815109668, 0.28600534519007681)	(-0.37326112729313543, -6.424433545241568)	(-3.7431900725967528, 1.0509355516871182)	(0.38538208168470867, 5.6535655671119027)	1.0	z	1.65215
4	M	A	B	A	B	N	N	M	M	8	7	shapes	M	2	True	45	(1.5320187119227313, 8.1768770346283262)	(-8.0065770875722482, 8.3275126458794801)	(0.25730509297229176, 4.2756827462835876)	(0.46685002129371611, -8.1426251179721376)	1.0	z	1.73375
5	N	B	B	N	A	A	M	M	M	8	3	shapes	N	2	False	45	(-0.079546534028535731, 3.0980485826546662)	(0.72264421785755317, -0.89669027007739555)	(4.2868427752722944, 4.9751282070273977)	(-3.1996916053881579, -3.4363535665249687)	1.0	z	1.80735
6	N	B	N	M	A	B	M	A	N	8	2	shapes	N	2	True	45	(-2.1744490684217102, -0.64526564597857217)	(-8.2122483277513059, -4.1548290511526575)	(8.5361538059938269, 1.3994444127984202)	(1.1270346401576035, -6.7446919307003199)	1.0	z	1.09099
7	M	A	N	B					B	4	2	shapes	N	2	False	45	(2.1923920617012556, -0.47620592610754642)	(8.1164085859920938, 0.87431672837637464)	(-3.5332768647092934, -6.4324543870732924)	(-0.49801324119410673, 6.3623394253785097)	1.0	z	2.62646
8	M	B	N	M	N	B	A	A	M	8	1	shapes	B	2	False	45	(0.00074039915392631883, 5.9888884785995717)	(5.6995740873676954, -7.8196432932489506)	(0.059470260147511667, -6.3708629127429264)	(-1.0770858758615711, 0.80475006570888397)	1.0	slash	0.84807
9	N	A	A	M					B	4	0	shapes	N	2	False	45	(8.0857210704251017, -3.807494480728197)	(2.9872762822777279, 2.5138430449111215)	(-4.4989501221160193, -3.0542511315639631)	(-5.8634126347900342, 5.1289864871898097)	1.0	slash	1.0397
10	N	B	M	N	A	A	B	M	N	8	7	shapes	M	2	False	45	(-2.3063470607447325, 0.29771895492037537)	(5.2180459053378314, -3.7421452721655459)	(6.4446719948882603, 0.72846397310789079)	(-4.7468070235398576, 4.4106293130182674)	1.0	z	1.54716
11	M	B	A	M					A	4	2	shapes	A	2	True	45	(-3.3228397119202606, 4.9966179644191868)	(3.1413713086033539, 3.8494662139684781)	(3.3522044879658903, -4.816801372272467)	(-7.1102643097735072, -4.2764112210179483)	1.0	z	0.822806
12	N	A	A	M	N	B	M	B	A	8	5	shapes	B	2	False	45	(5.8235288460428976, -7.2148670479089283)	(-5.4747937598291241, -8.573449190043295)	(-4.5621451528642645, 8.5132325158705022)	(0.48264252063292545, 1.5618291375442368)	1.0	z	1.24665
13	N	B	B	M					N	4	0	shapes	N	2	True	45	(6.3695786236161247, -7.4674943390066515)	(7.5066143910670746, 0.063993425820896732)	(-6.8416527507524068, 5.6761769954123693)	(-2.4325590995708257, -5.043920201926209)	1.0	z	0.928207
14	M	B	A	N					A	4	3	shapes	N	2	False	45	(4.1473896020703958, -4.3874126764736427)	(-8.3745376208578737, 2.0647329464409072)	(8.4166606698774942, 0.79684011902613427)	(-0.5991975172312074, -8.100912962415304)	1.0	slash	1.48971
15	M	A	B	A					N	4	2	shapes	B	2	False	45	(7.5554794089741044, 4.0189869679266117)	(-6.6976737054892181, 2.0225475415793852)	(-8.5331007319172052, -6.8957048207659906)	(5.3445561114877602, -2.4722664192226338)	1.0	slash	1.1456
16	M	A	N	M	A	B	B	N	B	8	6	shapes	B	2	True	45	(-0.89482273695197634, 0.5756523637935782)	(-4.4156692479642299, -8.6787838348809316)	(-3.6089470742046332, 6.7076051944106663)	(1.2784297863519374, -7.5235885747439761)	1.0	z	1.21709
17	M	B	N	N					M	4	0	shapes	M	2	True	45	(3.297534188321924, 6.2293612051130083)	(-7.6572363933123455, -6.9150737764321031)	(-7.5348514671957165, 2.7042373550846914)	(6.3069534419055699, -1.3583777084276942)	1.0	z	1.04085
18	N	A	N	M					M	4	3	shapes	M	2	True	45	(4.4986468231486612, 1.56868137289214)	(-8.6075545874965051, -4.474308522189876)	(-4.9313923680974838, 4.1023089725503521)	(6.9765921763316072, -8.4399269351940287)	1.0	z	0.778401
19	M	B	B	M					A	4	3	shapes	M	2	False	45	(-3.1233985546307705, -7.5661922966278707)	(-4.3658494217403501, 7.5620026483947242)	(4.3265556268213619, -7.4341246420026357)	(0.65253555720869194, 0.8098499313124421)	1.0	slash	1.07201
20	M	B	M	A	B	A	N	N	B	8	4	shapes	B	2	True	45	(5.5607081068399733, 3.1168485520193236)	(6.0779383074756339, -1.733806868646087)	(-2.1018950773614726, -5.1158707834731763)	(-8.426528833427458, 5.3629264816352418)	1.0	z	0.749556
21	M	B	A	N	A	M	N	B	A	8	4	shapes	A	2	True	45	(-2.6544511779886992, -1.9324945289781752)	(5.6100449746369225, 1.8383823348624091)	(-2.1547160611820635, 6.6338962920406974)	(-5.5862236788535249, -7.8865539068977411)	1.0	z	0.701368
22	N	A	M	N	A	B	B	M	M	8	1	shapes	A	2	False	45	(-5.5491691342405556, -6.4710556092331499)	(-1.4973156554714535, 6.3474343496130228)	(5.7309921530498276, -3.1237678338657142)	(-6.1469040563208219, -0.96988492648115709)	1.0	slash	0.701155
23	N	A	M	B					B	4	3	shapes	B	2	True	45	(-5.9449473262257388, 1.6830552360200901)	(2.6366226209015213, 6.8836956044199606)	(0.81521490942078856, -2.8180707429840695)	(-3.9238306084841108, -1.8954283371655158)	1.0	z	0.690577
24	N	A	N	M					N	4	2	shapes	N	2	True	45	(-4.1058794263465765, -1.0586435935863188)	(0.19090204888245133, -8.7324256336936816)	(-4.3721041698411307, 4.064097086999606)	(1.7997853816089222, 7.3600628241027408)	1.0	z	0.682204
25	N	B	N	A					B	4	3	shapes	A	2	False	45	(-5.409205379821449, 7.7167504418268607)	(6.3485453235352143, -7.2809149165676716)	(-0.45803146843521247, -1.6666353106127731)	(3.2024406586590164, 6.241572314822724)	1.0	z	0.796002
26	N	A	A	M	M	B	N	B	A	8	1	shapes	A	2	True	45	(-5.5769774022211038, 7.6906789520214716)	(3.8772548068951256, -1.8140109596130198)	(-8.3948892420901569, 4.394550016828406)	(3.5417768762134436, 5.5595519472153256)	1.0	z	0.889715
27	N	B	A	B					M	4	0	shapes	N	2	False	45	(-3.5621217553439291, 6.2815452367574895)	(4.1492442633158433, -2.0124668567707706)	(6.5450989873794612, 3.7081441707404217)	(-0.60961801125633208, -6.4378024639342062)	1.0	z	0.985271
28	N	B	M	A	A	N	M	B	M	8	6	shapes	M	2	True	45	(5.132071548626028, 8.5504693269195009)	(2.3729197017732435, -1.6176029091207687)	(7.1309971412285513, 3.0632603766544371)	(-5.8711956017816167, -0.090792122695811273)	1.0	slash	1.12089
29	N	A	B	M	A	B	N	M	A	8	1	shapes	A	2	True	45	(-2.9787032509361104, 5.4054396877903468)	(8.1034110695565857, -4.4251863032852139)	(6.9418527553925014, 1.0453447161935436)	(-8.1172731518750236, 1.4044832543812227)	1.0	slash	1.82048
30	N	B	A	A					A	4	3	shapes	A	2	True	45	(-6.493449531376049, 5.121948593129062)	(4.4792912244527319, 1.068699954321378)	(5.5122422945300062, -8.5382317795691485)	(-6.4129047115562692, -0.57279028817477418)	1.0	z	0.801628
31	N	B	N	B	M	A	A	M	A	8	2	shapes	N	2	False	45	(3.0454722042300233, 5.8013173300819343)	(-6.1166130406905967, -0.51799910194929311)	(4.4380907943865022, -0.96321570394084688)	(-6.4038062583868243, 7.8390199877740763)	1.0	slash	0.725725
32	M	B	A	M					M	4	2	shapes	A	2	False	45	(-0.039074735432219398, -1.7560525296394447)	(-2.9083699203740832, 6.9798040181396868)	(6.9090674301137955, 2.6619010594692156)	(5.1405720570508713, -1.003961253098411)	1.0	slash	0.799438
1	M	B	B	M					N	4	0	shapes	M	3	False	45	(5.4069092306776838, 7.4858985742496635)	(-1.5996148364841325, -8.0347867193744555)	(7.5786958356577827, -4.1887537315298875)	(-5.6089267073762628, 8.2241940013626937)	1.0	slash	0.819042
2	M	B	N	A	M	N	A	B	B	8	7	shapes	B	3	True	45	(1.1217843958464542, 0.83871877611088763)	(6.3293577308338271, 7.848219983322732)	(5.6494715233286499, -1.0085611844377125)	(5.5479639746103881, -7.9040037086798609)	1.0	slash	1.1727
3	N	A	B	N					M	4	0	shapes	N	3	False	45	(-7.5546441207071409, -1.5955582477754069)	(0.86112267890596605, -7.8671149378251828)	(3.7209408078650963, 3.4500244515600968)	(-7.905242419450734, 8.4363602161150482)	1.0	slash	1.32433
4	N	B	M	B	A	A	M	N	B	8	1	shapes	B	3	True	45	(-0.99280225188717264, -0.14421036308048585)	(8.0024178012594689, -4.7105081231810226)	(-4.8884068859791361, -1.8243177000436086)	(6.3573505926481264, 5.2542231511818844)	1.0	slash	1.47199
5	M	A	M	B	N	B	N	A	N	8	5	shapes	B	3	False	45	(2.3932501749936446, 5.4270050495819753)	(8.4283783116923559, -1.5778937932360275)	(5.0584358653184776, -5.9327168751629742)	(-7.0927774414059543, 8.3514981791934808)	1.0	slash	1.25352
6	M	B	M	B	A	N	N	A	M	8	5	shapes	N	3	False	45	(4.1180473891236762, -4.609360067924487)	(5.4101181831698533, 3.5468949646915053)	(-6.2783971324804941, -0.1786870429466223)	(-3.5771309825436939, 7.1222043597005467)	1.0	z	8.97505
7	M	A	A	B					B	4	3	shapes	B	3	True	45	(4.920622255477344, 1.295880054949091)	(-8.0875529723260851, 7.4080670918618452)	(-5.9999305415589337, -2.796074773984417)	(8.1693940690963167, -1.6262313947458118)	1.0	slash	1.10219
8	M	A	M	A	B	B	N	N	B	8	4	shapes	B	3	True	45	(0.39323507758333243, 1.3534044329258066)	(1.0470243317331249, -6.721861366894732)	(8.1965532097194718, -3.3701346801011836)	(-2.4199134885503177, 7.5626089747133811)	1.0	z	1.02186
9	N	B	B	N					M	4	3	shapes	N	3	False	45	(5.2544549570468604, -6.6385359408501809)	(-4.051836716815683, -7.6185756409005361)	(7.9096488866604311, 3.5547477801542371)	(-3.7954305822631937, 0.62963077530049816)	1.0	slash	0.659424
10	M	A	M	B					A	4	1	shapes	A	3	True	45	(-4.1374106005378977, 2.9518715766596273)	(4.5795344540777378, -4.3361082965204609)	(-6.9946504838348744, -4.8386679698615023)	(0.48639487456736497, 2.6342877497278838)	1.0	slash	1.93713
11	N	B	M	N	B	M	A	A	N	8	5	shapes	M	3	False	45	(4.4500979841708013, 7.7286667543945313)	(-1.7688806213159856, 4.4460022938310644)	(-6.0068262873418696, -6.8413481729459003)	(4.8811841901802264, -6.5127308004240057)	1.0	slash	1.41874
12	N	A	A	M	N	B	B	M	B	8	2	shapes	A	3	False	45	(-0.45468717292468241, 1.4025203528099848)	(7.9082874969323953, 6.2743540564067857)	(-5.0583186650186445, 0.5580229172492146)	(8.2081911214001657, -4.9056173322147192)	1.0	slash	0.836195
13	M	A	B	B					A	4	1	shapes	A	3	True	45	(-4.6581849115124028, -7.4640798228190279)	(-1.5164324707694421, 0.8529453529066533)	(4.3555838797605073, -7.3521684574924242)	(2.5419222859344188, 7.3675736328212373)	1.0	z	0.791832
14	N	A	A	B					B	4	3	shapes	B	3	True	45	(2.0155793281841241, 7.5835070691800368)	(-0.9851097821271404, 1.2129756213620997)	(8.0090989059652706, -0.53228545686502926)	(-0.76910211115201843, -2.9885052887520125)	1.0	slash	2.77137
15	N	A	N	B	B	A	M	M	B	8	3	shapes	B	3	True	45	(8.1220733196762929, -4.7979320083520616)	(-3.2716160577123867, -7.8647038195720276)	(-2.4904546747071672, -0.86876521869451118)	(-5.2992895910439675, 5.3342180897031355)	1.0	z	3.62089
16	N	A	A	M					M	4	3	shapes	M	3	True	45	(5.017562257893422, 5.5196421764302261)	(-6.3206633216489205, -4.4727611872862951)	(-5.2298176412920103, 1.8781046756556581)	(3.6055755964353988, -6.4830457365171288)	1.0	z	0.930416
17	M	A	A	M					N	4	1	shapes	A	3	False	45	(7.6263348306817704, 7.1234144836710094)	(-5.1456425577871281, -5.6529162127117072)	(2.0398565802533639, -4.5336285088176256)	(-7.5108908224576529, 2.1799426965491726)	1.0	slash	1.0982
18	N	A	A	B	M	B	N	M	M	8	4	shapes	M	3	True	45	(4.0648594082993661, 6.3805088609987681)	(1.0386557528235532, -0.3024373586816651)	(-7.7693853258935244, -7.9622642738907494)	(-3.9391521804342249, -3.7998362530757754)	1.0	slash	1.37164
19	N	B	M	M	A	A	N	B	B	8	2	shapes	M	3	False	45	(-8.139827814331964, -8.3797187552974286)	(6.4673221387800126, -5.7705577612244658)	(-5.118033802588041, -0.2867739433561507)	(2.0323382542989137, -7.2489672740558877)	1.0	z	2.1015
20	M	A	B	A	N	B	M	N	N	8	4	shapes	N	3	True	45	(0.15510530958093227, 1.5251924686436364)	(2.2902996053382623, 4.9184327145030515)	(-8.5659610594141817, 0.59347050447974325)	(5.6655282399352522, -3.3772596702158735)	1.0	slash	1.19695
21	M	B	N	M					A	4	3	shapes	M	3	False	45	(-0.061546117963082736, -2.1205291249318901)	(8.5311388546264624, -3.9482881821678477)	(-4.264015292831643, 2.5674175790066123)	(5.9063876933557289, 0.75643383575281753)	1.0	slash	0.776625
22	N	B	N	B	M	M	A	A	B	8	3	shapes	B	3	True	45	(5.6261670739759051, 4.3289237156151525)	(7.9159280641356595, 0.046445248371677295)	(-2.7988128302631949, -6.0716366221263725)	(-8.324761711677878, -6.9947075140417789)	1.0	z	0.930326
23	M	B	M	A	N	A	B	N	A	8	1	shapes	B	3	False	45	(8.1933994176651126, 6.9149168282828626)	(3.2451724952012544, -6.9469041197940333)	(4.0755645654581603, -0.74285252283022807)	(-5.7046833858476145, -6.297796751102644)	1.0	slash	1.67788
24	M	B	A	A					A	4	1	shapes	B	3	False	45	(5.434580491880908, 0.98530460921519492)	(7.143523834865487, -2.9227081446565597)	(-0.73717477601511661, -3.8847630098985535)	(-6.0410313567915495, 3.213941578622336)	1.0	slash	1.51951
25	N	A	A	M					A	4	2	shapes	A	3	True	45	(4.3948575852019012, 5.9457624162599441)	(-5.9703958710854348, -1.523968948861584)	(0.55514670749587225, -0.08591812420265299)	(-6.5854144834316033, 5.7565632019698771)	1.0	z	0.609086
26	N	B	B	A	N	A	M	M	M	8	4	shapes	N	3	False	45	(-1.1585813705145656, -0.96062587340239158)	(3.6635417168192745, -6.549152991112642)	(-5.4063685051181185, 1.0818515814149148)	(-0.02663077296899985, 3.295895798522837)	1.0	z	1.83667
27	M	B	A	A	N	N	B	M	N	8	0	shapes	M	3	False	45	(-2.1753872490614548, -0.54972989644731562)	(-1.5945749909181801, 8.7155791874322119)	(-0.91142139872273287, 3.9078057251304052)	(6.9515976456693291, -0.18369396541388738)	1.0	slash	1.40237
28	M	B	A	N					B	4	2	shapes	A	3	False	45	(8.2044297068318386, -7.6419484648790315)	(-2.4970776793621843, -7.7870845725925211)	(-3.0475009992482143, 1.902071610683354)	(5.6611697821557314, 2.7238208417530156)	1.0	slash	0.924071
29	M	B	N	N					M	4	1	shapes	B	3	False	45	(3.6536113358199618, -1.1955621040392979)	(-7.6436033903750813, -2.1609991368912835)	(7.0103375563726047, 1.8486055733336713)	(-5.9800651138548435, 5.4028883248204274)	1.0	slash	0.797534
30	N	B	M	B					B	4	1	shapes	B	3	True	45	(-4.2210409012979895, 7.9315183800641975)	(0.24981077373273841, 6.4879877645941288)	(-0.21837418548615695, -3.1885358427241668)	(3.8761443245359892, -4.4731985587587761)	1.0	z	1.12735
31	M	A	M	N					N	4	3	shapes	N	3	True	45	(-3.8783476500204177, 0.80468185010380999)	(5.1922445099857395, 3.0382288541331413)	(-4.1196392356743115, -4.1908323871709783)	(7.9765110348547239, -3.6926902604625749)	1.0	z	0.792855
32	N	B	A	B	A	N	M	M	A	8	4	shapes	A	3	True	45	(-3.9218639698768749, -4.7418069275440367)	(8.083561861894875, 2.2372578337444029)	(-7.9302009499617485, 5.4921736629407949)	(-2.6290119199637347, 0.67784467985045715)	1.0	z	0.830455
1	M	B	A	A					N	4	3	shapes	A	4	False	45	(5.8472466639443041, 2.6505542106448985)	(-5.0165201708563005, -3.2226982171551279)	(-3.3415284741382836, 2.4917316609479272)	(6.8606667420023069, -3.0673732914905214)	1.0	slash	0.446173
2	M	B	B	N					M	4	0	shapes	M	4	True	45	(2.3655366958236392, -6.4040536023921586)	(-8.1684328669150297, -8.6591325209583747)	(-3.2726178234130181, 5.4129638826389588)	(0.96231886482656037, 3.6269786011446961)	1.0	slash	0.391797
3	N	B	N	B	A	A	M	M	M	8	1	shapes	B	4	False	45	(2.3116646285152154, 4.9821606120200546)	(-6.5634046817205594, -5.3807108318345955)	(-2.2154994818032243, -0.41712035915306345)	(6.2165626269760121, -0.58435680564745418)	1.0	slash	1.03743
4	M	B	A	N					M	4	0	shapes	M	4	True	45	(-7.5687380455160138, -7.2088414899700375)	(4.6039114250457089, 5.0252280531307747)	(-4.1305856453059402, 2.8546729092340506)	(4.5840521228408573, -7.0537183802047405)	1.0	z	0.671119
5	M	A	A	N					M	4	0	shapes	M	4	True	45	(-4.4024473820256791, 7.0031270379555774)	(-8.7358102501749713, -1.8219230829678459)	(0.82518478884681912, 8.6281644073589803)	(4.155441130187663, -3.7606635178991024)	1.0	slash	0.666848
6	M	A	M	B	N	A	B	N	B	8	3	shapes	B	4	True	45	(-0.840068854621836, 6.1627314408630376)	(2.0094604415361328, -2.7632169187382951)	(-1.7890088598032161, -7.4669227669800771)	(7.2746949985106646, 1.6467827903926668)	1.0	z	0.738618
7	M	B	M	N					N	4	3	shapes	N	4	True	45	(-5.9852658643849379, -5.3267142925977478)	(6.3205947998882923, -2.9507897793318714)	(5.9015409053375123, 4.7009994979307788)	(-7.7558361346808962, 6.3686213033196228)	1.0	slash	0.968154
8	M	B	N	N	M	A	A	B	A	8	5	shapes	A	4	True	45	(-8.5675888059757597, 4.7235262847210322)	(-8.6234367021037563, -6.6650425577002217)	(1.628430642333722, -6.1963183982992529)	(4.3500096363484673, 2.2094142028531323)	1.0	slash	1.01967
9	N	B	N	B	A	M	A	M	N	8	0	shapes	N	4	True	45	(-7.7274330464255785, -3.7073053530426998)	(6.6355566353308575, -2.9075858933615883)	(2.0326944519294994, -7.9724944201907242)	(-0.04432056844392207, 4.6031253384255386)	1.0	z	0.621421
10	M	B	M	N					N	4	1	shapes	B	4	False	45	(3.0942354508210954, -2.1036023008888334)	(2.2753187395687036, 5.6027247211319793)	(-6.8601659273738615, 0.84341176247652783)	(-4.113529805018878, -7.4992975587913406)	1.0	slash	0.715082
11	N	B	B	M	A	M	N	A	A	8	5	shapes	M	4	False	45	(1.8316898395358834, 0.016122198614080929)	(-1.9955561575116167, 3.9404504249566727)	(-0.57486312628980762, 7.9701924999216054)	(-8.6233655877245585, -1.318114559031736)	1.0	slash	0.73671
12	N	A	M	A	N	B	M	B	N	8	1	shapes	A	4	False	45	(2.8502177461470612, 0.90920930205035511)	(-5.3731778479112062, -2.5717803325999293)	(6.53745821849202, -7.2061294414189527)	(-2.2252237507524599, 6.4183166727364629)	1.0	z	0.586345
13	N	A	M	B					N	4	1	shapes	A	4	False	45	(5.986179744533791, -0.73304097736923879)	(-0.90768324106455456, 3.7758157484645167)	(-3.6366231591253584, -7.5044028509786003)	(4.7476695388976538, 3.679621141772806)	1.0	slash	0.536038
14	M	A	M	A	B	N	B	N	A	8	3	shapes	A	4	True	45	(5.7689600812485367, 6.941234633097368)	(0.8045844102764903, 2.7338729397263428)	(7.4858762740782261, -3.4934267648606347)	(1.8748823279589395, -2.1496087307317282)	1.0	z	0.735602
15	N	A	M	N	B	B	M	A	M	8	4	shapes	B	4	False	45	(-5.5045115517078411, -1.5842347020018837)	(-1.4768451721585869, -5.783713279941348)	(5.1175574154015333, -7.8582201220487651)	(2.791360969019113, 8.1554697086172965)	1.0	slash	0.624698
16	N	A	B	N	B	M	M	A	N	8	6	shapes	M	4	False	45	(6.8310808265535243, -7.0077064969094049)	(-0.45974498041698197, 5.1630834575392104)	(-4.3486013852767131, -0.44875970056175873)	(-7.5427192356383586, 2.6030313495817641)	1.0	slash	0.497216
17	M	B	B	M	A	A	N	N	A	8	4	shapes	A	4	True	45	(-4.5732055703949763, 6.625819239396554)	(1.0167042477823784, 3.4670788520622526)	(7.9492669386790595, 5.8192054371195887)	(4.8013759369957576, -4.6957071810145541)	1.0	z	0.578808
18	N	B	A	M					B	4	0	shapes	N	4	False	45	(-7.7270414652231976, 5.5628054150246378)	(0.52185333860205496, 7.5411369937646491)	(2.0785605257578244, -2.680915484525757)	(-3.05012758328074, -6.3761071781330889)	1.0	slash	0.640282
19	N	A	B	A	N	B	M	M	A	8	2	shapes	B	4	False	45	(-4.3651224582819177, 7.8366117329574294)	(2.3668244801298286, -0.99459985884009683)	(7.4042389711424264, -7.4492324491206201)	(1.7484436876348148, 8.3136079144260222)	1.0	z	2.43015
20	N	A	B	N	A	B	M	M	B	8	5	shapes	B	4	True	45	(-3.5998282563045949, 3.3975428813946174)	(5.7071648246671689, 3.3672341149449299)	(-4.5151895601103362, 8.5270114758261712)	(4.4770918597044549, -2.4814901545213637)	1.0	z	0.853729
21	M	B	M	N					M	4	0	shapes	M	4	True	45	(-1.8421888935456376, 5.2320411129497764)	(4.0071300673615529, 8.0152194575155278)	(-1.3523646255182058, -4.2434469635187284)	(6.6815348615323416, -0.92203535320905772)	1.0	z	1.05312
22	M	A	N	M					M	4	3	shapes	M	4	True	45	(-7.6899938842910487, 7.653526957507772)	(8.6960140678577247, 8.6373991615142849)	(-3.2261832343627379, -4.6201816146307388)	(4.6074145631168051, -1.0831377324078844)	1.0	slash	0.508954
23	N	B	B	N					M	4	0	shapes	N	4	False	45	(-0.74852480487714423, 3.535875938887175)	(1.2544758485391885, -6.6826660899784462)	(-3.1235876260337676, -3.5085766588597975)	(8.6397772682319456, 6.7949532675568776)	1.0	slash	0.744627
24	M	A	A	B					N	4	1	shapes	A	4	False	45	(4.7086461319652582, 1.7052015267334326)	(-6.3365563226819779, 1.3630823978583457)	(1.6456773604309269, -7.1475880995972734)	(-7.7710013109287566, -8.0050295707676202)	1.0	slash	0.718194
25	N	B	M	B					A	4	3	shapes	B	4	False	45	(2.4079982547479943, -2.2390894029638453)	(-0.81542173780685001, 2.4138985817706597)	(7.2214124566275224, 6.7917552499388236)	(-6.5117783465227586, -4.5574457769245891)	1.0	z	0.455936
26	M	B	B	A					B	4	2	shapes	B	4	True	45	(-0.62610618050140943, -3.6184261624198628)	(-5.3122815831588373, 3.9918271929606171)	(5.7516543688134689, 2.4016619422688077)	(6.1205176680157276, -8.2700528472702377)	1.0	z	1.03167
27	M	B	B	M	N	A	A	N	N	8	5	shapes	A	4	False	45	(1.2662964697637769, -0.69099846816426336)	(-2.3697189235373646, 3.448634664900414)	(6.5411810219636983, 1.0535364281851152)	(-0.72191183217681498, -4.6833451996495299)	1.0	slash	0.669328
28	N	A	B	N	B	A	M	M	M	8	7	shapes	M	4	True	45	(-6.045716483826256, -8.7217876838532629)	(1.1590889421014037, -2.2969708559683006)	(5.7291498914136554, -1.5237045452248852)	(-0.59263201225171969, 4.9755993871229443)	1.0	z	0.732911
29	N	A	A	N	B	B	M	M	N	8	0	shapes	N	4	True	45	(2.3198212690212436, 3.5900629870064655)	(-3.0101518604313453, 8.1508605108246996)	(6.4741174221963647, 2.9128094431494436)	(-2.4420508911435421, -1.5815600070655451)	1.0	slash	0.910394
30	M	B	A	A					A	4	0	shapes	M	4	False	45	(-2.094965899225107, 4.3641237887114404)	(-0.54992660202885091, -8.0533694660758712)	(6.331637281018363, 0.43199956793179162)	(2.9307274795896774, -4.8926000826853926)	1.0	slash	0.666228
31	N	A	B	M					M	4	3	shapes	M	4	True	45	(7.1817109824286867, 2.4773907401257649)	(-2.6817303681151152, 7.8550558538059754)	(6.5431641440973962, -3.2451383030983756)	(-3.2026838096158512, -6.0375291315529696)	1.0	z	1.00799
32	N	B	A	B	M	N	M	A	B	8	0	shapes	N	4	False	45	(8.4291842662333067, -4.7696705525041008)	(3.2061748973948418, -2.4566903090905514)	(-4.171173074558884, 1.8000022365426336)	(-3.7731036089020185, -3.8519616072752019)	1.0	slash	0.547428
1	M	B	M	A	A	N	N	B	N	8	6	shapes	N	5	True	45	(7.6904721851405817, -4.8585782274821447)	(-6.0975434771662229, 0.17331771346295355)	(2.7710094548579427, -6.2459346152147219)	(7.0869598890174732, 5.2842780216156324)	1.0	z	0.653318
2	M	A	N	M	N	A	B	B	A	8	1	shapes	A	5	True	45	(-5.5637091019705398, 4.5766085758096757)	(0.30136818316308478, -8.2725663102190019)	(5.623200287091402, 0.34384339459073132)	(7.6314117876261136, 7.6583557668440925)	1.0	slash	0.526816
3	N	B	A	N					M	4	3	shapes	N	5	False	45	(-3.4483624598665816, 1.736024398927249)	(4.2373218300805409, 1.6925839462080194)	(1.1263402360000985, -6.4125430456176717)	(-8.7222376693323973, -5.7588182777485235)	1.0	z	0.752381
4	M	A	B	N	A	B	M	N	N	8	4	shapes	A	5	False	45	(-8.6534292525392242, -4.8701402955768911)	(-1.8162591684078135, 5.4271571619372061)	(3.6790614240472994, 0.069942496257148434)	(-4.0522074964789443, -2.9548925713270613)	1.0	slash	0.678278
5	M	B	A	A					A	4	3	shapes	A	5	True	45	(4.8272633124219375, -6.20830917296297)	(-1.3130187577510855, -6.2832494786590871)	(2.1473222305704081, 3.8528140949620013)	(-8.3253410588628114, 0.076781582162460893)	1.0	z	0.599803
6	N	B	M	A					N	4	1	shapes	B	5	False	45	(3.1137220126572611, 5.0149825214881592)	(6.9531756326584429, -7.4638946881465369)	(-0.62911826315638031, -8.5010423105015711)	(-2.4504276422504114, 0.24172446990784202)	1.0	slash	0.649506
7	N	B	B	A	N	A	M	M	M	8	7	shapes	M	5	True	45	(-5.980565450181814, 8.5461461485999521)	(-6.4200332799032633, -5.6565777328501108)	(4.2613009683414429, 1.1014601204816739)	(3.7740221023161489, -4.1142258113281391)	1.0	z	0.709218
8	M	A	B	N					N	4	3	shapes	N	5	True	45	(2.9219291473018565, 0.0030828631212997948)	(-6.051972930459991, -1.1065986770521015)	(-8.0904014275126936, 6.5607354684017736)	(0.11814780079523501, -7.006348553607876)	1.0	z	0.544865
9	N	B	A	M					A	4	0	shapes	N	5	False	45	(-7.9093590032006302, 1.3743823390998706)	(-0.10851279945234005, -8.2523287916050787)	(1.9407761952204563, -2.9724766536466207)	(7.626757150258765, 7.2741796937716714)	1.0	slash	0.734558
10	N	A	B	A					A	4	1	shapes	A	5	True	45	(7.8197540139992867, 5.5196357360857782)	(1.8317081233963055, -6.7200953249679927)	(-1.1564198418863212, 0.24056754701182115)	(-7.2942539245232876, -1.9910065849928369)	1.0	z	0.582048
11	N	B	B	N					N	4	0	shapes	N	5	True	45	(-6.7239298844085722, -4.83334751328929)	(-1.0998177829424165, 0.87297708299953314)	(5.6279169563914895, 2.1834495226304611)	(0.030956052910422471, -3.0288937697772456)	1.0	z	0.419805
12	N	A	B	A	N	B	M	M	B	8	5	shapes	B	5	True	45	(6.9138110110447464, -7.4269448886066582)	(6.336572136555402, 1.0289398362928939)	(-5.6719074712737036, 4.6656346914059643)	(-4.3741005659913519, 0.85279347322998156)	1.0	z	0.629492
13	N	A	B	M	N	A	B	M	M	8	1	shapes	A	5	False	45	(-0.67079320901312478, 5.4194462788017645)	(-0.82029394779094389, -0.64192235732908998)	(4.5813327092894944, 8.5715789077972957)	(-8.1299881680501169, -3.4669795221748272)	1.0	slash	0.469121
14	N	A	N	B					B	4	0	shapes	N	5	False	45	(5.5411988832726156, 1.8432283465010215)	(2.2767073003695799, -2.9488341856017568)	(-7.7610827071855741, 5.5539146240353592)	(-7.5242600166586833, -6.317727772683301)	1.0	slash	0.641062
15	M	B	N	M					A	4	1	shapes	B	5	False	45	(-8.6084420422003376, -1.2477193489130203)	(4.7759809312670374, -6.0199546068857543)	(-3.3091019461625404, 1.6888411415025839)	(8.1857915566304307, 8.1529028498306495)	1.0	slash	0.450468
16	N	A	A	M	B	M	N	B	B	8	0	shapes	N	5	False	45	(-7.7280233232245266, 4.1974603606899521)	(-2.3955623553371161, 8.6605396917796149)	(-4.7638586149125022, -1.8167902282818948)	(4.0334283244285363, 8.401083881554392)	1.0	slash	0.636376
17	N	B	N	B	A	M	M	A	B	8	1	shapes	B	5	True	45	(-4.0926707971864751, 1.76649031936158)	(-2.6413559308320549, -8.4483708391243937)	(-6.6085738652156092, -5.2426653438369097)	(1.7477714754378049, -1.1472338106479336)	1.0	slash	0.929876
18	N	B	A	M	M	A	N	B	M	8	6	shapes	N	5	False	45	(-7.768648049495491, -1.8572927793792013)	(3.4227634826967694, 7.9620822338837804)	(8.3324503678244071, -2.0802974208343388)	(0.23661016159386605, -7.6598434553991765)	1.0	slash	0.645722
19	N	A	N	M					M	4	3	shapes	M	5	True	45	(-3.7663668315570167, -5.2455628831965271)	(6.6991493315167041, 7.6329918833511812)	(0.8203705395519183, -4.7809705651169745)	(-0.7249702928950974, 7.9407949126324766)	1.0	z	0.70319
20	M	B	N	M					A	4	1	shapes	B	5	False	45	(-2.9438993648668736, 4.0595557854747533)	(7.6660372438725659, 6.6426114660675797)	(-7.5802905379928047, -5.7967628076857682)	(4.5765555102554387, -1.9159356261824723)	1.0	z	0.692935
21	M	B	N	N	A	M	B	A	B	8	1	shapes	B	5	True	45	(2.4619965242040092, -3.7284641518716084)	(-8.1449603741930456, 8.4978813952935219)	(-3.7968053297424635, -3.1594836639125266)	(8.1743445934020293, 8.6485624179636886)	1.0	z	0.526685
22	M	B	M	B					A	4	0	shapes	M	5	False	45	(8.4437604761399569, 6.812779089106801)	(3.3943457793529372, -6.5413848197710056)	(-1.625856386468099, 3.1334443386123407)	(-0.96701157974299079, -3.2621217441298951)	1.0	slash	0.592275
23	M	A	A	M	B	N	N	B	B	8	6	shapes	N	5	False	45	(3.7951651242209561, -7.6564129216597934)	(-4.2843356938371606, -0.36944341836390038)	(-3.7910851685975473, 8.1079108067131394)	(-1.1645160829747159, -4.4706961969042425)	1.0	slash	0.614059
24	M	A	A	M	B	N	B	N	A	8	4	shapes	B	5	False	45	(6.3020901892216799, 2.8406295001184425)	(0.49276868596335888, 4.262726205674527)	(-3.1024946872583294, -6.5538686026070119)	(-7.94682940473741, 1.736437788861247)	1.0	slash	1.32759
25	M	A	B	N	N	M	B	A	N	8	1	shapes	A	5	False	45	(-7.2141972234149332, 7.1888828137991112)	(8.3303914054369663, 0.66786206974979478)	(-5.3591572247338775, -1.4884328635168602)	(3.6863201527592953, 7.3337839153943385)	1.0	slash	0.675206
26	N	B	N	M	B	A	A	M	A	8	5	shapes	A	5	True	45	(-1.4146365289814966, 0.43529434650542242)	(-6.299655892502309, 5.7635081702990458)	(-5.0451850820875164, -4.5159923686296706)	(4.583141397950147, 0.35537048412578898)	1.0	z	0.968673
27	N	A	A	M					A	4	2	shapes	A	5	True	45	(-5.9371121499102255, 1.0464552242156735)	(8.0831508968430938, 2.6657247867493385)	(3.1007061952475663, -5.3006917330173868)	(-5.7172781582048673, -4.8411504818413889)	1.0	z	0.808409
28	M	A	M	B					M	4	2	shapes	M	5	True	45	(5.3589760043190235, 6.2137544550113883)	(0.76271221563899338, -5.1605861785840155)	(-8.2117459467512344, -3.8323051403594128)	(-6.1800412150251294, 7.4906042608931749)	1.0	z	0.824069
29	N	A	A	N					M	4	1	shapes	A	5	False	45	(-3.7413207291653698, 2.7626215213333492)	(1.560849900974949, -0.026893089140292759)	(-7.7948499593573466, -6.5501492436961239)	(8.176141863121476, 1.1731218760139441)	1.0	slash	0.645807
30	N	A	B	B	A	M	M	N	N	8	7	shapes	N	5	True	45	(3.8316143659357564, 8.0319580729078055)	(-4.5460525138988261, 7.7362251975674283)	(-7.2250913458647634, -0.52179243336518866)	(1.9034508196957027, 0.48396902678639897)	1.0	slash	1.22557
31	N	B	N	M					B	4	1	shapes	B	5	True	45	(-3.8710159517814544, 8.7024512511905137)	(7.2959203905909433, -6.9800417439085436)	(-1.7123619561459087, -5.8264725091187657)	(3.1146366146050486, 3.239155795439892)	1.0	z	3.02306
32	M	B	B	M	N	N	A	A	B	8	3	shapes	M	5	False	45	(8.0289015933814376, 2.0160318733870799)	(1.0492444060541892, -8.1993477279459128)	(-3.0483747680999622, 2.3871494236022794)	(-3.3758434675398119, 7.8632713421906928)	1.0	slash	2.85454
1	N	A	N	A					B	4	1	shapes	A	6	False	45	(8.6315065320758286, -0.202042287679987)	(0.99736353689022117, 0.25573333534419795)	(-7.440917915751589, 4.3177327092506168)	(-3.6043526794606384, -4.4388638772802826)	1.0	slash	0.591959
2	N	B	A	N	A	B	M	M	M	8	3	shapes	N	6	False	45	(-7.7742523031449746, -7.2525701287408157)	(3.4850421210900109, 0.31709219603857797)	(-1.6420885224637258, 7.064443619090115)	(8.0509455966548416, -3.9391768667090945)	1.0	z	1.0936
3	M	A	B	N					A	4	2	shapes	B	6	False	45	(-1.0131696866695625, 7.3979596010769768)	(4.6519404880894797, 6.7661953291587125)	(-2.4910088773744663, -5.8835132109823149)	(7.2354449936880982, -2.4647039954833954)	1.0	slash	0.725392
4	N	A	B	M					N	4	3	shapes	M	6	False	45	(7.579839426978932, 4.4391143036822509)	(-3.5644793214650061, -2.3822711933909764)	(-4.5390806261131011, 5.9908300280528479)	(3.5104208415654075, -8.3074774599542529)	1.0	slash	0.847059
5	N	B	B	N					M	4	0	shapes	N	6	False	45	(8.1578066513168537, 1.4980334205897314)	(-5.8767385231094025, 5.864074577014371)	(-1.4345998941402893, -4.1903442768377612)	(6.8898792276971026, -2.7291961965502782)	1.0	slash	0.55259
6	N	B	M	N	B	M	A	A	N	8	6	shapes	A	6	False	45	(1.6161147944353171, 2.3294049146688742)	(-1.105045882421952, 8.5653364335524671)	(5.1684585028826326, 0.26577810171657745)	(-0.64047713444466936, -5.2277533179830611)	1.0	slash	0.557812
7	N	A	N	M	A	M	B	B	B	8	6	shapes	B	6	True	45	(-7.0785730583603028, -8.3842870294872771)	(-7.1089204779399928, 1.2145770534156597)	(-0.78194407792401499, -1.7442432707514133)	(4.5273289711742795, 7.9385653190804426)	1.0	slash	1.58795
8	N	A	A	N	B	B	M	M	N	8	0	shapes	N	6	True	45	(-2.6677019922860836, 7.0847321407406518)	(-2.9467649880152864, 0.48992498044491484)	(1.2643896637310892, -6.7099997784320626)	(8.0532730951117557, 6.0495295913949931)	1.0	slash	0.963529
9	M	B	B	A	M	A	N	N	A	8	3	shapes	A	6	True	45	(1.8946812694507322, 5.3871862209270045)	(8.5453650283166809, -4.6094177257356668)	(-3.1384008709117301, 0.95272635096467084)	(4.1220545908014277, -4.3560657118509809)	1.0	slash	1.18306
10	M	A	N	B	N	A	M	B	N	8	3	shapes	B	6	False	45	(7.8582822434750348, -8.3786990181614343)	(7.6760373573388421, 4.9167973793136888)	(0.73994586070766033, -2.2701710814730278)	(-2.2674265794150168, 1.7582580662036413)	1.0	z	0.814879
11	N	A	M	M					A	4	1	shapes	A	6	True	45	(7.7769413127660592, -1.9850676472900872)	(-2.8045101170699711, -8.5656324567569637)	(2.1714589004808253, 5.5522822033902113)	(-3.111034509165342, 3.696406370549548)	1.0	z	1.67841
12	N	A	B	A	B	M	N	M	B	8	7	shapes	M	6	False	45	(7.7059021284912568, -8.0973652855301825)	(0.29815761100653404, 6.2450447167244896)	(-4.3424013270746764, -3.1082869822018093)	(0.44960783997989928, -5.752180187480576)	1.0	slash	0.716083
13	M	B	A	M					B	4	1	shapes	B	6	True	45	(6.770012928520778, -5.5138600278707068)	(-4.7687570633621208, -1.3599234169371153)	(-2.6755522525992079, 6.7581315218897959)	(8.0212866389307749, 7.9195364976270888)	1.0	slash	6.16767
14	M	B	M	A	N	B	A	N	A	8	5	shapes	B	6	False	45	(2.3058738145034212, -5.1693663389788309)	(0.85915918643737754, 8.7026986153628876)	(-2.5040254445131707, -4.5459722277537162)	(-8.4875247065185029, -3.6391159880190838)	1.0	slash	1.08281
15	N	A	M	A	B	B	M	N	M	8	6	shapes	M	6	True	45	(7.591225978270483, 3.354315585948461)	(-4.9867356161436174, 7.6561424295581482)	(2.4841888142058632, -1.7457592885618567)	(1.0146983008019301, 7.7106663608290091)	1.0	z	1.06274
16	M	A	A	M					A	4	2	shapes	A	6	True	45	(-0.04444272852004616, 4.8788217542665393)	(7.576634177241985, -5.8956633235584999)	(-2.9719500957676539, -6.0361721379007776)	(5.1030650440957235, 4.16165489816734)	1.0	z	1.12438
17	N	A	B	B	M	N	A	M	B	8	0	shapes	N	6	False	45	(4.979106217302979, 3.9001768452084882)	(-2.5170826134413415, -7.038306999230608)	(8.7270005909895971, -8.5011849216901823)	(-1.0992111313377215, 3.8478705863317035)	1.0	slash	1.29595
18	N	A	A	B					A	4	2	shapes	A	6	True	45	(0.10068655281121863, 3.2294217256676916)	(8.0023710633818972, -5.0550908927417968)	(-3.9793923772841806, -8.6886377671445665)	(-6.2684451051396497, 0.97770446642917008)	1.0	z	0.81503
19	N	A	N	M	B	B	A	M	A	8	1	shapes	A	6	True	45	(0.91450221918596775, 2.8051554311218574)	(-5.6005521594350967, 5.4239900409996533)	(1.830670735886164, -3.5903333883575819)	(3.1871637548244269, 6.983768331585992)	1.0	z	1.17725
20	M	B	N	N	A	A	B	M	M	8	6	shapes	B	6	False	45	(1.3442933129392181, 0.033502865223958622)	(6.7400910293011282, -6.0982938151496633)	(-2.9421254175561078, -2.3702071970619443)	(4.9599785640848566, 6.4575348422061438)	1.0	slash	0.690681
21	M	A	N	B					B	4	3	shapes	B	6	True	45	(-2.3260951695658312, -0.82788488335391364)	(6.7517822778150478, -4.1289462959417831)	(6.6314469324467602, 4.0996957801292169)	(-0.13216561946179972, 7.0336457622874935)	1.0	z	1.41042
22	N	A	N	M	A	M	B	B	M	8	5	shapes	M	6	True	45	(4.1513521853766786, 4.251460081029153)	(0.34538226463135757, -2.9012308609954465)	(7.0139751780485238, -6.1734764628724967)	(-2.3128892022701804, -7.499098942149665)	1.0	z	0.829543
23	M	B	N	A					A	4	0	shapes	M	6	False	45	(7.3502562093968464, -4.5549242881059717)	(-6.3524069867618511, -6.2437566587741369)	(-5.5181910577854723, 6.8615362123204289)	(4.1807872696333295, 1.9104297779137092)	1.0	slash	0.657553
24	N	A	B	N	B	M	M	A	A	8	2	shapes	B	6	False	45	(1.8101236282922564, -5.792300041474558)	(5.8101400800799876, -0.1078177952901509)	(-5.8415745411851354, 8.5240663615643015)	(7.7042549698226246, 5.7567777277937413)	1.0	z	0.915488
25	N	A	A	M					M	4	0	shapes	N	6	False	45	(0.73496066002316596, -7.8776665298014761)	(-3.9916534538114936, 4.3295247684610558)	(7.9707356685021082, 0.10680397554949295)	(-6.1932886617421339, -7.2137901716128487)	1.0	slash	1.39084
26	N	A	M	A	B	N	B	M	M	8	7	shapes	M	6	True	45	(8.346862762226479, -4.4028127245993209)	(5.702443961298437, 0.89480360584074958)	(2.9599495025888753, 7.8725287089276144)	(4.4386470527984212, -6.2073435267679145)	1.0	z	0.726441
27	N	B	A	B					B	4	1	shapes	B	6	True	45	(5.7284817655956566, -4.7802398737106984)	(-6.226426566892858, 4.9120319615897401)	(-8.0792373689324481, -3.1505788730056095)	(6.5619865007161451, 0.47726494520433782)	1.0	slash	0.696201
28	N	A	A	M					B	4	0	shapes	N	6	False	45	(3.848370735045382, -4.1045182834574732)	(8.2232257107338498, 2.257364677001215)	(-6.8798722983411729, 2.1850166808532308)	(-5.6982790341882055, -4.1469534502261327)	1.0	slash	0.56771
29	N	A	N	M					M	4	3	shapes	M	6	True	45	(3.5387966799807025, 4.2109357501208358)	(-6.1279812132588507, -5.5673991599291437)	(5.5647784850691266, -6.5879768733899216)	(-6.3515527200659738, 2.4045000463335224)	1.0	z	0.591604
30	N	B	M	M					N	4	0	shapes	N	6	True	45	(8.4864196597130181, -0.21629265616666515)	(-0.15976604128578131, -5.3543695675086784)	(2.1319991816792907, 3.1143658343015765)	(-4.6750792784288926, 7.8411652133283383)	1.0	z	1.08337
31	M	B	A	B	N	A	N	M	N	8	4	shapes	N	6	True	45	(-0.96099131365956847, 0.24509284187008262)	(2.4751463599355521, 2.489222625480993)	(-7.418388914195277, -5.9317552110076193)	(5.0962417310725847, -2.1633016373941558)	1.0	slash	0.598854
32	M	B	B	N					B	4	3	shapes	N	6	False	45	(4.958094327433674, 2.9256858813239113)	(-2.6272167417303312, 5.7885410092849376)	(-5.0355147542027039, -6.7023010097726257)	(4.6362344204633192, -3.2942051687569274)	1.0	slash	0.75267
1	N	B	A	M					B	4	1	shapes	B	7	True	45	(2.4576742775460723, 1.2168744477229385)	(-0.77869378287502489, -2.0137825404699239)	(-0.58134112219700818, 5.0262101577130753)	(7.5099352732869491, -7.975021288906488)	1.0	z	0.912282
2	M	B	N	N					M	4	2	shapes	N	7	False	45	(-6.6029985295990112, -0.844082559238994)	(-2.2631563591608632, 3.6891475657504991)	(6.2316284543641061, 0.34404887821559704)	(4.1474513808246165, -5.5686015375875613)	1.0	slash	0.859902
3	N	A	B	B					N	4	0	shapes	N	7	True	45	(4.7034914057526187, -4.6084748731780216)	(-5.8147510982574753, -6.0922944837373967)	(-8.1108813961455208, 0.064666177191158525)	(7.4829190560719461, 8.0857284373048337)	1.0	z	0.77767
4	N	A	B	B	M	N	M	A	B	8	3	shapes	B	7	True	45	(-0.1468800598379314, 1.8427297532284506)	(-6.0402267566416015, -6.8853390466856439)	(1.2070634666653604, -2.8476762391286687)	(-8.2410937078653319, 2.0368505784599886)	1.0	slash	1.25909
5	N	A	A	B					B	4	3	shapes	B	7	True	45	(-3.4810496339062249, -1.7259632952678778)	(-5.5522718782344427, 7.4364887454435298)	(5.2178775621477165, -6.8280006873721346)	(5.8408389646983689, 1.5816523850718891)	1.0	z	0.960872
6	N	A	A	N	B	B	M	M	N	8	3	shapes	N	7	True	45	(-2.7852979079420681, 8.4020810974988969)	(7.095675930589076, 0.64974533548754998)	(-6.7288980155291327, 3.430483409144772)	(7.195529696769789, 5.1259022882269782)	1.0	slash	0.850519
7	M	B	B	M					B	4	2	shapes	B	7	True	45	(-4.1871606157540882, 2.6753213788239716)	(-7.0339921554399032, -3.5363880137065893)	(4.5513995426756111, 2.3426371443289256)	(1.0009635652823103, -1.047001363432428)	1.0	z	0.50624
8	M	A	B	N					B	4	2	shapes	B	7	True	45	(-7.0012392374307675, -3.3066144182800672)	(-0.086540683575586641, 1.6060288335267678)	(2.4593789167269904, 8.7298058809635535)	(7.7295713380015698, -3.7452508300334442)	1.0	z	0.789733
9	N	A	A	M	N	M	B	B	N	8	0	shapes	N	7	True	45	(5.5181964747920418, -1.1835000701832135)	(-4.1470062940246049, 1.4741204113449999)	(1.7030431951557095, -7.3053748445040023)	(6.9935320071578122, 4.7830018495094908)	1.0	slash	1.06958
10	M	A	A	N	M	N	B	B	M	8	7	shapes	B	7	False	45	(2.6377493540541437, 4.978737243107485)	(-1.2799633264223118, -1.4221019241263839)	(4.5178375311162853, -6.3672552883641771)	(-4.7387524121639784, -3.6960705020282481)	1.0	slash	0.669133
11	M	B	M	A					M	4	1	shapes	B	7	False	45	(-0.28624120514138163, 1.2320875424563447)	(-1.6723402766188613, -3.0396084177817677)	(6.8539316439342421, -6.0976483281451417)	(4.6074656463776336, 7.0442638031797706)	1.0	slash	0.608752
12	M	A	B	B					N	4	0	shapes	M	7	False	45	(-2.4285328565037236, -4.7482937653149406)	(-5.6128016839823953, 5.5769434496765609)	(6.9156348375941956, 1.7174066978889648)	(0.71077908240162202, -7.2541833816442516)	1.0	slash	0.960405
13	N	B	N	A	A	M	M	B	N	8	2	shapes	N	7	True	45	(-3.5978827771411028, -6.1202301080441739)	(-8.6393932682151462, -1.0076491507069125)	(4.7302399659292522, 4.1044754122027314)	(6.071069727380598, -1.7733040538544254)	1.0	slash	0.982009
14	N	B	N	B					A	4	1	shapes	B	7	False	45	(-6.301536001588099, -2.1051875550511276)	(-6.0462277445284016, 2.3664885979068693)	(6.4403495099002441, -0.36149937880469984)	(2.9438091368865287, 3.6173301062988816)	1.0	z	0.155598
15	M	B	A	M	N	A	N	B	B	8	2	shapes	A	7	False	45	(-0.058501883202060512, -8.6050807146447994)	(-6.5609349705270397, -1.8166192545963105)	(5.3298498645954773, -3.6168317669706322)	(7.3873940049955316, 7.4635184114952047)	1.0	slash	0.033417
16	N	B	N	M	M	A	A	B	M	8	6	shapes	A	7	False	45	(8.5041972384953191, 5.7749413842001847)	(-2.2728010761996922, -3.9541625763057118)	(5.8135501291879379, -4.8684620057283521)	(-0.63185873453788588, 8.2651737562116701)	1.0	slash	1.43902
17	N	B	B	N	M	M	A	A	M	8	0	shapes	N	7	False	45	(-1.3962219990371096, -7.1423519164125331)	(-0.47073430264422989, -2.6686531612616005)	(2.1653849522965043, 5.2072443013120946)	(-1.9153182457708828, 6.4417606685841005)	1.0	slash	0.796523
18	M	A	M	B					N	4	0	shapes	M	7	False	45	(-3.8685456398913871, 5.7715708180734531)	(-0.94206810607520985, -5.8696818021976345)	(5.1007798353315792, -2.0613973233538445)	(0.6623749533844272, 6.181893257478464)	1.0	slash	1.73639
19	N	A	A	B	M	N	M	B	B	8	3	shapes	B	7	True	45	(2.0535078976778696, -1.4280247292700299)	(-1.3702901422791118, 8.3949089713309455)	(8.1632242472480243, -0.308446914469096)	(-2.7090295735834635, -7.319516627519226)	1.0	z	0.987327
20	M	A	M	B					M	4	2	shapes	M	7	True	45	(-7.4313523327679425, 7.2789330139432629)	(1.8496634142674093, -6.4846734733500098)	(4.2937072092332382, 6.6796199484453744)	(-6.4597392947160426, -6.4587465192194582)	1.0	z	0.757493
21	N	B	B	A	M	A	M	N	B	8	6	shapes	M	7	False	45	(4.765393162169266, -5.1305690970356661)	(1.3429313803106471, -7.7742920321698232)	(-2.5755956644883282, -5.2354421613497477)	(-0.99218991856121797, -0.032533714822763571)	1.0	slash	0.89723
22	N	A	B	M	A	M	N	B	B	8	5	shapes	M	7	False	45	(7.6686949262612352, -5.3435354332072311)	(-4.8713658970944786, 6.6935160538017833)	(-0.70775820165635395, 4.6529967047682366)	(7.2225221526505585, 2.2591242293596761)	1.0	slash	0.808468
23	M	A	N	A					N	4	2	shapes	N	7	True	45	(7.1394127335592401, 7.1840671933051343)	(8.4683246571646968, -3.6968770006414724)	(-2.221140451909819, 5.4165671165971574)	(-2.3525200103757413, -4.0531718817900231)	1.0	z	0.536292
24	N	B	B	N	M	A	M	A	M	8	4	shapes	M	7	True	45	(-5.208239660933863, 7.6157552967357169)	(-0.28370733857163088, -5.2970768225610589)	(-6.8035104932211468, -0.14330861728743471)	(5.9941118272286147, 4.5360487938945333)	1.0	z	1.11219
25	M	A	M	N					N	4	2	shapes	M	7	False	45	(-1.1132801096145037, -5.2142672407514752)	(3.2513143492089114, -7.7239191518412476)	(7.0791104223457797, 4.3427542706651554)	(-8.4716874265069979, 2.4980279265882803)	1.0	slash	0.683742
26	M	B	M	N	B	A	N	A	A	8	3	shapes	N	7	False	45	(8.0627586037070103, 5.6763039007435268)	(-1.1227062481674279, 2.9617509224615812)	(-5.2230299119050079, 0.08502174427128395)	(2.9886269945948527, -3.9882322927965044)	1.0	slash	0.671526
27	M	B	B	M	N	A	A	N	B	8	2	shapes	B	7	True	45	(-0.26453073001219352, 7.6640510959834742)	(-6.6660784650736273, 7.1352588650975317)	(-7.5153680518588022, -8.4116802152434502)	(8.4791686665362072, -3.5900911578717558)	1.0	slash	0.781017
28	N	B	B	N					B	4	2	shapes	B	7	True	45	(-5.5477818731314201, 8.3451377075286359)	(-3.6228230393535057, -3.8842010782792364)	(1.6635565011152167, -2.7188488714216348)	(0.3386894741695663, 1.585534564084961)	1.0	z	0.818747
29	M	A	N	N					B	4	3	shapes	N	7	False	45	(1.8045537823773063, 5.9273188723073087)	(1.616972259787369, -0.94567776792221458)	(-2.7032638577572508, -8.5379333758717326)	(-8.1590699713804327, 2.2418777579377398)	1.0	slash	0.640438
30	M	A	N	B	A	B	N	M	M	8	4	shapes	A	7	False	45	(2.0791778841634301, -1.8714817085474653)	(-1.4017766145573356, 7.9352742951303767)	(3.0028011864254545, 6.7795088053979526)	(6.2701973619984059, -8.4056693209514179)	1.0	slash	0.558152
31	M	B	M	N	A	B	N	A	A	8	4	shapes	A	7	True	45	(-8.0366220813385283, -0.97233524868680377)	(1.116815640879647, 2.147636429895492)	(6.7076062885795587, -8.6029491108551746)	(-3.7989732223856452, 8.653931608273858)	1.0	slash	0.731873
32	N	B	M	A					N	4	1	shapes	B	7	False	45	(7.364369489652681, -6.0151915438518238)	(-4.6344101381023499, -7.066717763619998)	(-5.9538144057083384, 3.2131120020791837)	(7.330843792883357, 8.586241115753932)	1.0	slash	3.33176
1	N	A	A	B					B	4	3	shapes	B	8	True	45	(5.0183992584617787, 3.4332750844697468)	(1.0530119669896312, -2.5609976822242855)	(-6.5255244954090124, -6.2735230676605926)	(-1.57296533631171, 3.4920686330213506)	1.0	slash	1.06295
2	N	A	N	M	M	A	B	B	B	8	7	shapes	B	8	True	45	(-3.8641435410699616, 4.6451662352513345)	(8.126173767756228, 4.9292376829975719)	(-5.8410860672978515, -1.3333168628404941)	(4.8764784025115837, 0.60621441233897322)	1.0	slash	2.27262
3	M	A	N	A	N	B	B	M	B	8	7	shapes	M	8	False	45	(-3.1782442760868257, -6.9174851734599043)	(-5.5642344182428172, -1.4117521090019229)	(0.81322413135558413, -1.165143184405192)	(-3.9752483801819771, 3.4750588324307632)	1.0	slash	1.11816
4	N	A	A	B					A	4	1	shapes	A	8	True	45	(-2.0297346586470315, 2.347352021711302)	(7.4216765738798749, 1.435033436626691)	(-2.8283703455312192, -5.0845156633461528)	(2.778419934766692, -5.5434392770511174)	1.0	slash	1.77359
5	M	A	N	N	A	M	B	B	A	8	4	shapes	A	8	True	45	(-7.2169786414413757, 5.0858128208153754)	(-0.63682491690459919, 5.6647767610803523)	(8.7134835455096251, -5.5466173932961862)	(5.9388846390962335, 4.5567907986395753)	1.0	slash	1.19741
6	N	A	A	N	M	M	B	B	N	8	6	shapes	B	8	False	45	(3.1236120246889598, -4.4304965829476179)	(-5.6334881333110216, 0.71199532735979432)	(-1.1409655226915456, -4.388519751210044)	(-6.6441166549207171, -4.8650597634593264)	1.0	z	1.45905
7	M	A	A	N	B	B	N	M	M	8	4	shapes	B	8	False	45	(4.7148892836462188, -2.6486017622786857)	(-7.9917403583085775, -4.4544401002207854)	(1.4951666125540033, 5.2536329173208252)	(-1.8922936520057281, -5.6627595149442191)	1.0	slash	1.3725
8	M	B	N	B					N	4	2	shapes	N	8	True	45	(6.4851452408359638, -4.7261601605834382)	(-4.9146337841478331, -8.6745412193621068)	(-1.1071564552448327, 2.5794180289623956)	(0.91789836392509372, 7.6155068540836375)	1.0	z	1.0442
9	N	A	B	B	A	M	N	M	A	8	3	shapes	B	8	False	45	(0.88530861610892586, -1.6410705140552695)	(6.0931027434550202, -4.0367770966896259)	(5.1449312984950009, 7.8363650075755444)	(-2.1579037590147427, 8.4476025758409143)	1.0	slash	0.733732
10	N	B	B	M					A	4	0	shapes	N	8	False	45	(1.9959243235221411, -6.3100861511625022)	(-1.7712318102692333, -4.8870418029280707)	(2.411444051099803, 6.4167066772123693)	(-8.6201242566494312, 4.5121982420836382)	1.0	slash	0.893307
11	M	B	A	M	B	A	N	N	M	8	0	shapes	M	8	True	45	(-6.1104163676895666, -6.776786695829319)	(4.3830043360412656, 4.1186808937630541)	(5.9894503613103591, -5.4204569452594296)	(-1.9761623616229258, 1.1449852085617689)	1.0	slash	1.50307
12	N	B	A	N	B	M	M	A	B	8	4	shapes	B	8	True	45	(-4.9664181596015435, 0.50297903005281164)	(-2.3921680927426223, -7.2511635930229321)	(8.2399395337299843, -4.2661333185084205)	(1.6160698054669034, 6.066345383679737)	1.0	slash	1.2145
13	N	B	M	A					B	4	0	shapes	N	8	False	45	(2.331324442256232, -6.4434210460713519)	(6.9590211794877916, 2.4242184198651984)	(-4.1988830760073146, -5.6483680568249817)	(-5.9720601979722581, 1.3946412853906249)	1.0	slash	0.89434
14	M	A	M	N					A	4	2	shapes	M	8	False	45	(1.1037122345486772, 7.477509605487878)	(-8.2011517807220802, 5.1318100910059599)	(-7.0210034461387698, -0.96729636540471642)	(5.4168085586954806, -2.2927449349664215)	1.0	z	0.821861
15	M	A	A	N					M	4	0	shapes	M	8	True	45	(6.8924218162211748, -0.57233895096062959)	(-7.0078843617312749, 4.5049102950210731)	(-4.4538111456700396, -4.0824270405780663)	(0.30147174915706287, 7.9217370556784878)	1.0	z	1.10773
16	M	A	M	N	B	A	B	N	N	8	5	shapes	A	8	False	45	(-4.9107445987300515, 6.9551916745530171)	(6.0119408425929137, -0.52897372417569422)	(0.1586926358424563, -7.62288448405313)	(-7.7836336980562546, -7.6659008135092632)	1.0	slash	0.74537
17	N	A	M	B					B	4	0	shapes	N	8	False	45	(-4.369346257089437, -7.076962707452541)	(3.8536136791932112, 1.9801578440882288)	(6.3840989926627341, -1.3075052090132058)	(-2.6069936397579143, 5.8763444467827952)	1.0	slash	1.19895
18	N	A	B	A					B	4	2	shapes	B	8	True	45	(3.9514082546338667, 6.167781372125317)	(-3.9286060178898294, 8.3979442088394691)	(-5.4695362832210694, -3.6155685934675628)	(2.4617743572702278, -8.5354725828558742)	1.0	z	0.52866
19	M	B	B	A	A	M	N	N	N	8	5	shapes	M	8	False	45	(-5.5715371202031871, -7.6363612592404948)	(-8.1539345649005828, -1.8192368527101896)	(8.3700382038048282, 2.3769205146502888)	(6.8676191859767446, -7.1331360292912587)	1.0	slash	0.852262
20	N	A	N	A	B	B	M	M	M	8	6	shapes	M	8	True	45	(-6.2451755126929331, -6.7803207158506336)	(-1.0909705862207826, -1.0631709011061714)	(2.9962506768928598, 0.12348115871910004)	(-4.1894525491403884, 1.8802447467147534)	1.0	z	0.941927
21	M	A	N	N					N	4	3	shapes	N	8	True	45	(6.2271214688498162, -2.2654500765736589)	(1.1538619536440144, 2.3193624823589722)	(-6.5117811555636251, -2.6058130301003057)	(-5.9657019065420513, 6.6886244542881137)	1.0	z	0.803416
22	N	B	A	B	A	N	M	M	N	8	1	shapes	B	8	False	45	(2.3004199275111894, 8.3077445885447787)	(-1.3911556875507687, 0.16062860426309911)	(6.4952547449420575, -5.8175025381230832)	(-5.8370161212482756, -5.2440458126429066)	1.0	slash	0.703095
23	N	A	M	B					B	4	3	shapes	B	8	True	45	(-3.4979745053457094, 0.53293753219023365)	(5.336529399236003, -8.2829088396962778)	(1.8614956402305047, 7.2411986694070904)	(-5.5351122977279967, -3.8581608331833674)	1.0	slash	0.956791
24	N	A	N	B					B	4	2	shapes	N	8	False	45	(3.4630148547610897, -6.0604565191329085)	(-0.28353114890075481, -3.9708690142193701)	(-5.0316856895468725, 3.3704593702587626)	(6.7009486276384909, 3.2025789445941903)	1.0	slash	0.616438
25	M	A	A	B	B	M	N	N	A	8	3	shapes	B	8	False	45	(-5.1241344398651441, 6.9383299301754811)	(-3.5638671840777016, -7.5518285586530451)	(0.29148239419900257, 1.8347165741479365)	(-2.4402554963748386, -2.4344376409528481)	1.0	z	1.02607
26	N	A	B	B					M	4	0	shapes	N	8	False	45	(-1.0013518913213986, 5.3501629213556736)	(4.7202198318346724, -0.15488525886045501)	(-1.3285044103895318, -1.9955504023770638)	(3.7663279411285746, 5.0438935285628759)	1.0	slash	0.520034
27	M	A	A	N	M	B	B	N	A	8	1	shapes	A	8	True	45	(-5.361849846574402, 3.8340376138140684)	(-6.4608855236301928, -3.1561699794932547)	(4.542428547458325, -0.9821207300883783)	(1.4098595054074714, 7.4375602554185285)	1.0	z	1.06941
28	M	B	M	B	N	N	A	A	N	8	5	shapes	N	8	True	45	(6.0734508496867043, 2.8008758141631844)	(-5.1151919773107046, -0.36099818529575423)	(5.9690329427961082, 8.3499574196958442)	(2.5962573565185068, -4.793396679122905)	1.0	slash	0.541018
29	M	B	A	N					A	4	2	shapes	A	8	True	45	(7.9193980618075663, -6.5449607659011715)	(8.5949830254888653, 7.2739212910619742)	(-7.2982291817254374, 5.6679506494915888)	(-7.8148003874204779, -3.6405964360717791)	1.0	z	0.82685
30	N	A	B	M					M	4	0	shapes	N	8	False	45	(-1.9512539192125491, -4.9209103771150167)	(3.9976552547038775, 2.9305816918553553)	(3.8546203547460642, -7.9556158407808688)	(-7.7537666030312629, 7.3492780974248468)	1.0	slash	1.02436
31	M	B	A	B	M	N	A	N	B	8	3	shapes	B	8	True	45	(8.3696769703891931, -8.725982039626631)	(6.7758653319554423, 2.565249653622768)	(-0.48401771414920347, 3.96120662620622)	(1.223936496765706, -5.1214054352408169)	1.0	z	0.607989
32	N	B	N	M					A	4	2	shapes	N	8	False	45	(-4.5908447007240643, -2.2707748400133934)	(-4.9402498371920007, 6.7733742564304684)	(8.1054410372989096, 7.2052098105977898)	(2.0641752680795289, -5.952629174957039)	1.0	slash	1.20759
