TrialNumber	stim0	stim1	stim2	stim3	stim4	stim5	stim6	stim7	stim.probe	ttl.stims	corr.num	trial.type	stim.corr	block	match	Subject	stim.pos0	stim.pos1	stim.pos2	stim.pos3	ran	resp	RT
1	M	B	A	M	B	N	A	N	M	8	3	shapes	M	Practice	True	46	(6.0694523772527642, -6.5413309453885446)	(-1.3724516027441576, -0.2628988336564948)	(0.59044777634376544, 4.9158645762445303)	(7.3527021063976008, 5.2384004615240123)	1.0	slash	3.57377
2	M	B	B	N					M	4	0	shapes	M	Practice	True	46	(-2.560812787887043, 4.4587087906507765)	(-5.7086485367964697, -4.7229670732881628)	(0.15767493902213481, 1.2075692114312613)	(8.5731955784370584, -8.3640193454005676)	1.0	z	2.03527
3	M	B	B	A					M	4	2	shapes	B	Practice	False	46	(-4.7697846877767063, 0.53006150540946173)	(8.0233611828330389, 4.2546542157811054)	(8.6996303997500952, -3.8716099884507402)	(-4.6222084326816351, -5.9401011391609693)	1.0	slash	1.68653
4	N	A	A	B	M	N	M	B	N	8	2	shapes	A	Practice	False	46	(-3.1095105001495025, 3.8782956151475076)	(3.009397663629656, -7.1507145221766795)	(-4.2956219135690867, -1.9123217640654717)	(8.0360774803585926, -8.6912387526711612)	1.0	slash	1.41041
5	M	B	A	A					M	4	0	shapes	M	Practice	True	46	(-3.2651404027282229, 0.98105081597157273)	(-4.608937497384975, -7.7040619219039259)	(0.9391365942276888, -7.8656600051546217)	(4.1684364491623853, 1.7838388734793202)	1.0	z	1.27393
6	M	A	N	N	B	B	A	M	M	8	3	shapes	N	Practice	False	46	(-4.4321954122460392, -7.9569954305455228)	(-6.1028076907186168, -4.2448121399681966)	(-8.6071015946346829, 7.8449664477317569)	(6.4056126376865059, -2.0255074510408573)	1.0	slash	1.24752
7	M	A	N	N	A	M	B	B	M	8	0	shapes	M	Practice	True	46	(0.4773526357110871, 1.5480532315849285)	(5.1913085584732883, 0.64984880134796796)	(-8.0465763677585187, 2.5789433957061227)	(-2.2765861229563686, 5.9589191254012022)	1.0	slash	1.75538
8	N	B	M	A					M	4	1	shapes	B	Practice	False	46	(1.4976143368710506, -4.8970500554567131)	(-1.3268403525425203, 3.8966410522194632)	(-8.2491806702612678, -0.6064262392100499)	(7.2678219778920479, 1.8469933195642252)	1.0	slash	1.59074
1	M	A	A	N					A	4	3	shapes	N	0	False	46	(-7.8940159802463041, -3.0181707613495679)	(-1.22252890578583, 2.1779517399336257)	(3.6051566037204594, -0.93916827299833905)	(1.638518322883856, 7.1579644768780906)	1.0	z	1.72195
2	N	B	M	N	A	B	A	M	N	8	6	shapes	A	0	False	46	(-0.86374451679159225, -3.6782910651774392)	(4.7494599551416794, -2.6204772878706724)	(-4.7219590469098911, -4.8587805165710094)	(-3.0391995409099488, 7.0416388999567125)	1.0	slash	1.70165
3	M	B	B	M	A	A	N	N	M	8	4	shapes	A	0	False	46	(0.68431874254875957, -1.8560219476020574)	(-1.4882552488248582, -5.7098104733681758)	(-0.24821544049236088, 5.1424472524906566)	(-7.3843291214547335, -1.2236382487940762)	1.0	z	0.57905
4	N	A	A	M					A	4	1	shapes	A	0	True	46	(3.6107016090388715, 2.6098684864156816)	(4.7920821446634143, -6.3561572644033104)	(-3.0048598554013868, 7.2303863975296174)	(-8.2440224416011993, -5.2477490233546789)	1.0	slash	1.42468
5	N	B	B	A	A	M	N	M	B	8	0	shapes	N	0	False	46	(3.2290815350887101, 6.3367251471693233)	(6.1997029033854147, -2.3263701416930838)	(8.1463413567801268, 8.2786298596251591)	(-2.1106639340608488, -2.6141551691167466)	1.0	slash	2.06422
6	M	B	B	N					B	4	0	shapes	M	0	False	46	(-4.0283153294816847, -0.23196118659284082)	(8.2155420368763927, -3.9443578549678522)	(3.8559191949308467, 4.9280741637960634)	(-4.2332876072627785, 5.6091831131115768)	1.0	slash	1.046
7	M	A	M	B	B	A	N	N	B	8	4	shapes	B	0	True	46	(-6.3016009460897395, 8.2090274802773422)	(1.3280285973168287, -2.5184485104378238)	(8.2116709940759343, -1.5239732234070571)	(-6.2029407632835287, -2.8625253017734984)	1.0	z	0.985593
8	M	B	A	N					A	4	0	shapes	M	0	False	46	(0.66080320928756464, 0.034311659742478184)	(8.2415241156056496, -7.1920673064486262)	(-7.216538299912072, -2.6155841883317059)	(-6.372636495408087, 1.913997287422248)	1.0	slash	1.3932
9	M	A	B	B					N	4	2	shapes	B	0	False	46	(4.9606884229173112, 1.8905416853134405)	(-2.3053200976738299, 1.4758297574497252)	(-8.6766620546153419, -8.3588892825510133)	(8.1693987693420134, -0.99194220875936789)	1.0	slash	2.11476
10	M	A	N	A	N	M	B	B	B	8	1	shapes	A	0	False	46	(-2.2462648746182889, 8.2232114408029631)	(-8.297153060426492, -2.8587784824788098)	(1.2777405347896664, 4.701847733060875)	(1.728591100733464, -6.7932963033499121)	1.0	z	0.976425
11	N	B	M	A					N	4	0	shapes	N	0	True	46	(4.768623446853745, -0.91188715048701674)	(5.5230411979599037, 7.1812145525857964)	(-3.1051902509406872, -6.2018159294008655)	(-3.0501486605958563, 5.0716622958768607)	1.0	z	1.7281
12	M	B	N	A					N	4	2	shapes	N	0	True	46	(3.5334223914030662, -0.3815059655969204)	(-4.8812691825267471, 5.7747086907448377)	(6.5240745117756713, 6.474384620733467)	(-8.3807284134725553, -4.4434783828443765)	1.0	slash	1.20761
13	M	A	A	N					B	4	1	shapes	A	0	False	46	(6.2122177577258508, 7.5866693546840125)	(7.657662314875143, -7.35319605188183)	(-2.5642816982885011, 4.1816894540532221)	(-6.9092693199510791, -1.6567105005241958)	1.0	slash	4.047
14	M	A	N	N	A	M	B	B	M	8	6	shapes	B	0	False	46	(-7.6229342263361843, -1.8992357777764628)	(-2.8645563080697585, -7.5814491516218228)	(4.3305886689562048, 2.1120241737256116)	(3.8621062734800784, -8.5437119624348838)	1.0	z	2.13261
15	M	B	M	A					A	4	1	shapes	B	0	False	46	(8.0907389639313436, 8.6467198091336179)	(6.4536672323135651, -8.6392892706593649)	(-7.8211637354235481, 5.9183624187285542)	(-2.4440049203476377, -8.5250216233034219)	1.0	slash	0.788231
16	M	B	A	B	M	N	A	N	A	8	2	shapes	A	0	True	46	(2.931984699828261, 3.8229338584283603)	(-8.4066375804914326, 6.2450848350852866)	(7.0907295235324153, 8.4861952841245056)	(-5.1390123580410467, -5.952013397311644)	1.0	z	3.02746
17	M	B	B	N	M	N	A	A	A	8	2	shapes	B	0	False	46	(8.6040378715298083, -4.5944992878490005)	(-5.5308137564018427, 5.432135253090193)	(-0.10282006001131805, 1.0940052709918042)	(4.5290695883353429, -1.5308669639143719)	1.0	slash	1.59546
18	N	A	A	M	M	B	N	B	N	8	0	shapes	N	0	True	46	(-3.0744892756609827, -6.17548169845176)	(5.3491884294975449, -8.7257244130155769)	(-8.314484575680277, -4.6326665909913496)	(6.5715577226399926, 3.0662748328808149)	1.0	z	3.80907
19	M	A	A	M	N	N	B	B	B	8	7	shapes	B	0	True	46	(-7.1374421097183749, 8.0734926990633227)	(5.1356393002684548, -0.98857272547707531)	(-0.18519297968581405, -1.3371032440765962)	(3.257318529577331, 6.3226763857118655)	1.0	slash	0.962295
20	N	B	M	N	M	B	A	A	M	8	4	shapes	M	0	True	46	(1.2657863897392865, 4.8822188449938135)	(-8.2149483485105765, 2.9318716115875603)	(-3.69601566929797, 6.3276284030210821)	(7.7040596661743272, 0.61865446477971453)	1.0	z	1.14802
21	N	A	A	N	B	M	B	M	N	8	7	shapes	M	0	False	46	(3.0185456313152947, 0.088923928659680129)	(6.6647722493139074, -4.573492044386815)	(-6.9861433159811703, -3.2773793090755623)	(1.6229243972978313, -3.9328937349894408)	1.0	slash	1.13952
22	N	A	A	B	B	M	M	N	A	8	2	shapes	A	0	True	46	(6.8515236476853598, -3.6697818240381137)	(-2.849754093346184, 6.2189670966499246)	(2.7472628923689495, -1.9964170340510465)	(4.72156306144125, 2.7308454006756993)	1.0	slash	0.237128
23	N	B	N	A					M	4	1	shapes	B	0	False	46	(8.3488325627347137, 0.15273941417009063)	(-4.3596590909638584, -0.8666328173332456)	(2.8841913144416864, -6.9649847680504884)	(-6.1687023068742022, 5.7707610300618857)	1.0	z	0.920928
24	N	B	A	M	A	B	N	M	B	8	7	shapes	M	0	False	46	(0.28689416055487804, -4.6070940864313368)	(1.4662631254581449, 2.1446052995641089)	(-8.4209622000474429, -6.3880364924651989)	(-2.8531327497541019, -2.0260256437469568)	1.0	slash	1.01452
25	N	B	N	A					B	4	1	shapes	B	0	True	46	(-7.0025100407251823, 7.9031322840296951)	(-2.0519223334982071, -3.8188669496001477)	(0.85826165153850908, 3.0099660644362309)	(5.7041856602286263, -7.1303369066489184)	1.0	z	1.00617
26	N	B	B	N					B	4	2	shapes	B	0	True	46	(1.5645498164178981, -2.0751643876334303)	(-1.9563023472761367, -8.1241173581375783)	(-7.7067785298037492, 4.0946880523567533)	(6.105449561166802, 4.2632243400746201)	1.0	slash	1.35789
27	N	B	N	B					B	4	1	shapes	B	0	True	46	(5.5493512782708727, -1.5942886529052434)	(-6.7209054432662452, 1.4159935128855281)	(2.4212713136692141, 4.2242215247907637)	(-7.7899353559809059, -2.8258060405749088)	1.0	z	0.911488
28	N	A	B	M					N	4	0	shapes	N	0	True	46	(-5.5076985722642835, 3.6244219014999306)	(-5.6227682141620772, -2.5127059066257456)	(1.2468466679563885, -7.5423297989439)	(6.56007383783178, 5.1699266932302486)	1.0	slash	0.795234
29	M	B	A	N					B	4	0	shapes	M	0	False	46	(-0.22195734488567531, -4.7310089336406156)	(2.7856563925851816, 6.078000649187187)	(-3.9794484333045776, 4.1665484811168891)	(5.0720707272516545, -7.808379479999652)	1.0	slash	0.62265
30	M	A	N	N					M	4	0	shapes	M	0	True	46	(-0.72382497167723336, 2.1242660012183059)	(6.601891982595145, 6.9701774073602625)	(-1.200868785521469, -3.2292564204738605)	(5.220917843346724, -8.1723475359966695)	1.0	z	0.908416
31	M	A	N	B	N	B	A	M	M	8	7	shapes	M	0	True	46	(5.2867084641339677, 0.79060514073953669)	(-4.4771414238866578, 0.2632593951593627)	(6.6659678494376546, -5.156869039193106)	(1.6062518257934695, 3.6104384218640071)	1.0	slash	0.844247
32	N	B	N	A	A	B	M	M	N	8	0	shapes	N	0	True	46	(6.2773792335053731, 4.797358003174196)	(-4.5844321614490058, -6.8260043155507226)	(1.1696071965843569, -3.7820963249595589)	(-4.6201165052144813, 3.7835226505148363)	1.0	slash	0.439625
1	M	A	M	A	B	N	B	N	A	8	1	shapes	A	1	True	46	(6.0071551751413388, -6.7398962669591684)	(-7.5574187366226733, -3.4408118960523844)	(4.8988449119433906, -1.9464587578485197)	(0.13697105089152295, 3.374630058764243)	1.0	z	0.671415
2	N	A	M	N	M	B	A	B	N	8	0	shapes	N	1	True	46	(8.2822344052818373, 5.7942882389588881)	(-7.1344837289170249, -5.600430520695582)	(-0.51404530252989922, -7.6664875085244439)	(6.5309548074507635, -3.0577104946883882)	1.0	slash	0.309112
3	N	B	B	N					A	4	2	shapes	B	1	False	46	(-6.4934374462336431, 8.7453244667363883)	(4.3698274762711566, -5.7114652794169425)	(4.6000713194291425, 4.9344258467577937)	(-4.3542863686943463, -0.33365035458525938)	1.0	slash	1.6727
4	M	B	N	M					N	4	2	shapes	N	1	True	46	(-3.5581427612545413, 2.2128030328332677)	(1.791601402623705, 1.2062756340892786)	(5.0447887983593489, -5.0191888029229155)	(-7.9847889559460592, -5.3035705852464359)	1.0	slash	2.87619
5	N	A	M	N	A	B	M	B	M	8	2	shapes	M	1	True	46	(-3.7339216816192451, 7.9388413659644428)	(-0.41660983931140194, -0.81741013631853399)	(7.3907456375401317, -3.6816947130552258)	(-2.5646999562677451, -5.5139445015113902)	1.0	z	1.40179
6	M	A	B	A	N	M	B	N	N	8	1	shapes	A	1	False	46	(-8.2101320314138011, 1.2537536028102032)	(7.3822677460527899, 4.0790951006291447)	(-3.9644319713062899, 3.7346465216085356)	(1.8098248434910325, 1.2023085715403248)	1.0	slash	2.46744
7	M	B	N	A					N	4	0	shapes	M	1	False	46	(6.6308831981953702, -6.5995906097118944)	(-2.8749742032229317, 7.2640646233586992)	(-7.17324728088618, -5.3210664089792488)	(6.4437117528366716, 7.0396471936718257)	1.0	z	2.65503
8	N	A	N	A	B	M	B	M	N	8	2	shapes	N	1	True	46	(-5.7461006986371883, 2.3557514285622396)	(3.9904270471819032, -3.7737783952316351)	(1.7215558886586155, 7.5043735701379148)	(-1.7938257035029768, -0.80388840683580209)	1.0	slash	0.384514
9	M	A	B	N					M	4	3	shapes	N	1	False	46	(0.9574850915375368, 7.2353441635176754)	(3.7171070493741443, -8.4691786912639149)	(-3.178732036476573, -7.8831301606768251)	(-6.066095674513921, 6.1306080825814906)	1.0	z	0.45393
10	M	A	M	B					A	4	1	shapes	A	1	True	46	(6.7400287746431395, 5.9188250034588368)	(-0.2307253140502219, 7.8848545286678942)	(-7.1066531991187754, -8.1697683288752856)	(3.9119529302586216, -2.219602426690968)	1.0	slash	3.37358
11	N	A	B	A	M	B	N	M	B	8	6	shapes	N	1	False	46	(-0.5890702356122155, -1.4412346464026582)	(5.5413622660971225, 1.5524803409732488)	(0.61088922369305898, 4.261041262860342)	(-1.4922141889177007, -6.9722724336327619)	1.0	slash	0.90934
12	M	B	B	M					A	4	0	shapes	M	1	False	46	(2.0085536785391689, 0.0043346090927780523)	(-5.9472942348655158, -3.031586440741262)	(2.7013238091681107, -4.9159340821750472)	(-1.8697754619521385, 5.0793000742148084)	1.0	slash	0.880862
13	M	A	M	N					A	4	1	shapes	A	1	True	46	(-6.3960269482718086, -1.7804106325075875)	(5.3641209593020491, -4.4205722834736267)	(3.4634944880478482, 7.0606278749756317)	(-4.5779984164020231, 6.399616571333766)	1.0	slash	0.984537
14	M	B	A	B					B	4	3	shapes	B	1	True	46	(4.1403185226933914, 7.2849730444426122)	(-0.55599014054708462, 2.8642167012748523)	(4.5510047613051423, -7.9413237027071872)	(-1.8217679686886399, -5.7061519071790521)	1.0	z	1.19018
15	N	A	N	A	B	B	M	M	A	8	1	shapes	A	1	True	46	(-5.9194015005286591, 6.2282564790418249)	(2.0700643674633508, -4.7593719898001901)	(-7.4690093265981314, 0.68450888104411156)	(0.29580044452663579, 5.0256972336387111)	1.0	slash	3.71792
16	M	A	M	N	N	A	B	B	B	8	5	shapes	A	1	False	46	(-2.367273519198589, -5.615166355459082)	(-7.1947623254889201, 0.47452002196493304)	(3.5289891674051805, 0.084139646374916666)	(-2.1876861607465354, 7.5655400002238551)	1.0	z	0.921238
17	N	B	N	A	B	A	M	M	A	8	1	shapes	B	1	False	46	(-3.9992667124187244, 7.0492552178517034)	(-3.7023611733364827, 1.2299075981852692)	(3.3712382816032971, -7.5312653930986029)	(-4.5038993033224211, -5.4966579992330349)	1.0	slash	2.34695
18	N	A	A	N					B	4	0	shapes	N	1	False	46	(2.6498527903467242, 8.6309269019385368)	(5.8833503058182224, -5.4192228485138862)	(-3.1860074671645586, -2.7941562833295297)	(-1.2461780487242846, 4.4231035599782853)	1.0	slash	1.43247
19	M	B	N	B	N	A	A	M	M	8	3	shapes	B	1	False	46	(-7.6029457694049949, 1.1761393744143138)	(8.7384942315180325, -3.2029376581148421)	(-8.3850854683306366, -7.4468422111470449)	(-1.9587898767583827, 0.95157966039920616)	1.0	z	2.22987
20	N	A	B	B					A	4	2	shapes	B	1	False	46	(8.1900031206677291, 7.6145247204201745)	(7.749453842108796, -2.7748758472821038)	(-3.5794446300074663, -6.4356980453129102)	(-6.6010556548120025, 7.4067133323405514)	1.0	slash	2.02368
21	N	B	N	B					B	4	1	shapes	B	1	True	46	(7.2814144082845758, 5.8579913403390229)	(4.1499297407310873, -2.1352202981577966)	(-3.0149325761460091, 2.0912225792661499)	(-6.0620154014200409, -3.6427280042889665)	1.0	slash	1.2692
22	M	B	M	A					B	4	1	shapes	B	1	True	46	(5.7804760936630188, 1.7762830145148314)	(-6.3964995453935352, 3.5365131674373931)	(-1.6733486220860749, -3.4998076966548277)	(3.4734896923380134, -1.6996792295469403)	1.0	z	0.304869
23	N	A	B	M					A	4	0	shapes	N	1	False	46	(-5.0203247701710101, -5.0020833084340683)	(1.7071963708125928, -6.5613518442586347)	(-7.8899645364710222, 5.9872071745191739)	(5.1002297341039604, 1.1826049072514966)	1.0	slash	0.526717
24	M	B	B	A	N	N	A	M	B	8	2	shapes	B	1	True	46	(7.3134299951631725, -2.247390092116901)	(-0.15981530034305358, -0.78410149846357413)	(-7.6616235131517456, 0.21436156359385095)	(0.28336007858582057, -4.9525002253376211)	1.0	z	0.346294
25	N	B	M	N					B	4	1	shapes	B	1	True	46	(5.6832563536349934, -6.0260115060734876)	(-0.71522789376222029, -6.0704770185342642)	(0.42028399977433928, 8.4872616220444783)	(-7.7172287144049108, 4.0476519219331468)	1.0	slash	2.47982
26	N	A	B	A					A	4	3	shapes	A	1	True	46	(8.0994900185420207, 3.9689224825238298)	(-2.105268309988352, 1.1509702416984222)	(2.9859895758130452, -5.354751331327396)	(-2.2336634150855268, -7.7336467533810858)	1.0	z	0.961433
27	M	B	B	A	A	M	N	N	A	8	3	shapes	A	1	True	46	(-4.6131963823903446, -0.24613157839318234)	(1.1953021130649635, -4.9960163452246906)	(-0.48610526671866694, 1.3734563163361511)	(2.3347075504736132, 5.2141810929889161)	1.0	slash	2.29903
28	M	B	B	A	M	A	N	N	N	8	7	shapes	N	1	True	46	(4.8878017827736304, 5.0880923768241395)	(0.58228305456761476, 3.6424355046913828)	(-6.7324491694887776, 1.8827402452087565)	(-8.4150324355241981, 8.7164842049800413)	1.0	z	0.298597
29	M	A	B	M	A	N	B	N	N	8	2	shapes	B	1	False	46	(-2.1235086509478878, 6.587432551177665)	(7.5951168161499183, 3.2900884050932557)	(-7.6458738961242734, -6.2931425410718624)	(-1.8197917803504806, -6.9470885022885671)	1.0	z	4.492
30	N	B	M	N	M	A	A	B	A	8	2	shapes	M	1	False	46	(-5.9735533146176749, 1.3365800298503761)	(-5.8167891916144079, 7.0834473779588496)	(3.8137957185902778, -6.7099113442821459)	(7.8341463957961182, -4.275456774275372)	1.0	slash	1.01352
31	M	B	M	B	N	A	N	A	M	8	3	shapes	B	1	False	46	(-1.6209633522976397, -7.2986755251286048)	(-1.0922850553146635, -0.038272452218054198)	(5.5511845037733707, 6.254298347574899)	(0.053818010445702669, 3.8659461472065839)	1.0	slash	2.0713
32	N	B	A	M					A	4	1	shapes	B	1	False	46	(-0.76849848437114421, 6.6988402046974596)	(-5.5959039104653847, -4.4726320943034636)	(6.4528873134319937, -2.9825430943355533)	(5.457691115647842, 4.6378112288551492)	1.0	z	1.64269
1	M	A	A	M	N	B	N	B	M	8	7	shapes	B	2	False	46	(5.9955571531328395, -3.0792529394923518)	(8.3460441420782168, 4.4896143326906301)	(3.5474388074124814, -8.4911950506868408)	(-8.6322309763139149, 4.4562213371133446)	1.0	slash	0.85044
2	M	B	M	N	B	A	A	N	A	8	6	shapes	A	2	True	46	(3.1101821103576537, -6.0426559860924876)	(-7.3430350694621813, 0.41138915559353251)	(8.5829474789093183, 4.0862571789169451)	(-4.4807434683599805, 4.9834014123263444)	1.0	z	1.01011
3	M	B	B	M	A	N	N	A	A	8	6	shapes	N	2	False	46	(3.9961561178736673, -5.9487021536384379)	(0.46227301888615813, 6.6964892529866624)	(8.1174881043421188, -8.0329023766786207)	(-8.3774752363401941, -6.356086327879682)	1.0	slash	0.953793
4	N	A	M	A	N	M	B	B	N	8	0	shapes	N	2	True	46	(-6.4570447646234221, 7.3957961198772715)	(-0.064776901912045659, -0.20061168336836843)	(-8.3374573921153363, -5.2463289625614813)	(-0.93585740628030756, 7.9913080787544821)	1.0	z	0.935264
5	N	B	A	N	A	M	B	M	N	8	3	shapes	N	2	True	46	(2.4752612444076636, 5.2204911642047698)	(-3.955257609460415, -1.1977813595621667)	(7.9934050627272093, -3.6050899071848397)	(-8.012464538634406, -4.3206526719754388)	1.0	slash	0.888961
6	M	B	M	B					B	4	3	shapes	B	2	True	46	(0.86745973397968967, -6.0962275794692387)	(0.75219320739688911, 4.6362255824465244)	(-6.4738506788663166, 3.4837358330069552)	(-7.1881175365755894, -1.2900200924703693)	1.0	z	0.256469
7	M	A	A	N					N	4	1	shapes	A	2	False	46	(-5.1974202041991981, -3.0668579414572621)	(3.5769231378511677, -5.3448848830590938)	(3.3843305060987703, 6.558814586298471)	(-4.6222509518131734, 5.5061354810316843)	1.0	slash	1.16823
8	N	A	N	M					N	4	3	shapes	M	2	False	46	(4.7469092899045435, -3.9257884326507915)	(-0.87911815397768045, 0.76401270601904692)	(-5.3494872158893978, -7.1236157988550879)	(5.5332052771251501, 2.7878943253589181)	1.0	z	2.15198
9	N	A	B	B					B	4	2	shapes	B	2	True	46	(3.6818988380617022, -5.5083495024539175)	(-8.3748395431383162, -6.4718537331307626)	(8.4818618453089201, 1.7545388385319889)	(-4.0398681992138323, 5.8708240853400984)	1.0	z	1.46748
10	N	A	A	B	B	M	M	N	N	8	3	shapes	B	2	False	46	(0.92770168837040679, -3.5117952811166999)	(-8.6142978343782932, -1.3633952056791161)	(2.2792394881493401, 6.8178607476186084)	(-5.5605671853644045, 7.1514672731454372)	1.0	slash	1.39314
11	M	B	N	N	B	M	A	A	M	8	5	shapes	M	2	True	46	(-4.521710291995003, 0.88259586493395759)	(-0.26044348649197246, 6.163836479478821)	(6.7950403133619943, -3.7570773511329998)	(-1.8243536776063287, -4.5906562055400828)	1.0	slash	1.99062
12	N	A	A	B	M	B	M	N	B	8	5	shapes	B	2	True	46	(7.8557999660606583, 4.2609634976924777)	(-2.5289000166957729, -5.2782369363014805)	(0.41865985979961629, 3.9222696241213839)	(1.7370379623600964, -0.34080311595062618)	1.0	z	0.402293
13	N	B	B	N	A	M	M	A	N	8	6	shapes	M	2	False	46	(0.83459094044791726, -7.8256534367007085)	(-0.036343858056435252, -0.38992960731076742)	(-4.5526732144768234, -2.1348330502510491)	(2.9985451366573752, -3.5877628837884483)	1.0	slash	2.05394
14	N	A	N	B					N	4	0	shapes	N	2	True	46	(-8.5950877743026819, -7.9285413822493567)	(-6.9153928643077771, 4.5715991221642494)	(5.5498375233155439, -0.94933390578286048)	(1.9587856045171552, 6.8174409261708799)	1.0	slash	1.2135
15	N	B	B	M	M	A	A	N	M	8	0	shapes	N	2	False	46	(-8.3026615000263977, -1.4970764067203124)	(5.0997543145243664, -1.1659011473992091)	(8.1227015402715423, 8.5136128902618573)	(-2.9029016854602361, 5.3705090275086516)	1.0	slash	1.51094
16	N	B	B	A					M	4	1	shapes	B	2	False	46	(-4.6280102593357357, -2.0224503669465932)	(6.98649379372673, -7.1563052810852517)	(-1.3215706325947325, 0.75558054890864135)	(7.1840179395002863, 4.2318122590787137)	1.0	z	1.20061
17	N	A	A	N	B	B	M	M	A	8	4	shapes	B	2	False	46	(-6.7120410358953224, -0.98327258715429711)	(6.3949700067761714, 6.979858917287185)	(-6.2405846790122137, -5.3994582496903289)	(8.3221289269759673, 3.3315210231116854)	1.0	slash	1.1963
18	M	B	M	B					N	4	0	shapes	M	2	False	46	(-3.7148045619233621, -5.5075032289869075)	(3.3302484417651499, 7.8141808828529946)	(8.7237845659978071, -5.6899120905499796)	(-7.399495854128932, 6.0278699655158654)	1.0	slash	1.91191
19	N	B	A	B					A	4	3	shapes	B	2	False	46	(-6.0818757505278791, 5.6270413827021564)	(-2.8300194431387986, -4.4943591491247457)	(0.93067521232786632, -7.6673554628637861)	(2.9370625475989787, 7.2215645259856878)	1.0	z	2.07532
20	N	B	M	M					N	4	0	shapes	N	2	True	46	(8.09123033968892, -8.3383578361420163)	(-1.6960265410583544, 2.4186047057926299)	(-8.323754388565856, -5.2003668821079501)	(3.6322431531559829, 3.5388828481552874)	1.0	slash	2.27897
21	N	B	N	B					M	4	2	shapes	N	2	False	46	(4.273177705105633, -2.3313425945766237)	(-2.0599283053896666, -3.1813637387922542)	(-5.8545749436964645, 0.43756604781021124)	(5.249391036679981, 7.5249872546205978)	1.0	z	1.41664
22	N	A	A	B	B	M	M	N	N	8	7	shapes	N	2	True	46	(-5.9975237365277092, -6.4876594362496878)	(5.6900164641152582, 6.7552854202906687)	(7.2099582102080362, 0.011665951050401802)	(-5.7446193375145151, 1.5903845394649778)	1.0	slash	1.39446
23	M	A	M	N					N	4	3	shapes	N	2	True	46	(3.3103886335660402, 6.523578524179527)	(-1.5437493654666463, 7.9110044536432156)	(2.1755566361408487, -1.9790748018094781)	(-0.37221885164387736, -7.7362717627422262)	1.0	z	0.814121
24	N	B	M	A					B	4	3	shapes	A	2	False	46	(8.4522545994275156, 4.8630109834885911)	(-5.2861409810410365, -2.024907207179484)	(5.1361506757293593, -5.7903124802470387)	(-4.7924021375203045, 2.6487878360027732)	1.0	z	1.06169
25	N	B	N	A	A	M	M	B	B	8	7	shapes	B	2	True	46	(-3.9040755861157583, 1.2526704663600352)	(-2.2891098469814875, 7.1867705406760667)	(-8.6552184055213601, -5.6503456558838803)	(1.7084830804569862, -1.0638021627615863)	1.0	slash	1.85093
26	M	B	M	B					B	4	2	shapes	M	2	False	46	(-4.7864063469213107, -4.4447584083733487)	(7.4961193879396681, 8.6563588306673296)	(-4.9839169003872685, 4.5917362363225482)	(1.7481706307484579, -1.4744721341470957)	1.0	z	1.0347
27	M	A	A	N	N	M	B	B	M	8	5	shapes	M	2	True	46	(7.741940041921783, 6.1535401879652198)	(-8.369418548220029, 2.256186933563697)	(5.4724727321935021, -7.6766821115600425)	(6.7565107648687697, -3.1381490877149378)	1.0	slash	1.67227
28	M	A	B	B	N	M	N	A	B	8	1	shapes	A	2	False	46	(-1.613545360507656, 6.0144395934330586)	(1.9441434707752574, 3.1566610619683413)	(3.0321693446755589, -8.5588186224527529)	(4.5537909090386091, -2.3856694571646102)	1.0	z	0.990038
29	M	B	B	M	A	A	N	N	B	8	4	shapes	A	2	False	46	(7.5947444387649163, -4.547570214040447)	(-3.0457443524282821, 7.8573606277338826)	(-5.1554590578253396, -1.0837075004278125)	(-0.80723892582534429, 4.0778314339499619)	1.0	slash	1.56347
30	M	A	A	M					A	4	1	shapes	A	2	True	46	(3.9370679391011993, -0.87082864011378991)	(-8.5248046634000296, 1.3068548431245919)	(1.1550995129607724, 8.0289793354399706)	(-1.4695256460752883, -2.775203708448724)	1.0	z	0.373123
31	M	B	M	N					N	4	3	shapes	N	2	True	46	(5.4168939778522986, 2.2161936373923314)	(8.4172998433204747, -7.5203048045088972)	(-3.1496127446444779, -7.7850483870617682)	(-4.5632025256743773, 6.7688082796256275)	1.0	slash	1.06882
32	N	A	A	M					A	4	2	shapes	A	2	True	46	(-7.7391852120712139, 6.1720605802645743)	(6.1499792456009352, 0.21710713182913111)	(-3.9443940479187836, -5.7189874633766618)	(2.5970673235850956, -5.6349556490294113)	1.0	z	0.264308
1	N	A	M	M	N	A	B	B	B	8	7	shapes	B	3	True	46	(2.0316126822979594, 1.3096254949597963)	(5.9919837675833758, 3.909500941686904)	(-8.0917043383445257, -2.3770725389490073)	(-7.7837007107819201, 3.9547205271846213)	1.0	slash	0.658118
2	M	A	A	B	N	B	N	M	N	8	7	shapes	M	3	False	46	(-6.8811025582433691, -3.214868462059937)	(-0.76743587679282399, 2.8845821961535929)	(-1.9600656104489733, 6.9556656629612856)	(8.7362831607262308, -3.5669021305947783)	1.0	z	0.96973
3	N	B	B	N	M	A	M	A	B	8	0	shapes	N	3	False	46	(6.2948054625728922, 8.0980360716758888)	(4.8565002705032274, 1.4966158430721315)	(-3.6517538356441168, 2.8586356370351282)	(-5.5658685469051532, -3.5577311151413875)	1.0	slash	0.941448
4	M	A	B	M	B	N	A	N	M	8	3	shapes	M	3	True	46	(4.2307366444414196, -7.199341938451127)	(-1.3047130516003982, -8.5032624987557046)	(-3.926940558798294, -3.1215824006361643)	(5.4483891324524638, -1.9523303152622287)	1.0	slash	5.26883
5	M	A	N	A					N	4	1	shapes	A	3	False	46	(-0.33065853748844631, 7.337308529094976)	(-3.8818722464723487, -5.8534691752195673)	(7.9461487307278773, 4.8155780827523262)	(1.4357921709923218, -5.2133223504337751)	1.0	z	0.664178
6	N	A	A	M	N	B	B	M	N	8	6	shapes	B	3	False	46	(-0.014231609952165769, -8.122156736183447)	(-4.8844709910744086, -6.8920843295433389)	(5.0641148780233678, -4.1563793057144025)	(-0.70202307208335668, 7.3433598339795445)	1.0	z	0.720051
7	M	A	A	N					A	4	2	shapes	A	3	True	46	(6.2361042369784023, -4.7990692205263636)	(2.9715500879128225, 1.6649611923247729)	(-8.1385627781821501, -2.7893282628347498)	(-3.6908680820681887, 1.7682971045171705)	1.0	z	0.825613
8	M	A	N	A					A	4	3	shapes	A	3	True	46	(-8.7054719388575581, -7.0247778286165197)	(7.5740084617406644, -8.380518034508011)	(-1.8832137965674027, 3.1454886844676455)	(4.1061879400828438, 8.4457217147163099)	1.0	slash	1.55934
9	M	B	M	B					A	4	1	shapes	B	3	False	46	(-2.0757383409823325, 4.4088118617720511)	(3.7676269902001067, -4.5007225084311786)	(6.2991378802275797, 4.7273077049554093)	(-8.4174989715543536, -7.2808325688715438)	1.0	z	1.95303
10	M	A	B	M	B	A	N	N	N	8	7	shapes	N	3	True	46	(-5.2377612063405508, 4.1283273941923575)	(8.0257212376889981, -3.1691356497001815)	(-4.0854700236757902, -7.7753723798054803)	(-6.8834879912573061, -3.9362267314632371)	1.0	slash	1.9666
11	N	B	B	A					B	4	2	shapes	B	3	True	46	(-7.924274082008349, 4.3383676373018343)	(0.83096368852742053, -4.461912098096807)	(2.1439332357306906, 8.0692124331023329)	(-6.9422706251865884, -2.6864364409639849)	1.0	z	0.584184
12	N	A	B	M	M	N	A	B	M	8	3	shapes	M	3	True	46	(8.352426643389272, 3.9253231032487381)	(-7.4825424373677096, 8.4211622493217781)	(2.2408849893338552, -6.5413571374776209)	(-8.16494032170087, -6.0069083156562071)	1.0	z	0.767478
13	N	A	B	M	M	B	N	A	B	8	1	shapes	A	3	False	46	(3.6888339215223436, -7.0808082438903792)	(0.28299825701737902, 6.9782541613937852)	(-3.719414480068159, 3.7608982137641274)	(-5.8125284977095255, -6.6866348301257714)	1.0	z	0.219492
14	N	B	B	A					N	4	2	shapes	B	3	False	46	(5.4734376060638503, -1.0743184492343092)	(-6.2784720473903786, 7.6970455739161956)	(-2.8907498968413163, -8.6356604225963505)	(6.7044436427594043, 3.9869951681017728)	1.0	slash	1.05703
15	N	A	B	M	N	A	M	B	M	8	6	shapes	M	3	True	46	(0.046135390389977715, -0.23532291223443558)	(8.0256922368552921, -6.0555146400756898)	(6.1839013908220171, 2.6793001392042424)	(7.9486996130991834, 6.7798692718524993)	1.0	z	1.05858
16	N	B	B	N	A	A	M	M	B	8	4	shapes	A	3	False	46	(-2.7595322009336707, 4.8688237058989685)	(1.8700715127531922, -2.8502769945432229)	(8.3098197732691084, 3.1056746512559457)	(1.8618019661230747, 1.4095868218923435)	1.0	slash	1.28229
17	M	B	A	A					B	4	2	shapes	A	3	False	46	(5.7063850990499212, 2.8450916526889305)	(-7.7187779913113985, -8.518711970678174)	(3.8307742525106558, -6.0311894980180174)	(-5.9898792472761535, 5.0920371883361799)	1.0	slash	0.772036
18	M	B	M	A					N	4	3	shapes	A	3	False	46	(5.5988641908013985, 7.8061651415343754)	(-4.8784377307830349, 8.574201988616565)	(-0.42463293653952405, -4.8778949904138447)	(4.7541139228850895, -3.332881744722263)	1.0	slash	1.28365
19	M	B	M	N	A	N	A	B	N	8	3	shapes	N	3	True	46	(2.5991884515263042, -1.367867567845126)	(7.7787522803169438, -8.3936753934077846)	(6.4029301296431242, 2.0490371702875407)	(-4.1630065331522577, -0.20780581452511093)	1.0	slash	0.991117
20	M	A	B	B					B	4	1	shapes	A	3	False	46	(0.47894207766125696, 1.2489778805524061)	(-6.5490258007910933, 2.5521497986108983)	(7.9750681972756716, -3.09002247523894)	(-6.0918068061258346, -3.7894567561691002)	1.0	z	1.099
21	M	A	N	B	N	M	B	A	A	8	1	shapes	A	3	True	46	(-3.0405275565581702, 7.3039637013299199)	(-3.3169559953986898, 1.9819058122947251)	(2.3842178566175551, -2.2663581794504948)	(2.8147872967794303, -7.2352543180731477)	1.0	z	1.65253
22	N	A	N	B	A	M	M	B	M	8	1	shapes	A	3	False	46	(5.8974126184279143, 0.77960189810907288)	(1.837409336278931, 6.0555521524807947)	(-6.8499556897658138, -0.68029279101818929)	(1.231870527930484, -7.6152017868729285)	1.0	slash	0.974203
23	M	B	M	B					B	4	3	shapes	B	3	True	46	(-1.206863094788047, 0.43345807992952423)	(1.9983685285869459, 4.1151979975307551)	(-6.9047897372770235, -7.0653105789985826)	(2.7072704865528419, -5.2688876247201906)	1.0	z	1.366
24	N	B	B	N					M	4	1	shapes	B	3	False	46	(5.241881383766577, -2.2013447273813966)	(-7.8390651569984833, -7.4700542954386728)	(-2.9452704995202543, 6.5527936666581663)	(3.5528512699366548, 4.5302741558426671)	1.0	slash	1.05342
25	N	A	M	B					N	4	0	shapes	N	3	True	46	(3.5876172664970927, 3.4579669924372016)	(-8.6509454923700755, 2.3577581845491835)	(7.5785259364672619, -6.132132041992902)	(-6.8896716131420161, -1.3892428689312215)	1.0	z	1.16503
26	M	B	B	M					M	4	0	shapes	M	3	True	46	(5.0422936987636344, -7.5593703353163875)	(-4.4614103256007764, -2.7641402986394024)	(2.9395770325989723, 2.6127425134548563)	(-6.0052221710382856, 5.0219884661949372)	1.0	z	1.39059
27	N	A	N	B					N	4	2	shapes	N	3	True	46	(5.6379094379275045, 7.4903639242060862)	(-5.3709254975978613, 2.6366005245567177)	(2.8708710888928692, -0.57698176648299793)	(-6.0824530225445654, -2.5436525591224806)	1.0	slash	1.89808
28	M	A	A	B					B	4	0	shapes	M	3	False	46	(6.544197779844783, -7.8469432793903069)	(-6.0745499250856287, 0.84971696999356894)	(-1.0706566994675182, -1.483999369455729)	(2.5995041558211138, 6.7209294630706271)	1.0	slash	1.13529
29	N	B	N	M	M	A	A	B	N	8	7	shapes	B	3	False	46	(2.0708875541279301, 0.24520360949690811)	(-4.6561029140492076, 8.0326717991836993)	(-4.236341715412359, -1.1394303041309923)	(-3.0914403349361441, -5.0551331592200297)	1.0	slash	0.935533
30	M	A	A	M	B	N	B	N	M	8	2	shapes	A	3	False	46	(5.2734696048180041, -2.2627847502861282)	(0.60275787305735129, 6.0692044882206524)	(-5.7476491576027113, 5.1794328745457925)	(-0.77041333503435983, 0.014906556563589746)	1.0	slash	1.07295
31	M	A	B	B	N	M	A	N	B	8	3	shapes	B	3	True	46	(-5.8921880549050414, -6.3470726927243906)	(1.3335600456282428, 0.39812446660927314)	(-8.4623933155912958, -3.0707718561851491)	(6.0829398480200378, 3.1138235064778765)	1.0	slash	0.830732
32	N	B	B	A					N	4	0	shapes	N	3	True	46	(3.3504382269510913, -8.5097534289324361)	(0.3000874336383621, 2.3881408250093674)	(-3.9792552194659025, 3.5969486211162263)	(-2.1229038688117416, -5.3140989527355664)	1.0	z	1.07418
1	M	A	A	M	B	B	N	N	B	8	5	shapes	B	4	True	46	(-4.9043275664943238, -1.3617441861825856)	(6.6713822031046863, 8.2699708270939922)	(-7.6149593064368908, -7.6012762486898664)	(0.92991911209447231, -2.0571794096330649)	1.0	z	0.906041
2	N	A	B	A	N	M	M	B	A	8	5	shapes	M	4	False	46	(3.9921441120841852, 3.1934755070341581)	(-2.4510928495391502, -3.1083368157953357)	(-0.87859005029988246, 1.4683332138813228)	(7.2797403192911041, -5.4772122391087503)	1.0	z	1.04172
3	M	B	M	N					N	4	3	shapes	N	4	True	46	(-6.2720562598856162, -4.0180315671477684)	(3.4285660272549343, 0.036198613486286391)	(-3.0404171379232716, 0.93294160062104226)	(0.47182779148887555, -8.5316146298466755)	1.0	slash	0.971333
4	M	B	N	B	N	A	A	M	N	8	2	shapes	N	4	True	46	(8.5553653772027083, -4.0867579023020975)	(-8.6049268896531661, 5.1509575529573688)	(7.8934739066880617, 7.4248238205729642)	(0.51581990547224166, 7.201115867012243)	1.0	slash	1.38899
5	N	A	M	M	A	N	B	B	N	8	5	shapes	N	4	True	46	(-4.2645382809677024, 1.2349859771173737)	(3.361086948512062, 5.8457831006120458)	(-6.8862637413285368, -7.5085180264404574)	(7.2802451464117652, -7.8599979345403748)	1.0	slash	1.2206
6	M	A	B	B	N	N	A	M	M	8	7	shapes	M	4	True	46	(6.3497354684486194, -0.49038282193776794)	(7.9062248745553418, 4.442743948536414)	(2.7000635198636562, 8.3077051665067003)	(-4.0327990045694468, -0.62690802070819984)	1.0	z	0.892057
7	M	A	M	N					M	4	0	shapes	M	4	True	46	(-7.0284301617838958, 7.2575438919429445)	(4.8930527369434547, 1.6187550129742299)	(-8.0109791575318958, -4.2735060075569633)	(0.23824056931758975, -0.47745005074244062)	1.0	z	0.977899
8	M	B	M	B					M	4	0	shapes	M	4	True	46	(-2.380206829187971, -3.1339128575841961)	(4.6912534844322753, -2.6349944991526559)	(2.7262929941174452, 3.2554934264363471)	(-1.8652882009273153, 2.6732516869804215)	1.0	z	0.93348
9	M	B	A	A	M	B	N	N	N	8	4	shapes	M	4	False	46	(5.7989354080457876, -7.2195741056507767)	(4.1730594656694535, -3.4821605765492878)	(-3.4148251138940839, 7.6513084676789376)	(-4.5636073323117978, -2.7258920558197088)	1.0	slash	0.948985
10	N	A	B	B	M	M	A	N	A	8	5	shapes	M	4	False	46	(-4.6532769922364974, 1.3394820897153821)	(0.0063705015881083682, 5.3572897255781449)	(5.1523962003629791, -8.006859992603987)	(-5.1419810108267914, 5.4530529117852922)	1.0	slash	1.50073
11	N	A	A	N					N	4	0	shapes	N	4	True	46	(-3.666437889103757, -3.6179521770065959)	(-5.9439098128220511, 3.8082586366969462)	(6.4280059126260038, -5.480787954201455)	(3.038160424393217, 2.9252877119843337)	1.0	slash	1.37838
12	N	B	B	M	A	N	M	A	M	8	1	shapes	B	4	False	46	(-6.3786301064512525, 4.6335706257534603)	(-2.6832957529878447, -1.1533066559464107)	(3.2976198457091321, -0.26318813757851167)	(6.520249206085353, -5.7826818427456494)	1.0	slash	1.32202
13	M	B	M	A	B	N	A	N	N	8	7	shapes	N	4	True	46	(6.738110093262268, -2.5864160748630454)	(3.8879733791452438, 2.0857044106685567)	(-5.9713649637246284, -6.9174243685924193)	(8.0909725894473397, 6.9442501385494779)	1.0	slash	1.09967
14	N	B	M	N	A	M	B	A	N	8	0	shapes	N	4	True	46	(-8.093292314708334, 4.0473581250599828)	(-6.7302978476646231, -1.7246635824923642)	(-2.3634918613322329, -6.1282207645881179)	(8.3849860901871125, -4.1765802956152438)	1.0	z	2.61911
15	M	A	N	N	B	M	B	A	M	8	5	shapes	M	4	True	46	(-4.6349898610231923, 2.335705901508744)	(-3.3751873201107063, -3.073569015686326)	(4.1761863763898539, 2.2179625062611557)	(-6.7157459780275151, -7.6005053125957636)	1.0	slash	1.12273
16	M	B	N	N					M	4	0	shapes	M	4	True	46	(6.8826773678630513, -8.7139019525443651)	(-7.4017182048232328, 0.058148876191765453)	(-4.188839236958775, -2.5565380470526478)	(4.2626699334348537, 7.9465377556017422)	1.0	z	1.06614
17	M	A	M	N					N	4	3	shapes	N	4	True	46	(-3.0130351205667143, 0.37340095457762956)	(2.6396921543707101, -3.7015958383484895)	(-6.8583253100059434, -1.4487893730440291)	(6.0897573094276467, 8.2851000429867412)	1.0	z	1.44023
18	M	B	B	N					M	4	1	shapes	B	4	False	46	(3.4218322708713433, 3.9892410540762135)	(-1.9414672759558638, -5.6680107339566597)	(-5.1435743722492289, 2.903551555021906)	(3.6977304515717915, -6.5714004600042681)	1.0	slash	1.47368
19	N	A	A	N					A	4	0	shapes	N	4	False	46	(-5.8719630845099262, -2.7892541362733816)	(5.3585099106170286, -4.3453567119344303)	(-6.348434963174646, 3.1143565886202076)	(7.5769447974220974, 0.52526569685361046)	1.0	slash	1.32522
20	N	A	A	N					M	4	3	shapes	N	4	False	46	(-7.2444185283378086, -7.3694253039208126)	(-7.6276444528312881, 1.5151808291378703)	(2.3633337749678205, 8.2621417611239707)	(8.7187336457286477, -3.6375813307002307)	1.0	slash	1.0708
21	N	A	B	N					A	4	0	shapes	N	4	False	46	(-3.507079011462559, 2.0762876192493529)	(1.5568313340950848, -2.8719498711520348)	(5.7234989412968371, 5.3541006851167623)	(-6.5862565102789388, -7.6832473993764605)	1.0	slash	1.38633
22	M	B	M	N					N	4	2	shapes	M	4	False	46	(-8.0088013474523887, -2.3105559029552944)	(-6.6441862911750622, 6.2079282591455218)	(0.32401206081202005, -7.4090706283605279)	(3.6885621402402897, 1.8532297714225319)	1.0	slash	0.934012
23	N	A	A	M					A	4	3	shapes	M	4	False	46	(-0.53465443222519227, 8.1417283505006814)	(3.998799949616771, 6.3016257954839254)	(3.4289440321370055, -0.76874304056956433)	(-2.1150612236548554, -5.4167226099840917)	1.0	slash	0.923743
24	N	A	N	A					N	4	3	shapes	A	4	False	46	(3.5599395625405741, -4.8396418828308576)	(0.23421735721671055, 5.8953841396995177)	(-2.8218328819127549, 2.3645436626998375)	(-3.6823896237919058, -5.5279581637732189)	1.0	slash	1.17126
25	M	A	M	N	N	B	A	B	M	8	3	shapes	N	4	False	46	(1.8837106998468371, 7.6907123251161273)	(-1.0186821909707104, -1.1159364007532577)	(3.3425438157405036, 3.3557662030820055)	(-2.4321592800433427, 6.8259824489377525)	1.0	z	1.22692
26	N	B	A	N					A	4	2	shapes	A	4	True	46	(0.97067844047446883, 0.96826001781504445)	(4.5976179791790734, -2.9003138324275906)	(-8.3716700067329324, -2.0020897586024891)	(-2.448101645044523, 5.0779111677373621)	1.0	z	1.29663
27	M	B	M	A	A	B	N	N	A	8	5	shapes	B	4	False	46	(3.7558002221358233, -7.3201694069862544)	(2.6324082706380612, 3.2640322581368757)	(4.6796396423831546, -1.2673156834944272)	(-6.3698970751968407, -3.3946191217974064)	1.0	slash	1.33037
28	M	A	A	B	M	B	N	N	B	8	5	shapes	B	4	True	46	(-3.7234968371388497, 3.4639638269839512)	(2.2500745714426849, -0.093976060650115656)	(3.1904551432019677, -4.6768704869576538)	(6.5907783956895916, 1.1104800243915101)	1.0	slash	1.21985
29	N	A	N	A	B	B	M	M	M	8	1	shapes	A	4	False	46	(-5.6382839811583647, 1.5813700032613767)	(-1.5556748069985247, -6.6558903359033916)	(2.6373207663870577, -1.9913105444401387)	(4.3621096249591407, 8.2414476201465909)	1.0	slash	1.2915
30	N	A	B	N					A	4	1	shapes	A	4	True	46	(3.2155759381993114, -3.6985719493688594)	(-0.50371815894722083, 2.272385257399149)	(-5.5328744856442373, -5.0457063218891296)	(6.2758097980839764, 1.4181193586905092)	1.0	z	1.33709
31	N	B	A	B	N	M	A	M	N	8	7	shapes	M	4	False	46	(3.482861349194863, 2.2276143725414492)	(-3.3926782271820954, -8.1224045214312373)	(-4.9996888687177314, 2.0983320442682682)	(0.87714916222559935, -2.5775770550159338)	1.0	slash	1.52267
32	M	A	B	M					B	4	3	shapes	M	4	False	46	(5.8709720901209383, 3.2817552582568421)	(-1.9099992852009731, -2.716528817652077)	(-8.2748210485743172, 0.96294491802396465)	(2.2712891325811206, -5.1481528441814266)	1.0	slash	0.972423
1	N	B	A	M	M	A	B	N	M	8	3	shapes	M	5	True	46	(0.44929166343126248, 1.5624467375323725)	(-5.7509247488347413, -2.9841999244134971)	(7.9490437536205896, 0.54783327088618528)	(2.5322853649510328, -5.1133750518456855)	1.0	z	1.29791
2	M	A	M	A	N	B	B	N	M	8	0	shapes	M	5	True	46	(-7.7817856653241133, -4.7630734558507815)	(3.8189054995834866, 2.5717993620289299)	(2.4153000913416065, -4.3525482551219401)	(-7.55934348448472, 1.7742403525605912)	1.0	slash	1.02744
3	N	B	M	M					B	4	2	shapes	M	5	False	46	(-4.935648491749224, -4.1406353330516676)	(3.1535496890720953, 6.1868212714873678)	(6.4796704089486994, -3.7032589089781158)	(-8.39599670099566, 4.4813347612088474)	1.0	slash	1.10292
4	M	B	A	B					A	4	2	shapes	A	5	True	46	(8.5339879513027377, -1.0922149245392232)	(-3.2710712867145597, -1.0398081250485411)	(3.0891918631315658, 3.0415876661571382)	(-5.3097967633518097, 5.8649246893142024)	1.0	z	0.28455
5	M	A	A	N					N	4	3	shapes	N	5	True	46	(-6.8400534739652255, 4.830366192140902)	(2.9969333888532823, -6.1511227849036221)	(6.6756307287726955, 5.8472338392550718)	(-6.7342011317475201, -4.3773423849337219)	1.0	z	1.03848
6	M	A	B	B					M	4	3	shapes	B	5	False	46	(-6.7812915346456144, -5.5299482918879672)	(6.166561080921678, 1.9330238914949636)	(-6.138939892807211, 5.2113574090286594)	(1.7126940600466831, -4.7739619982081276)	1.0	slash	1.16002
7	N	A	M	N	A	B	M	B	B	8	7	shapes	B	5	True	46	(-8.0657836197903023, -1.605874736229274)	(2.9722855373225912, -3.9457029885495167)	(-4.5833766149070261, -3.6413883178911144)	(8.3303103388693636, -3.2698552895233037)	1.0	z	1.79764
8	N	A	M	B					B	4	3	shapes	B	5	True	46	(6.0206206690654671, 2.5564832832303388)	(-7.5770714773292012, 1.355187266504986)	(-1.2924608852840871, -3.3030825250724734)	(0.3126005419832687, -8.4647143264929756)	1.0	z	0.943352
9	M	B	B	A	M	N	N	A	A	8	5	shapes	N	5	False	46	(-7.976077853359687, -7.1508738555621418)	(-0.39386428657817518, -2.1351314464814379)	(-6.2282171094997869, 8.7396710550618373)	(3.2738954149882602, 8.4651920960633227)	1.0	slash	1.2049
10	M	B	M	B					B	4	3	shapes	B	5	True	46	(-4.348332305028312, 6.9967395426088252)	(6.5638060246545287, -3.6452143894136162)	(-7.0423815297518919, -5.4324046904434109)	(5.1635212878538823, 7.3742490907761997)	1.0	z	1.79842
11	N	A	N	B	A	B	M	M	N	8	2	shapes	N	5	True	46	(-7.3680909477550642, -2.085482386485416)	(-7.4434654723025258, 2.7758612311985225)	(-4.4868461624358371, -7.0161454853425482)	(7.0013792734176885, 7.8570984737192511)	1.0	z	0.971816
12	M	A	M	N	N	A	B	B	B	8	6	shapes	B	5	True	46	(-3.4327072807604964, -0.067952903734044057)	(1.7507940734975804, 7.8250507713848947)	(-8.5348607383750856, -8.2345855810015784)	(-4.2605006992189765, 5.8148289472083778)	1.0	slash	1.85965
13	N	B	N	B	M	A	A	M	B	8	1	shapes	B	5	True	46	(-7.4708331244570374, -5.8697062924387957)	(-5.4284270794200413, -2.4252439806875579)	(1.3519707339614921, 1.8182113967255447)	(7.3941136024574696, -5.4687522903746695)	1.0	z	0.333434
14	N	B	B	M	M	A	N	A	N	8	1	shapes	B	5	False	46	(-5.0691923668834473, -5.3048596161687627)	(2.8664350484787082, 2.688868482066006)	(-7.4002600898401312, 4.4472851099781039)	(-0.43118712603806308, -0.044073497761232261)	1.0	slash	0.326707
15	M	B	A	A	B	M	N	N	A	8	5	shapes	M	5	False	46	(-2.4145471110246257, -4.2323978002463871)	(-5.3694076106800859, 2.180169970245041)	(0.32309435358322247, 7.3202518641842467)	(2.4089948910850332, -2.4320325764502906)	1.0	z	0.546788
16	N	B	A	N					N	4	3	shapes	N	5	True	46	(5.4898778472999261, 5.9967458561049689)	(-4.2579399741622721, -5.3415236294205686)	(-7.7215389117345961, 2.9045464858908048)	(6.0403227005728706, -7.4824011943113478)	1.0	z	4.70426
17	N	A	A	N	M	B	M	B	N	8	1	shapes	A	5	False	46	(-5.7410641576838195, -7.2326781940359259)	(7.376371881609451, -6.3471864285130053)	(7.6641941180863142, 1.9233435720304097)	(-2.2585974791284382, 4.3910999162247624)	1.0	z	1.37373
18	M	A	M	B	B	A	N	N	B	8	1	shapes	A	5	False	46	(5.0586150453095122, -5.274699030361063)	(-7.9838967601128372, 5.2821615810100244)	(4.9917436033647142, 3.0405029009970193)	(-5.6604694711009049, -3.7987369597717509)	1.0	slash	1.82917
19	M	B	B	M					M	4	2	shapes	B	5	False	46	(-3.4567881529094127, -5.8161423975957138)	(3.4962440930131944, -1.3652871586316255)	(-7.7809144186179147, 0.40034832596615466)	(8.2130918480138, 8.1702216135014929)	1.0	z	0.736746
20	N	A	M	A					N	4	0	shapes	N	5	True	46	(3.1682398065534993, -7.2989104719738993)	(6.6896507829115865, 4.3655891692882172)	(-3.5244183108368459, 1.0481347127290963)	(-3.8743331698220791, -5.5419998616975121)	1.0	slash	0.952654
21	M	A	A	B					M	4	1	shapes	A	5	False	46	(-1.0911965291735584, 1.6912604586053579)	(4.5923434937867054, 4.0558473335869483)	(3.5807556037837323, -1.8356401921144023)	(-8.7071275363018916, -1.0819706907207367)	1.0	z	1.30829
22	M	A	A	N					B	4	2	shapes	A	5	False	46	(5.3921234486645364, -7.3884055197696075)	(8.4718179012226358, 3.9539757153902642)	(-4.1441098940996763, -1.138135842636788)	(-5.7245472632516679, 6.4264089089336771)	1.0	slash	1.8157
23	N	A	N	B	M	M	B	A	M	8	5	shapes	M	5	True	46	(-1.9489720635520262, -5.4948134267199578)	(7.7841150754118189, -1.9932912701485179)	(-6.1709050494656612, -3.5606361565926585)	(3.2338332183357679, 3.3758149501455517)	1.0	z	1.33766
24	M	B	M	B					B	4	3	shapes	B	5	True	46	(6.1831157820822789, -3.9024136491872001)	(-1.3440895738400283, -5.5875098472107583)	(-7.712699460813865, 5.3722635523150331)	(0.74352094394934198, 3.3631423440031547)	1.0	slash	0.791072
25	N	A	A	B					B	4	3	shapes	B	5	True	46	(8.0399285311466997, -0.99919689422503577)	(-7.3523463595139331, 8.321655072870918)	(4.7760578847788011, 2.7755041769462565)	(-2.8170898752577491, -5.3908521935465359)	1.0	z	0.256764
26	N	B	M	B	N	A	M	A	B	8	3	shapes	B	5	True	46	(-0.45949352313832925, 5.4707140203730766)	(6.8109907541412795, -4.5997905227172389)	(3.6319760860318944, 4.9634967805410177)	(-0.85070507886322666, -6.1866936410598452)	1.0	slash	1.0163
27	N	A	A	M					A	4	3	shapes	M	5	False	46	(-3.4265626659690964, -7.0969009004316721)	(-1.7871066569606899, 5.4310256003760422)	(3.0905691097571548, -7.7972036933870728)	(5.1035333091613246, 0.063988244045924958)	1.0	slash	1.24798
28	M	A	N	B	M	A	N	B	M	8	5	shapes	A	5	False	46	(-0.12777548708688258, 5.1716155348042818)	(-4.0446648354487564, -2.9006841896300575)	(-6.853444965918893, 7.1601431213660707)	(4.9901704512052518, 1.5425170020811674)	1.0	z	0.809598
29	M	B	A	M	N	A	B	N	N	8	0	shapes	M	5	False	46	(1.2485402588330476, 5.1806956497603824)	(5.3073695152893379, -0.8704299609528956)	(-2.8713829530594666, 2.3264931803143405)	(6.5752625224177645, 3.2803620621381135)	1.0	slash	0.733331
30	N	A	M	B					B	4	0	shapes	N	5	False	46	(-2.9825470154986684, 7.9531881416511006)	(3.6824173343479423, -5.5134825200263364)	(-3.3755168922479335, -8.0106480278984087)	(7.0274146958503572, 1.6354839964536936)	1.0	z	1.30888
31	M	B	B	M					A	4	3	shapes	M	5	False	46	(7.7699167376931335, 1.5324523904184346)	(-2.1860531387255673, 2.0864399361891035)	(-6.3945346687648996, -3.8593725578198779)	(0.57610057429455175, -6.0320219345283732)	1.0	slash	1.37654
32	M	B	M	N	A	N	A	B	B	8	5	shapes	N	5	False	46	(2.7303484821746267, -6.6008482678835669)	(-0.79827535704861763, -2.2120853964371383)	(-8.3441401963864568, -5.3549932953626183)	(-0.16664921933022825, 2.1904159749996932)	1.0	slash	1.24758
1	N	A	A	N					M	4	2	shapes	A	6	False	46	(7.561047159855903, 4.408613256836265)	(4.6809542322936846, -7.7517214985093377)	(-6.6132604522759397, 4.9713222593373967)	(-8.466284734215721, -7.6551733297334268)	1.0	z	1.08383
2	M	B	A	N	M	B	N	A	B	8	5	shapes	B	6	True	46	(4.7681992515018461, 8.3513498732276794)	(-5.8057983927445793, 2.7951496305322845)	(1.0246317765580102, 1.7279695829385151)	(1.1793130533395484, -6.9002838431363953)	1.0	z	1.31736
3	M	B	N	N	M	A	B	A	B	8	6	shapes	B	6	True	46	(-7.2268221007883628, 8.6590642711844694)	(4.0051209235278655, 4.6769139870573131)	(5.9896736721598742, -1.4084122509037673)	(-5.3515081253725079, 4.07130213958167)	1.0	slash	1.15314
4	N	A	B	N	M	M	A	B	A	8	7	shapes	B	6	False	46	(4.5547442541220402, -0.5815758845067176)	(-7.3892633281541364, -2.2889890127075869)	(2.4989287427768367, 3.5084313514212546)	(-7.8296335767500249, 6.4172591346787229)	1.0	slash	1.20671
5	N	A	B	M					M	4	2	shapes	B	6	False	46	(-5.4467386588002018, 4.6907529581541336)	(7.8642870014470674, 2.6007315960105331)	(-3.864028527108327, -4.6382690346725823)	(1.7176867643967419, -4.4593055762942857)	1.0	slash	1.24032
6	M	A	B	B	N	N	A	M	M	8	2	shapes	B	6	False	46	(3.1544599452638629, -5.9890581496728146)	(0.66492639961672317, 7.9147676439941641)	(-7.8410034020494948, 7.3102023514514087)	(-4.1408061990992691, -1.3838706738372206)	1.0	z	1.76589
7	N	B	N	M					M	4	3	shapes	M	6	True	46	(-0.45320924170530397, 2.4303199681337322)	(0.90813428146376829, -4.8805080000196543)	(-5.2680530443669289, -7.6619169831335654)	(0.47169853026892028, 7.8155215802850861)	1.0	z	1.19961
8	N	B	B	M					M	4	3	shapes	M	6	True	46	(3.9795564853210976, -4.3299039872772047)	(-6.9705806865883204, 2.1711439549026608)	(2.4934647506287533, 6.8805095816461534)	(-2.1278794339874949, -2.708007170713282)	1.0	z	1.13725
9	N	A	N	A					B	4	0	shapes	N	6	False	46	(-8.0242002204792886, 3.8976401903110229)	(3.5700984395023774, 1.6141192541745255)	(-2.5871431428644796, -1.3775941439302368)	(8.0785581179438921, -7.0630125490854256)	1.0	slash	1.31873
10	N	A	B	B	A	M	M	N	M	8	5	shapes	M	6	True	46	(-5.0311968150056323, -3.3820250599514949)	(-4.7382858005723341, 2.9754970311743634)	(2.1035622575123423, 2.8989437135498957)	(7.4354829373295637, 4.1469351559531127)	1.0	z	1.42624
11	M	B	N	M					A	4	2	shapes	N	6	False	46	(-1.0959636408725721, -7.3191538728993155)	(0.84630097516347824, 8.464961883607522)	(0.9837648180035572, -0.33314823256714554)	(-5.0811906320425262, 0.38221318291798312)	1.0	slash	1.15193
12	N	A	A	B					B	4	0	shapes	N	6	False	46	(-0.71398313258721835, -2.4584778174039688)	(2.7497782468153193, 1.65994215272862)	(-4.6124056713078359, 8.2284285134108934)	(4.3833061244584588, -5.5357247170559765)	1.0	z	1.21153
13	M	B	N	N					N	4	3	shapes	N	6	True	46	(4.2208774067727663, -2.8053891381776142)	(8.5887627322023121, 1.5942843274450311)	(-1.1164013469823155, -1.2385571893737843)	(-3.6485907426507751, 4.3037810754164418)	1.0	z	1.0112
14	N	A	A	B	M	M	N	B	A	8	1	shapes	A	6	True	46	(4.0172860662760002, -8.5064178926601848)	(-7.9251024605122371, -5.0626234370377592)	(8.610147761820258, 7.082979772349109)	(1.4530466243858431, 5.312026506562928)	1.0	slash	2.11685
15	N	B	B	M	N	M	A	A	N	8	7	shapes	A	6	False	46	(1.3269408082214493, -5.4789383829030687)	(-7.816093323691593, 6.8526876721548504)	(6.9862312464886855, 5.7435831397995472)	(2.9348124753521709, 5.6583900519414811)	1.0	slash	1.07238
16	N	A	B	A					B	4	2	shapes	B	6	True	46	(4.6856479197795853, 2.6070879850262738)	(-8.5800276720690594, -8.5928488340896365)	(1.2934227600205439, -8.6179262372008267)	(-6.5766527726287851, 6.6003826287495713)	1.0	z	1.35593
17	N	B	B	M					N	4	0	shapes	N	6	True	46	(-1.6899040476901899, 7.8756120128684053)	(1.469060450765733, -1.5840391326070087)	(7.159291026171001, 8.0227826740722108)	(-2.6081376161075758, -7.5080716714033002)	1.0	slash	0.63173
18	N	A	B	N	B	M	A	M	N	8	3	shapes	N	6	True	46	(4.5261532757884329, -7.9443713175415205)	(-0.6320562012897124, -7.1840687683933027)	(-3.4919528548484839, 5.3536297675534446)	(3.5983631892216739, 1.5331893395546938)	1.0	z	0.908758
19	N	A	B	B	N	A	M	M	B	8	0	shapes	N	6	False	46	(0.484258789510708, 7.5294353627521708)	(-6.2909552539675975, -4.8122358082800698)	(-6.8170116262262184, 1.6746487536023373)	(1.9498011303246088, -3.2402310569271142)	1.0	slash	1.11731
20	N	A	N	A	B	M	M	B	A	8	3	shapes	A	6	True	46	(8.4406862563744518, -3.2798791888552383)	(0.34911735490016049, -4.4501049960420662)	(-6.9094222670021033, 8.1090277199770036)	(7.3545170565204465, 2.1465097876805483)	1.0	z	1.56054
21	N	A	B	M					A	4	2	shapes	B	6	False	46	(1.4464083645167385, 5.3449850549578084)	(-2.204588912868954, 2.2865343642768323)	(1.6757162402933048, -4.2935809183505809)	(-3.8105932423015592, -5.1425450481183272)	1.0	z	1.09815
22	M	A	B	N					A	4	1	shapes	A	6	True	46	(5.0102620426987716, -5.544717879259851)	(-6.4105921530504464, 6.7032569247349372)	(-5.5885244688744535, -4.5844130274728618)	(6.1049411821106609, 2.1247841343163465)	1.0	z	1.0637
23	N	B	A	A					A	4	0	shapes	N	6	False	46	(4.300697978879974, 4.7203058287973079)	(0.95762665970119087, -7.3028755382309516)	(-5.25955845029155, 6.9364666823385548)	(-0.92402759073761676, -2.0350408897019454)	1.0	slash	0.829593
24	M	A	B	A					N	4	1	shapes	A	6	False	46	(7.9385478409415384, -0.0054476000359215959)	(-1.6666885705773957, 1.5975042396463763)	(3.5582329793389569, 3.4268638474703472)	(-5.4884096088836252, -7.6338531480922942)	1.0	slash	1.56099
25	N	B	A	M					M	4	3	shapes	M	6	True	46	(-5.1475244357334446, 0.37504090964902304)	(8.0983408051027297, 3.8935206488648024)	(6.8721781432320839, -1.6136423821111876)	(-3.4659391101418997, -6.0709254935174579)	1.0	z	0.818766
26	N	A	B	B	N	M	A	M	A	8	7	shapes	M	6	False	46	(-3.6197133450406334, -5.5534585440774933)	(-5.1700800929608421, 7.0235031585305272)	(4.1428435887668122, 1.65702831322875)	(1.229621128685185, -8.0633182891384472)	1.0	slash	1.71639
27	M	B	A	N	N	A	M	B	N	8	7	shapes	B	6	False	46	(-0.59144429150708788, 4.1889809450902575)	(1.7635972587900408, -3.1386584209919643)	(-0.41967901326564849, 8.3572897860706306)	(7.9517686359190805, 1.5210768875127574)	1.0	slash	1.59385
28	M	A	A	B	N	B	M	N	A	8	2	shapes	A	6	True	46	(-2.2491205870545574, -2.4795182682605601)	(-7.4143422103705872, 1.3199378144646907)	(6.551983567139068, -4.0861913410511974)	(3.1040839650257954, 8.2141024717270383)	1.0	slash	1.40761
29	M	B	B	M	A	N	N	A	B	8	3	shapes	M	6	False	46	(-6.391418704648542, 0.4905890698729678)	(-2.1994567588093688, -7.0673057730820652)	(-2.1762079658976106, 6.4864572299811663)	(-5.4933286308978726, -3.4322758088275105)	1.0	slash	1.09914
30	M	A	M	A	B	B	N	N	M	8	3	shapes	A	6	False	46	(-4.1272287753610071, -7.5519241800767816)	(-7.038096149077913, 8.3235157110250988)	(-2.3573545891880547, -1.1962789311927651)	(-2.1392574230511707, 5.7963660108096811)	1.0	z	1.56264
31	M	A	M	B					M	4	0	shapes	M	6	True	46	(5.9666915042274322, -2.8934274261555597)	(-4.7688285318726162, -7.9591851766539365)	(7.5592718735912001, 8.3238594196896578)	(-7.4936859679372816, 7.0315261199151458)	1.0	slash	2.86629
32	M	B	N	M	N	B	A	A	A	8	7	shapes	A	6	True	46	(-1.1569979005872861, 4.6342988096709821)	(-6.1529963517700246, 8.5082417479735781)	(3.3891945196919835, -3.8115745798604239)	(-5.5302998601116258, -8.7113553055389925)	1.0	slash	1.28008
1	M	A	M	B					B	4	3	shapes	B	7	True	46	(-2.6146063170121705, -4.316304150111165)	(6.2140557835268115, 3.0043657330047449)	(-6.6597000944467055, 7.7996058205956729)	(2.8185554037513558, -7.5703311839667649)	1.0	z	1.76551
2	M	A	M	A	N	N	B	B	A	8	1	shapes	A	7	True	46	(4.4340039851772186, -7.6161931725337793)	(0.068006138742640942, 1.4688017468215655)	(-2.7154308216689529, -1.7865944267932941)	(-4.8997040898372219, 8.7456582348055711)	1.0	slash	1.72695
3	N	B	N	M	A	M	A	B	B	8	1	shapes	B	7	True	46	(1.3557995188303877, -5.6043787367054847)	(-5.217753856068807, 6.1954702866658966)	(8.1209664046647632, -3.4809528267762975)	(-3.4716277464153737, -5.764987258909998)	1.0	z	0.586404
4	N	B	A	N	B	A	M	M	N	8	0	shapes	N	7	True	46	(4.1545001682046383, 7.3708577657317988)	(-2.0258935520111256, 2.088421055082069)	(3.245713220799896, -0.088089644375251908)	(-5.5340717681054459, -2.4526366763778187)	1.0	slash	1.37824
5	M	B	M	A	N	A	N	B	M	8	0	shapes	M	7	True	46	(-1.0900118527030962, 7.6186717500301597)	(-5.2680800449268324, -3.8140689244261878)	(8.599470953874075, 2.8628913703050642)	(-5.3715127420269866, -8.682981718625248)	1.0	z	1.16186
6	M	A	A	B	B	N	M	N	B	8	5	shapes	N	7	False	46	(-0.37056159759834273, -8.1606939355696682)	(2.3364443196657838, 3.7924324177751565)	(-5.3838982940853644, -3.1046972532087374)	(7.6830254020347475, 3.035545660842903)	1.0	z	1.57955
7	M	B	M	B					A	4	1	shapes	B	7	False	46	(5.6555258010771201, -6.254664067548438)	(1.1392596185872872, 0.15558014729601943)	(-0.37132434187772745, -6.0060042517432164)	(-3.3780758623743701, 7.133500066701286)	1.0	slash	1.00923
8	M	A	A	N					M	4	0	shapes	M	7	True	46	(0.23863605461915149, -4.042566384192205)	(1.7961209938355633, 3.2044420135598664)	(-5.9672175065629132, -3.4397682812615287)	(-5.9598511652950155, 1.3073049288810754)	1.0	z	1.19275
9	M	B	A	B					M	4	1	shapes	B	7	False	46	(8.5686977089273917, -5.2231593829558687)	(-6.5517878784739807, -8.6627891282364633)	(-8.2039254865307605, 3.7087838412215195)	(2.9765112735709884, 0.070985733443654553)	1.0	slash	1.79427
10	M	B	A	M	A	B	N	N	M	8	7	shapes	N	7	False	46	(-2.1652227720094874, -2.0702562398001092)	(8.1771564249935942, -7.4478590601665449)	(7.6370509723405355, -2.9429424827929926)	(6.0870712108106293, 4.7927726348964672)	1.0	slash	1.13587
11	M	B	A	A					B	4	1	shapes	B	7	True	46	(3.6270813559360242, -6.0864059345846782)	(-3.3329252894698911, -4.7901131979213254)	(-7.9054108233018194, 7.1845003832559815)	(7.609413586675867, 7.2090596430223641)	1.0	z	0.743603
12	M	B	N	M					B	4	1	shapes	B	7	True	46	(-5.0947207676897941, 2.4016453414021601)	(-7.4254347688401765, -5.5073462049077158)	(0.78046924058184075, 7.8721202906505141)	(6.0645284530637156, -7.0050574168772961)	1.0	z	0.869289
13	N	A	B	N	M	M	B	A	N	8	3	shapes	N	7	True	46	(-7.3693171166828471, 6.4133688344483346)	(1.5367957616768653, -0.9376849613083289)	(0.21375597239041788, -7.1314430037559031)	(-4.0543309397783114, -6.1278160097826024)	1.0	z	0.964882
14	N	B	N	A					A	4	1	shapes	B	7	False	46	(5.0581167551104844, -3.9127372807868515)	(-8.617821356531941, -1.923309019274698)	(-7.9676090675633171, 6.1924811574888334)	(3.9104732110460763, 4.6524958010010593)	1.0	z	0.932576
15	M	A	N	B	M	B	A	N	B	8	3	shapes	B	7	True	46	(-4.4471443653388318, 7.7230244902057947)	(7.1889148925072348, -0.26185448307181325)	(8.3220782967233298, 4.8588716209733374)	(0.37138542575121747, -6.6092259491257277)	1.0	z	1.21403
16	M	A	A	N					A	4	1	shapes	A	7	True	46	(7.1628128175396881, -0.24922140452443031)	(-6.3460403487747765, 8.217071714218573)	(-5.8377245891428116, -1.847298356083563)	(5.1424189735239647, 5.0484992341950097)	1.0	slash	2.58173
17	M	B	B	M	A	A	N	N	N	8	5	shapes	A	7	False	46	(7.5541288939196392, -3.175571895461748)	(7.7595645930022776, 4.089747196960781)	(-0.037066021127225568, 2.0583169111491184)	(-5.0902120023525628, -7.5822721117312764)	1.0	slash	0.443179
18	M	A	B	N	N	A	B	M	M	8	1	shapes	A	7	False	46	(-5.9032624653258852, -8.6069763150454897)	(1.7468193933198908, 5.8759446837864662)	(-5.570014275644132, 8.3318628911100561)	(-7.4549494867842272, -4.0832483632581562)	1.0	slash	0.638944
19	N	B	A	N	B	M	A	M	B	8	1	shapes	B	7	True	46	(8.6786944726070665, 7.0544696718118605)	(6.2673218284999681, -5.6046010907952368)	(-3.3502636468188749, -4.7677056005555105)	(0.91483345231730517, -7.9887024790739432)	1.0	z	0.916673
20	N	A	N	M					N	4	2	shapes	N	7	True	46	(-0.82791680388279776, -8.2323102707499451)	(-4.2905173907229077, 0.5617214061658089)	(5.4716181609281414, 5.0466144735640057)	(5.4011890313365019, -4.4343336920317107)	1.0	slash	0.848234
21	N	B	M	A	B	N	M	A	N	8	5	shapes	N	7	True	46	(8.6557268596234778, -5.9940014476489862)	(-2.6170427076642087, 6.4602873334083029)	(-8.1002170131892175, 7.8632555929626413)	(3.3996478195496405, 3.0288331620600104)	1.0	z	0.683923
22	M	A	B	M					B	4	1	shapes	A	7	False	46	(5.2939610960416825, 5.1208092951757074)	(5.1729085433928574, -1.0396204229952133)	(-8.5240746080547858, -5.4976767909145172)	(-3.4932156908227254, 8.4779023571485261)	1.0	slash	0.331564
23	M	B	N	N	B	M	A	A	B	8	2	shapes	N	7	False	46	(-2.4874840695009688, 5.9770914815367124)	(2.0112389047553165, -2.0100411157297158)	(4.268432146898629, -5.830205993921119)	(8.1672654806163045, 5.2368023441332099)	1.0	slash	0.603176
24	M	B	N	M	A	N	A	B	M	8	6	shapes	A	7	False	46	(4.0486714509226491, -6.6045560043097336)	(-8.6866527213906117, -4.9860369300462031)	(3.9413445289953621, 2.8423711646469663)	(7.1315816342588985, -0.71844261049825597)	1.0	z	0.578953
25	N	B	B	A					B	4	0	shapes	N	7	False	46	(-2.8773606016410449, -5.7545267089951331)	(4.4958587625443602, -8.6361665781674635)	(6.9687366680162874, 8.5205900434128807)	(-4.1778263516368481, 1.122129122761228)	1.0	z	9.35039
26	N	B	A	A					N	4	0	shapes	N	7	True	46	(-8.0320177638798711, -8.4173183203187207)	(4.2818192719484802, -4.4254578282429415)	(0.0049712173105334045, 6.4840481516160011)	(-8.704845029835008, 3.3747763530785591)	1.0	slash	0.225672
27	M	B	M	N	A	N	A	B	N	8	0	shapes	M	7	False	46	(-3.7688036307786543, 2.5525902046590687)	(-1.3652027755630485, 6.6145873811680129)	(0.55898613481954129, -7.5936529193729951)	(4.1731592723095812, -2.1152926539794592)	1.0	slash	0.678716
28	M	A	A	B					M	4	0	shapes	M	7	True	46	(-6.5809425002206128, -6.1622280616890546)	(1.5869648995390229, -6.7607972611230167)	(-3.2878141748976528, 3.3811319255465495)	(5.0579794121366373, 0.52791206307931837)	1.0	z	0.952944
29	M	A	A	M					M	4	2	shapes	A	7	False	46	(-8.0574350168911355, 0.72988769877483861)	(1.230689420674473, 6.8040675157394617)	(7.4214487994359501, -8.1009770582762588)	(-0.82282199479590101, -6.6742917663579258)	1.0	slash	0.244582
30	M	B	N	B					M	4	1	shapes	B	7	False	46	(5.6797329515577335, 1.9788231364208997)	(-5.1398321445367667, 0.19943465732757382)	(-7.8603296111130838, -7.3073337810021766)	(4.677547799758365, -7.6480931680099866)	1.0	slash	0.710267
31	M	A	B	N	B	A	N	M	N	8	5	shapes	A	7	False	46	(5.2057281402267783, -2.4213767261023067)	(4.3532567482021189, 2.7359496873300948)	(-2.2894292062044119, -6.8713854277132196)	(-2.6990447776071971, 1.9926470251023343)	1.0	slash	0.921879
32	N	A	A	M					M	4	1	shapes	A	7	False	46	(5.6359390768677216, -6.1003627539348155)	(-2.1273984961810202, -6.2805502908884172)	(-4.9768176957130787, 1.5063486173019456)	(2.0588362943103693, 0.47871179332959635)	1.0	z	3.05157
1	M	B	B	M	A	A	N	N	A	8	1	shapes	B	8	False	46	(4.6197026719064862, 7.2429285848801523)	(7.1078327732213715, -6.3142172166426622)	(-6.090961747761682, -1.9408015623669765)	(-1.4304968159817619, 3.0554662292689034)	1.0	z	0.949077
2	M	A	M	A					A	4	3	shapes	A	8	True	46	(-6.5822661908128524, -6.5452669545901809)	(-6.7371576522892127, 0.78586664886218927)	(3.2587804533061355, -1.7010427926913865)	(0.14547804297822076, 4.6991305579019134)	1.0	slash	2.0568
3	N	B	B	A					B	4	1	shapes	B	8	True	46	(-8.0861092173000699, -4.2707664396195124)	(1.9575399684791197, -0.98261000990619607)	(-7.4266360741002435, 6.1103803450758871)	(4.1820998348467189, 8.0751962176863934)	1.0	slash	2.25638
4	N	B	N	M					A	4	3	shapes	M	8	False	46	(6.4460368144866678, -0.12986902267186018)	(0.013751011921449674, 3.8456063388452133)	(-2.0730463111669426, 7.5672249335474469)	(-5.35881779075478, -3.975832253416149)	1.0	slash	1.99969
5	N	A	B	B					A	4	1	shapes	A	8	True	46	(2.4650492085416573, 2.31624385113758)	(6.2770029961110279, -8.5291239659771687)	(-2.2141936796549606, 6.1893394071711008)	(-6.2456423401979402, -6.1030100600324992)	1.0	slash	3.20118
6	N	B	A	M	M	N	B	A	A	8	6	shapes	B	8	False	46	(0.29356539876433807, -6.5569316689839647)	(-6.5925565735947398, -0.10235008703705795)	(7.5933267932131372, -6.0409666655185656)	(-0.80123244629354229, 7.4683670667774891)	1.0	z	2.88432
7	M	B	N	A	N	A	B	M	B	8	1	shapes	B	8	True	46	(-3.2962489194858149, -0.35245648101270355)	(-0.61164901458585241, 5.7889569073248968)	(1.4573997882928005, -6.4397285131313611)	(-7.9111211105217887, 2.359370653413821)	1.0	z	3.19231
8	M	A	M	N	N	A	B	B	B	8	7	shapes	B	8	True	46	(-1.2716845083995478, 0.11800700036279643)	(-7.5457028125711219, 4.2282352905371408)	(8.357321652325119, -2.1066613745176328)	(-4.55351280578002, -5.8790352999956985)	1.0	slash	0.873879
9	M	A	M	N					M	4	2	shapes	M	8	True	46	(7.0774223639312073, -7.736669235657109)	(-4.9550946033245893, 1.7508921300548401)	(6.0013351334440266, 3.2205163667946692)	(-5.0008499868033827, -3.2320277807502356)	1.0	z	0.277499
10	N	A	A	B	B	N	M	M	N	8	0	shapes	N	8	True	46	(7.0507365210785231, 1.3331681434940865)	(-1.0528096026073968, -0.62206299698824452)	(-5.9752374734345706, 1.78816133495733)	(3.5387805580279803, -2.7808819580807871)	1.0	z	1.4032
11	M	B	B	M					A	4	0	shapes	M	8	False	46	(3.6025098620493452, -6.9229711344129692)	(-3.7913259517001698, 1.2131294168373081)	(6.3186544566529346, 7.5679123362795977)	(-5.0691262344713302, -7.3831007026920918)	1.0	slash	0.852693
12	N	A	B	A	B	N	M	M	A	8	1	shapes	A	8	True	46	(-7.3636460998209463, 8.3379150676556648)	(-2.3297065782954114, -8.4459722894284432)	(-8.4569772485116452, 4.0143467040263516)	(6.4927949282667008, 7.0606084767530408)	1.0	slash	1.20452
13	M	A	N	A	M	B	B	N	N	8	2	shapes	N	8	True	46	(3.5360642072916626, -5.5927571816680199)	(7.2067646296542112, -3.5259432156590433)	(4.4264398678801271, 0.58877441486463944)	(3.8613966032061526, 6.0336468244955324)	1.0	slash	0.27203
14	M	A	A	M	B	B	N	N	N	8	5	shapes	B	8	False	46	(-5.7417157154429965, 8.4161297374628994)	(2.9550536801578904, -3.4277154132492322)	(2.3718979855941704, 7.9461153074594328)	(8.5387345310786671, -0.64536048310778149)	1.0	slash	1.01177
15	N	A	M	M	A	N	B	B	A	8	4	shapes	A	8	True	46	(4.7079058958529192, 7.3303695116979526)	(-5.8931201679015119, -3.5645618025486954)	(1.8730902207546194, -6.8875793490455486)	(-6.4122439573365639, 2.791978624586358)	1.0	z	1.14876
16	M	A	B	B	N	M	N	A	B	8	2	shapes	B	8	True	46	(-1.3305930093879077, -0.015769041513353343)	(3.5994863112643571, 4.6510977220895473)	(6.8218773277743914, 0.75426416978873867)	(5.515578905695433, -4.7927858710323976)	1.0	slash	2.60295
17	M	A	B	N					N	4	3	shapes	N	8	True	46	(3.6232488934950489, 5.1096223964034788)	(-6.367782956337523, 5.7933364716116031)	(-3.5335097729673111, -2.4305105991213569)	(4.4531558749858462, -3.5957388920402069)	1.0	slash	1.09245
18	N	B	B	N	M	A	M	A	M	8	5	shapes	A	8	False	46	(-3.4849570257563736, 4.0509158515440866)	(-7.6233377723109461, 7.8469734141411713)	(8.3261934759316887, -8.736599190394136)	(7.3958729399653365, 5.471351380261213)	1.0	z	0.702235
19	N	A	B	M					B	4	2	shapes	B	8	True	46	(-8.5551034766619569, 0.36149226496004694)	(6.1911161951220546, 0.74211000693045293)	(8.4076587509747114, -2.5989650230912051)	(-3.6267735054726984, -2.5985744308953169)	1.0	z	1.61964
20	N	A	N	M	A	B	B	M	N	8	2	shapes	N	8	True	46	(-1.2153925636576606, -2.350372380297423)	(7.8462392577539752, 4.8001620560990528)	(2.177940892161546, 6.0655027234114343)	(-5.9965301811267722, -7.7985658529763127)	1.0	slash	0.867299
21	N	B	A	N					M	4	2	shapes	A	8	False	46	(-6.5195036743990613, -2.4107585634504689)	(-3.6143409165049274, 7.29957089938096)	(4.1941635427091555, 1.1959440112847535)	(0.39428298269867668, -7.6579079055764101)	1.0	slash	2.03301
22	M	A	N	B					A	4	0	shapes	M	8	False	46	(-7.226046908750547, 5.0149028448903081)	(2.1278895054389242, -5.3315907058978613)	(0.37817201156633828, 7.0264967416831716)	(-5.2673655324295412, -1.8938669102645873)	1.0	slash	0.980587
23	N	B	B	M					A	4	2	shapes	B	8	False	46	(8.6323211534737645, -7.2819544352106549)	(-1.9118120471412459, 4.3468707964736293)	(-0.01908751804899822, -0.29729886815867523)	(7.5207454869882682, 4.6980980064395403)	1.0	slash	0.834299
24	M	A	A	M	N	N	B	B	M	8	7	shapes	B	8	False	46	(7.7275500252645877, 1.1791923609248194)	(2.8994523798682383, -4.5692695940916952)	(-6.6531424086492219, -3.3257027753958726)	(-0.54103630940314318, 8.4484880501679598)	1.0	z	0.431926
25	M	B	B	M	A	N	N	A	A	8	1	shapes	B	8	False	46	(-5.6805418423486103, 0.85324729382750597)	(0.56518867853965205, 0.10139322520526584)	(6.9319199397551721, -5.2941444227483876)	(7.2445618769289819, -1.1460522690831416)	1.0	slash	0.117327
26	M	B	A	A					M	4	0	shapes	M	8	True	46	(-5.4161563690364396, 1.1503362207892653)	(-3.0770703923966236, -3.1176129718592209)	(1.4272009274552957, -5.3831014551589629)	(7.9235116535953267, 7.8463605605076303)	1.0	slash	3.42311
27	M	A	N	M					N	4	0	shapes	M	8	False	46	(5.3992108803838494, 1.9872700745066663)	(-5.8879739621986555, -6.6928689860649779)	(1.185738183224224, -1.4306657231342701)	(-8.6601112018411701, 0.4691360591529552)	1.0	z	1.23471
28	M	B	A	M	A	N	N	B	B	8	4	shapes	A	8	False	46	(-7.8110524375642099, -3.2482799368424189)	(-7.0188655969703193, 0.97669338526939598)	(-5.6149530631778877, -6.74813046764499)	(6.7776229464992834, 0.74280918210444646)	1.0	z	1.29448
29	N	A	M	M					B	4	3	shapes	M	8	False	46	(4.5706016776473337, 7.3836868637246518)	(-6.1058220395390501, -4.9407695988169777)	(0.93655616327231961, -5.6571427346464844)	(-7.7996322055844489, 1.833608634496116)	1.0	slash	0.981992
30	N	A	B	B					N	4	1	shapes	A	8	False	46	(5.052764465410565, 6.0464383252821818)	(4.6216162108071952, -3.836169146923071)	(-0.13175286033049538, 7.8335685740157466)	(-4.5062120347367589, -0.19578321440343061)	1.0	slash	1.02766
31	N	B	M	M	A	N	B	A	A	8	5	shapes	N	8	False	46	(5.7437687218703175, -0.59009776418112736)	(0.13212584561931173, -6.4741447448285285)	(-4.6678894455023041, 3.8787117425657396)	(-8.637462481475545, -0.77917465947650122)	1.0	slash	2.07259
32	M	B	M	B					B	4	1	shapes	B	8	True	46	(-4.7928077199220205, 2.6188244414047279)	(-2.1271892038609561, -2.1748467005159826)	(0.58113541208369668, 8.4476590235282387)	(6.4070507019884388, -5.9029467372409892)	1.0	z	0.908875
