TrialNumber	stim0	stim1	stim2	stim3	stim4	stim5	stim6	stim7	stim.probe	ttl.stims	corr.num	trial.type	stim.corr	block	match	Subject	stim.pos0	stim.pos1	stim.pos2	stim.pos3	ran	resp	RT
1	M	A	B	N	N	B	M	A	A	8	2	shapes	B	Practice	False	47	(7.4077902410079695, 4.4023602489678861)	(7.0621181472228045, -1.8649897913024853)	(-5.6663859139807231, -0.038396560499434074)	(-3.1375797451078435, -7.6930868230980813)	1.0	slash	1.53015
2	M	B	N	A					B	4	0	shapes	M	Practice	False	47	(-3.2322316448439299, -2.9465463864165908)	(-7.9718506890443344, 2.3236335986485308)	(7.0494389432171847, 7.252316568237692)	(2.942354243168829, -1.3329957173730378)	1.0	z	1.47398
3	N	A	B	B					B	4	0	shapes	N	Practice	False	47	(7.5067770319704614, 6.7416078011795388)	(-2.3059536704229169, -6.7116171140505108)	(8.2714214197131, -3.3685127344721355)	(-7.2541980023852037, 5.4525811533054664)	1.0	slash	0.893505
4	M	A	M	A					A	4	1	shapes	A	Practice	True	47	(4.6990945617043351, -7.502650929893429)	(-1.2847852939731075, 0.3333101184661853)	(-4.4520644711628279, -2.3441858391269541)	(7.4632858684426466, 6.0215240058655297)	1.0	z	1.03695
5	N	A	M	N	M	A	B	B	M	8	2	shapes	M	Practice	True	47	(0.42124393620636091, -1.3059484670178119)	(-6.911576624468089, -3.5222207115791946)	(-8.5645926533650147, 3.5539030773701477)	(-0.5054093770050887, -6.1378259417122054)	1.0	slash	1.01802
6	N	B	B	A	N	M	M	A	B	8	1	shapes	B	Practice	True	47	(-3.1668775330302017, -6.3054954161481289)	(3.3672987406856993, 1.7932458649719543)	(-8.370169958535282, 2.1784295119393793)	(8.1290878930287533, 0.41199294956297727)	1.0	z	0.996319
7	N	A	M	N					N	4	3	shapes	N	Practice	True	47	(-7.9053431955336917, 2.263016997270876)	(3.6867761961506158, 2.9408794739694208)	(2.374710815600773, -1.6561851714068689)	(-1.4647159990903447, -6.852717120138105)	1.0	z	0.823839
8	M	A	B	B	N	A	M	N	B	8	6	shapes	M	Practice	False	47	(-5.4907629724014893, 1.7330357788671904)	(5.4054258022897947, 2.3106213204446764)	(0.059326246017398887, -4.5686307777931621)	(-4.653001933600577, 6.7052089935181751)	1.0	slash	1.07154
1	N	A	A	N	M	B	M	B	N	8	0	shapes	N	0	True	47	(2.1659859131670558, 1.6617716669080274)	(7.2062546283833999, 0.20783550837594156)	(6.6741782465089354, -5.4491096133731141)	(-6.19469159031377, 6.2772574077192971)	1.0	z	0.91523
2	M	B	N	A	M	N	A	B	B	8	6	shapes	A	0	False	47	(6.7683058140911694, -3.0653751353672254)	(7.3533784314046819, 1.5504966194562932)	(0.96547539516167724, -1.0312689481384956)	(1.2155072097549944, 4.4050417177085013)	1.0	slash	1.03306
3	N	A	M	N	A	B	M	B	A	8	7	shapes	B	0	False	47	(-5.1500944899853884, -0.93588148682462169)	(4.3434610269147651, 2.888878551582966)	(-1.9285837925070357, -7.9489835974271053)	(-7.2099004965350204, 3.8829699591813434)	1.0	slash	1.01473
4	M	B	N	N					A	4	1	shapes	B	0	False	47	(5.1487268261282093, 5.1705548388016673)	(6.6173735364459585, -8.0234160930105531)	(-3.4817618815539637, -5.8714260737595669)	(-6.4438370399529363, 1.4063800702301847)	1.0	z	0.95037
5	N	A	A	M					B	4	1	shapes	A	0	False	47	(-5.9694766678168465, -6.7858411754665937)	(-3.1469677940632712, 1.2059023636455795)	(5.7583109898215117, 6.1496016186546782)	(8.2952921914690023, -5.1244965643347324)	1.0	slash	1.08997
6	N	B	A	M					N	4	1	shapes	B	0	False	47	(-0.80587016342145823, -1.6627609290915419)	(-2.3631223618680606, 4.1696642631165002)	(4.8508782406985169, -1.2763333906613088)	(1.9519885899273106, 5.0135423724315498)	1.0	slash	0.937668
7	M	A	N	N	B	A	B	M	N	8	3	shapes	N	0	True	47	(-2.2095414139143692, 7.8487995433983002)	(5.8049525172073082, 7.3313269060140343)	(0.05119058845317781, 3.4854406813579786)	(-8.1146535414207346, -1.7301935175563248)	1.0	slash	0.795239
8	M	B	A	M	B	A	N	N	M	8	6	shapes	N	0	False	47	(1.1411233149961042, -0.59496490679699576)	(7.6784746058489759, 2.3821033600180446)	(1.6002316944863324, -5.9955639566118979)	(-6.9166576117808392, -5.0530876062603092)	1.0	slash	1.14489
9	M	B	A	M					M	4	2	shapes	A	0	False	47	(7.3423511085907833, 0.52582571131445022)	(3.3959788292450988, -1.1971763793853087)	(-5.8845198040507576, -0.10784667834651529)	(-8.2690828146824558, 3.7305144121032825)	1.0	slash	0.828574
10	N	B	N	A					N	4	1	shapes	B	0	False	47	(-7.3172835830445822, -1.1475162001492256)	(8.6597622188747572, -0.80824757108834966)	(2.8296257172479109, 5.7864804651443524)	(-7.1142036370335076, 6.3090143655069664)	1.0	slash	0.624131
11	N	A	N	M	M	B	A	B	N	8	2	shapes	N	0	True	47	(-6.9571928166405064, 7.0095120238500748)	(0.03855569091708233, 1.5205454695074412)	(-4.8096211206187718, 0.03681310769951196)	(4.4011297753499523, -4.0600094229355701)	1.0	z	0.935718
12	M	B	A	B					A	4	0	shapes	M	0	False	47	(-1.6946730775540697, -8.107982511476596)	(6.900348225733282, 0.05445727191596994)	(-3.8847535688365555, 1.8729656114247675)	(3.9431794524198391, -4.2374285473431925)	1.0	slash	0.767555
13	M	A	M	A					M	4	2	shapes	M	0	True	47	(-4.3870618118765279, -6.652686540441481)	(-5.4525409414153456, 6.0328146536373168)	(8.024505040231972, -0.40236854555464419)	(1.3195635293076791, 4.8983104502518007)	1.0	z	0.663097
14	M	A	N	M	A	N	B	B	B	8	4	shapes	A	0	False	47	(7.8693088047003918, -8.5981435969533049)	(-6.2280425180563412, -0.78908061436324406)	(3.2526123242349971, 2.5397502647701913)	(-3.1575414229300423, -4.2262212278265761)	1.0	z	1.11883
15	N	B	M	M					M	4	2	shapes	M	0	True	47	(1.4502599968733296, -0.3930895830866401)	(8.0085866681591149, 0.084574465899294182)	(-4.5238756939524833, -6.8055890975481557)	(-8.0511028743214759, 2.2089586497986655)	1.0	z	0.776352
16	M	A	A	N					M	4	0	shapes	M	0	True	47	(-2.1108386564789727, -6.0516723640900238)	(2.2898770726301354, 1.7435939472011341)	(8.6726057379031722, -5.9740866950692268)	(-3.9968410342667937, 0.87572540930915821)	1.0	z	0.744056
17	M	A	A	B					M	4	3	shapes	B	0	False	47	(-3.6062410139510863, 3.0838333095903732)	(-6.1371728522167466, -0.72827489188569849)	(7.6390613763767981, -4.7010590736660998)	(2.6966003229029472, 5.5801319372094156)	1.0	slash	0.677784
18	N	B	B	M					M	4	3	shapes	M	0	True	47	(-8.4107432478505881, 4.2451752568077996)	(-7.5355281556653981, -1.8805535240457392)	(4.3353470095553295, -3.0593070709693588)	(7.7732100302590119, 8.1147370067282623)	1.0	z	0.69534
19	N	B	M	A	M	A	B	N	A	8	6	shapes	B	0	False	47	(3.6706333304715741, -3.9935605340959608)	(3.3059481432857876, 8.0547567275415588)	(-2.8413576427962255, -6.4421006229336903)	(-1.6136577836839834, 0.59381828277630788)	1.0	slash	1.12098
20	M	B	B	N					M	4	0	shapes	M	0	True	47	(-3.8996349917435706, 2.6094706214887218)	(6.0599406692675579, 3.1339511173115717)	(-5.3882107397023713, -5.3185670433199324)	(4.0275124433157377, -4.3828976961199748)	1.0	z	0.930682
21	M	A	A	M					M	4	3	shapes	M	0	True	47	(-0.93430154036171764, -0.96340074076935611)	(7.2495851537178115, -3.9786421815947808)	(7.3979573320046903, 6.574639905079108)	(-1.5928554286288295, 3.0402011362930192)	1.0	z	0.722265
22	N	A	A	B	B	M	M	N	B	8	3	shapes	B	0	True	47	(-3.0166156583809451, 6.014782883171474)	(5.0104434089128684, 4.4396108403194319)	(-8.1703708490819782, -1.914957632220859)	(-8.1595911851329355, 5.9400305712511017)	1.0	z	1.30998
23	N	A	M	B					M	4	2	shapes	M	0	True	47	(2.4195097255150682, 4.6358795010956761)	(-0.94294243466768091, -6.8926497180144608)	(-5.0848940279563335, 0.68707457176384601)	(7.8117752776030045, -6.5169105935861182)	1.0	z	0.753694
24	N	A	M	B	B	A	M	N	N	8	7	shapes	N	0	True	47	(-5.0364335788079737, -2.3225572052750598)	(2.3731871941349567, -6.1007728411914979)	(-6.7359551620796614, 3.7109920130734508)	(6.032991167228472, -3.5678479212110705)	1.0	slash	0.647146
25	M	A	M	A	B	B	N	N	M	8	2	shapes	M	0	True	47	(-3.2264230944618868, 1.5670464184478377)	(0.79223587549630103, 0.0080184357699870645)	(-2.9682986866451486, -5.8992195147958917)	(7.3881877032885583, -2.1054608123438188)	1.0	slash	0.810965
26	N	A	M	A	M	N	B	B	N	8	5	shapes	N	0	True	47	(8.1414614386888466, -5.0026196404155829)	(-3.1839749162530797, -5.1272124968285251)	(3.4227704598130479, -5.8268001277735362)	(5.7168019622280362, 2.0153478586986253)	1.0	slash	1.43651
27	M	B	A	B	A	N	M	N	A	8	5	shapes	N	0	False	47	(5.3784108933289136, -6.6218451582066669)	(7.8820511642909921, 7.0049185109934466)	(6.7031928833677892, -0.10982527728216063)	(-3.6034919113830473, -7.7974113797156566)	1.0	z	1.27437
28	N	A	A	B	B	N	M	M	A	8	6	shapes	M	0	False	47	(6.3292618911801721, -0.81748130976685474)	(5.2357130661747746, 8.3645026184480216)	(-3.3484227956340087, -2.4558355082807877)	(-8.6902818969840556, -8.4634495149584144)	1.0	slash	0.799934
29	M	A	N	M					N	4	0	shapes	M	0	False	47	(-5.7460967391662319, 6.6174032336144837)	(5.376336140366595, 7.3403134615486252)	(5.1827815971187583, -5.4859551884476687)	(-6.5639693167043376, -1.9271582399970235)	1.0	slash	1.05742
30	N	B	B	A					N	4	0	shapes	N	0	True	47	(2.0348866773009604, -5.2141634062427897)	(4.0000042172844097, 5.8252601260752677)	(-7.0588323411301879, -4.5049689787721157)	(-8.4496961596405686, 7.7663480214614076)	1.0	z	0.695181
31	N	A	A	B	M	B	N	M	N	8	2	shapes	A	0	False	47	(1.4886991509264664, 0.079103886689884106)	(0.5244161612068563, 4.2328326595128196)	(8.3189129312526227, -1.095083418633104)	(4.5649881688230565, -7.592077665900022)	1.0	slash	0.89687
32	M	B	B	A	N	M	A	N	M	8	5	shapes	M	0	True	47	(8.6604802969579424, -5.0098225836769368)	(-3.8119798294614426, 1.2307464153258536)	(-2.1978999981655276, 7.7060921595645802)	(1.0416280620061205, -5.4230426141235162)	1.0	z	1.09836
1	N	B	N	B	M	M	A	A	B	8	0	shapes	N	1	False	47	(7.7392690351835718, 1.2800724192822202)	(-4.886338817264714, -1.8072115249963741)	(-1.6399269689191431, -8.4413140106035573)	(2.7899991838445182, 2.4251665122361867)	1.0	slash	0.792057
2	M	A	N	A	M	N	B	B	M	8	0	shapes	M	1	True	47	(5.1207809721120245, 4.5582656151204528)	(-2.2626039840850982, 7.3116043356532145)	(0.9966596627659694, -0.62645378538122287)	(5.6407890400901959, -7.0751360952622324)	1.0	z	0.525546
3	M	B	B	N	M	N	A	A	B	8	1	shapes	B	1	True	47	(4.0880042247681576, -5.3674107002154319)	(-4.6444029466736687, -5.3239035258131953)	(-2.3326571314514162, 7.8237262148129005)	(-1.4097485888229766, 3.6739344778788503)	1.0	slash	0.78548
4	N	B	A	N	M	A	B	M	B	8	2	shapes	A	1	False	47	(-0.45098257802243324, -7.5431105688048952)	(-7.3784147045138111, -2.290892023813166)	(3.297099771105465, 7.4729112666871558)	(0.49111718526119041, -0.50130978716853392)	1.0	slash	0.92091
5	N	A	B	B					B	4	2	shapes	B	1	True	47	(7.3372744391003302, -5.2241468234085922)	(-4.8938616372088894, -0.38492740011204774)	(-8.0616154589947282, 6.3146609329046335)	(7.7865217336773114, 1.2642214244532166)	1.0	z	1.21075
6	M	A	A	N					B	4	0	shapes	M	1	False	47	(2.668477644194617, -5.8421049904601912)	(5.6066496704006799, 5.3016447500752175)	(-1.1452540491389493, -0.04021489020781388)	(-8.5308531360637474, 4.7401177309289864)	1.0	slash	0.681969
7	M	A	M	A					A	4	1	shapes	A	1	True	47	(-8.3042956777849906, -8.1118407803834458)	(3.4590030588366858, 2.53513790820503)	(-2.0964480602386244, 8.508582564385204)	(6.021733112106137, -7.9763046346511937)	1.0	z	0.667804
8	M	B	M	N					A	4	1	shapes	B	1	False	47	(7.9535304722573059, -7.5136862031427212)	(-5.9440332281185757, 8.2379020716031128)	(-6.162373832843528, -2.1580147654557642)	(0.86338432519238673, 4.2417262527427759)	1.0	slash	0.671525
9	N	B	N	M	A	A	B	M	M	8	2	shapes	N	1	False	47	(-2.6533224100937058, 1.1009529422779938)	(5.8446977771300084, 5.2847784377157083)	(1.3161872347256427, 2.5120665520491166)	(5.8741892241495037, -1.253977406233183)	1.0	slash	0.773222
10	N	A	M	A					A	4	1	shapes	A	1	True	47	(-4.8710485513869486, 6.0906011296846465)	(4.7740172383939967, -3.3156449270914541)	(3.43796928755817, 6.5431224134892148)	(-6.8246035123011195, -4.763036346386194)	1.0	z	0.732822
11	N	B	M	B	N	M	A	A	B	8	6	shapes	A	1	False	47	(-8.6603598328076998, 7.514836033119586)	(-2.1657602990933613, 0.67372274033460577)	(6.1404037817639932, -5.9361444987220953)	(1.4000897841372719, 3.4576881929852803)	1.0	slash	0.798657
12	N	B	B	A	N	A	M	M	B	8	3	shapes	A	1	False	47	(4.3381935600642674, 5.4460861604300472)	(-1.1284804431173789, 3.3451398572930664)	(-1.1330572055648132, -4.4075957880295444)	(5.6084970511427521, -4.0983151788740475)	1.0	slash	0.964305
13	N	A	A	B					M	4	2	shapes	A	1	False	47	(0.69021770370178182, -3.3969848862247076)	(-6.7084075881635927, -0.27717260578533143)	(3.9052532276012908, 4.2844466391145968)	(-6.2685740092024371, 7.5437688073140237)	1.0	slash	0.717879
14	N	B	B	M	M	A	A	N	N	8	5	shapes	A	1	False	47	(-7.1974838655044087, 2.2235750504020384)	(1.214284352553463, 4.1592222654782418)	(6.4787241558539232, 6.6005587755738357)	(5.8388258924731584, -7.3999410016754412)	1.0	z	0.747515
15	M	B	A	B					M	4	0	shapes	M	1	True	47	(6.9362623919910682, -4.1481573780164833)	(4.579719643683239, 1.331909228335828)	(-6.4614079438742902, -3.4273136521235879)	(-3.0435133643215773, 8.6970099038569266)	1.0	z	0.695043
16	N	A	M	M					N	4	1	shapes	A	1	False	47	(-2.3453457553143888, -2.7473316589910857)	(6.7253299927270191, -6.7657716290932628)	(2.1754984693446549, 6.4268315852907527)	(-7.0922451496822978, 1.678960098893354)	1.0	slash	0.500882
17	M	B	M	B	N	N	A	A	B	8	1	shapes	B	1	True	47	(7.3346219618748165, -8.4268251620942127)	(-1.8249254700998963, 7.3888934531531554)	(-7.391145054380976, -3.5666365704970664)	(1.5177425102626021, -6.8807533508603091)	1.0	z	1.14859
18	M	A	A	N					B	4	1	shapes	A	1	False	47	(-0.02280442164794394, 7.8016636605792407)	(-7.477639376839341, -4.9681841430590303)	(4.2115103891736432, 8.6503870741062983)	(2.483894246385006, -5.7020936883691959)	1.0	slash	0.801106
19	M	B	M	A	N	N	B	A	N	8	4	shapes	N	1	True	47	(8.4038947800063184, -4.8023729858233875)	(3.5666618739535085, -7.8717081478802742)	(-0.48552815023971796, 8.5212562373213991)	(8.2107235597902495, 3.0995983357891834)	1.0	z	0.931911
20	N	A	M	B	N	B	A	M	B	8	3	shapes	B	1	True	47	(8.4097194234861234, 5.4534750095653877)	(-5.8480205625718433, 2.5361638951950134)	(-2.4215360162359749, -0.016128845610319686)	(2.8300960351275428, 7.439577978600898)	1.0	z	1.30941
21	M	A	N	A					M	4	1	shapes	A	1	False	47	(0.35601146927399085, 2.7858414931036375)	(-0.99770970031797646, -5.405803167917397)	(3.7376870287425596, -8.2858420587165575)	(-1.1709713581366836, 7.2768216881789343)	1.0	slash	0.785153
22	M	B	B	A					N	4	3	shapes	A	1	False	47	(1.9466690859550706, 8.2210653038834423)	(-1.8390535286910401, -3.6289290624939152)	(6.0306987605347668, -1.1936203677857806)	(-1.9751113517045642, 2.3759680683611695)	1.0	slash	1.40663
23	M	B	N	M					A	4	3	shapes	M	1	False	47	(-7.0551814107849022, -3.1140759323813789)	(0.50820521193116086, 1.0228316509658786)	(8.4304222479933202, -0.31532071321425725)	(-7.6524985403232932, 6.6048252850767302)	1.0	slash	0.67232
24	M	B	A	N					B	4	1	shapes	B	1	True	47	(4.3856237601225594, -3.6977410983513792)	(2.7657910670961972, 6.9274644609575642)	(-2.1047707611142235, 5.5232126881808696)	(-6.9329755892768468, -1.6664681507064074)	1.0	z	0.628
25	N	A	B	B					B	4	3	shapes	B	1	True	47	(7.4653516493060508, 8.1852934974835208)	(-0.22882614998303197, -1.717852528079387)	(-3.8159336914165083, 3.3043121221387093)	(4.9594996758741718, -1.3916240864260292)	1.0	z	0.711746
26	N	A	A	N	B	M	M	B	A	8	1	shapes	A	1	True	47	(8.6773823063843274, -0.40194474110083434)	(-1.244972810372218, 0.42391743683382188)	(1.7014216337002583, -3.5890922158548593)	(-8.2648036164849508, 8.6048189231488585)	1.0	z	0.909088
27	M	B	M	N	A	A	B	N	N	8	3	shapes	N	1	True	47	(0.91848019568287498, 4.7999426685544204)	(-7.3458968392778861, -4.3559773249537557)	(-2.3637101318872986, -5.4819306726438386)	(-6.5912707683016585, 5.0931687597197133)	1.0	slash	0.717052
28	M	B	B	N	N	M	A	A	N	8	5	shapes	M	1	False	47	(-6.6946393877768671, 4.1961171965342778)	(3.5217120917091904, 6.0438572324164319)	(0.92601355960724163, 1.8953747071553337)	(4.0169215888306073, -1.9758683438176954)	1.0	slash	1.16272
29	M	B	A	M					B	4	1	shapes	B	1	True	47	(-5.6384367972296126, 0.3602856758074946)	(4.6265714225886043, -6.7117928565714724)	(-7.9844627331582956, -6.9096085981222108)	(0.74611946582150424, 5.4668572811789371)	1.0	z	0.884279
30	M	B	B	N	N	A	A	M	N	8	6	shapes	A	1	False	47	(2.9935190941335623, 7.9537559017576704)	(5.0177835773161412, 2.2839371228381449)	(2.5913138221183996, -1.3487125738337467)	(0.22780030444024568, -8.6801298224403869)	1.0	slash	0.519964
31	M	B	M	B					M	4	2	shapes	M	1	True	47	(-1.0520237710577858, 0.69776512774063626)	(2.3975126122304111, 3.3770379647666893)	(7.6314936626915966, -1.2229075869341663)	(-3.41462182797898, -7.7627234955693591)	1.0	z	0.593758
32	N	B	A	A	N	B	M	M	M	8	6	shapes	M	1	True	47	(-7.2170739012130767, 7.2786399285528773)	(-2.6007301117924335, 2.6506326668473399)	(-7.6466589578967756, -5.8414737777711974)	(1.9512246059736356, 1.4056850224176287)	1.0	z	0.743266
1	N	A	B	N	M	B	A	M	N	8	7	shapes	M	2	False	47	(4.942049341894176, -2.8768351220518449)	(1.6430882474216251, 5.6747742469028513)	(-7.901341504949972, 2.918658305812567)	(-6.501335779505057, -6.0854438459628959)	1.0	slash	0.800924
2	N	A	B	B					M	4	1	shapes	A	2	False	47	(-2.9777355634274825, -4.7384288164563726)	(-1.5424598498403688, 3.776136447354995)	(6.8472695094068161, -5.7110304318904888)	(4.8830261672159949, 8.0859109030558258)	1.0	z	0.698617
3	N	A	B	B	M	N	A	M	A	8	1	shapes	A	2	True	47	(-7.6918289840910026, -5.3568006878893506)	(-7.6856134397267262, 5.206432112533232)	(1.4258523760507718, 6.704162336520735)	(-0.89572839939133875, -2.4879736915956308)	1.0	z	0.876311
4	N	B	A	N					A	4	2	shapes	A	2	True	47	(-6.6640318619096854, 0.30810987804786727)	(1.7627345745857177, 5.1744064083756278)	(5.7485888624549659, -2.0740497723893458)	(-4.2524324211056861, -8.0093074851637809)	1.0	z	0.68778
5	N	B	B	N	A	M	A	M	N	8	0	shapes	N	2	True	47	(-3.4352114164279746, -6.5899070295740021)	(3.3335974781771771, -8.0948110171050978)	(-4.3932295625764697, -2.1418961348583991)	(-7.8554582570930958, 6.7932477037620682)	1.0	slash	1.28357
6	N	B	B	A					A	4	0	shapes	N	2	False	47	(1.2992613201167238, 1.0914962762997469)	(-0.80734527146823787, -2.9793219341583264)	(-7.2034080780279961, 6.7470146780073783)	(7.2883690689864764, -5.348266402746539)	1.0	slash	0.869186
7	N	B	N	B	A	M	A	M	N	8	2	shapes	N	2	True	47	(6.3906428740601591, -6.2978982035027888)	(-5.6456959211967206, 4.6031364821292176)	(-8.3355257184390101, -6.6030145379966321)	(0.5927811907268552, -5.2128320680670877)	1.0	z	0.932763
8	N	B	M	B					A	4	0	shapes	N	2	False	47	(-1.3240989115336381, 7.778540545167747)	(4.6282791246161619, -6.9484189402543599)	(-5.7396531096057792, -2.784231573176049)	(0.67289616756380966, 1.6171236741828903)	1.0	slash	1.49244
9	M	B	B	A					B	4	2	shapes	B	2	True	47	(-1.5415177688939528, -8.4298513784430948)	(3.7495517779120195, 8.2407068148513964)	(5.3958796199250347, -3.7008312498533114)	(-4.2193677150524644, 4.066507186487005)	1.0	z	1.42802
10	M	A	B	B					B	4	0	shapes	M	2	False	47	(-7.5557541474728165, 7.2413786652545333)	(5.0172069501546179, -3.6200557686887977)	(-1.5751203539386562, -6.2275182668881666)	(2.8165477185623846, 2.8582633374751136)	1.0	slash	0.671658
11	M	A	B	B	M	N	N	A	A	8	5	shapes	N	2	False	47	(-1.6923737331640289, -0.91824902214658266)	(0.98137778726879077, 2.2179103615780615)	(-5.6495044560439451, 8.5844366312417115)	(8.2202479117044049, -7.3777983244788334)	1.0	slash	0.845419
12	N	A	A	B					B	4	2	shapes	A	2	False	47	(4.1980316682893086, -1.6910992415659791)	(-0.46511498063613566, -0.14942602733074217)	(8.4972865632828558, 1.7168047966784847)	(-2.3335941989349891, 7.9533134764215596)	1.0	slash	0.830906
13	N	B	N	A					N	4	0	shapes	N	2	True	47	(-2.2519247308652091, 1.8915364837520681)	(7.1668108762852558, 6.2479557650038391)	(1.6282252136917066, -4.6209719332918873)	(-8.1368261186283295, -4.7027049264423217)	1.0	z	0.674694
14	M	B	B	M					B	4	2	shapes	B	2	True	47	(-4.0566641022601093, 0.65224486541851867)	(1.80020304229987, -7.9323579413942635)	(3.4534061176759892, 4.3387491233042734)	(-3.3706934113511338, -7.0154561908353648)	1.0	z	0.742204
15	N	A	B	N	A	M	B	M	A	8	7	shapes	M	2	False	47	(-3.7609112847972819, -6.3879476503531993)	(7.111582862090815, -5.7665256622002037)	(-5.9969834505961295, -2.8979567272570677)	(1.2440985000050144, -5.8101594371412615)	1.0	slash	0.509952
16	M	B	N	N	M	A	B	A	M	8	3	shapes	N	2	False	47	(-0.62429532597262671, -4.1927602301298341)	(0.52880899723754204, -8.2753322017609872)	(7.2833224931999787, 0.51184004812382966)	(-8.5500905238387297, -7.5436119692352905)	1.0	slash	0.933521
17	M	B	B	A	M	N	A	N	N	8	7	shapes	N	2	True	47	(7.6410337195036604, 8.6385604705519938)	(0.61004167976384238, -5.8965455880628417)	(-6.4109291923692666, 1.5209850552225888)	(-3.1057815174852861, -7.7381403071653168)	1.0	slash	0.807254
18	N	B	M	M	B	N	A	A	N	8	6	shapes	A	2	False	47	(6.299069278786261, -1.5205945962529688)	(-1.2273078843624496, -5.8743678402231323)	(-0.53691124110308053, 6.4523810329471445)	(2.8280559249970771, -5.3278808957589767)	1.0	slash	0.587198
19	N	A	N	A	B	M	B	M	N	8	2	shapes	N	2	True	47	(-0.72107116459020482, 4.0616541194060574)	(-1.0283777959182752, -1.2376291608100072)	(-1.2699759399520723, -7.0400102629604433)	(4.2694874074531945, -8.3274580410507468)	1.0	z	0.978483
20	M	B	N	N	M	A	A	B	N	8	3	shapes	N	2	True	47	(-4.5377795894549102, -6.4062173503145772)	(7.7854503517518232, -3.2031319393270206)	(0.50095198427515975, 5.4935542772201966)	(8.4154820512497075, 4.7574268717057056)	1.0	z	0.692194
21	N	A	M	A	B	B	M	N	A	8	0	shapes	N	2	False	47	(3.2246523388373287, 3.6712515795181222)	(2.2195998271481567, -4.1464960843132666)	(-0.79702321105675455, -7.6346867711369111)	(-5.0254977835011783, -7.7240015709778724)	1.0	slash	1.1258
22	M	A	A	B	B	M	N	N	B	8	1	shapes	A	2	False	47	(-4.7021644417637436, -1.5662172085209205)	(-8.6587241743700094, -3.6051809574035225)	(4.2663452383438152, -1.7725133453474262)	(4.0520589837543106, 7.642818055306666)	1.0	slash	1.22517
23	M	B	M	B					M	4	0	shapes	M	2	True	47	(-5.5214563313055489, -3.9185766478860566)	(8.5943391583355044, -4.1740203852915609)	(-4.892238453010969, 5.8236834277731528)	(5.6105382651783096, 5.3033447353971344)	1.0	z	0.567178
24	M	A	B	N					A	4	1	shapes	A	2	True	47	(-6.5110422277492521, 1.376128980920436)	(6.059731687638644, 4.4822647612681958)	(-2.4710879442698168, -1.5579033145890824)	(2.6494601586705198, -3.6013946858387769)	1.0	z	0.846717
25	M	A	A	M					B	4	0	shapes	M	2	False	47	(0.50398658821113962, -5.6932016792670836)	(8.3589753405828624, 5.4293837770799112)	(-7.8401456554754612, -7.6739854667730931)	(-8.1249216287423565, 3.0158631782577459)	1.0	slash	0.792516
26	N	A	N	A	M	B	B	M	M	8	6	shapes	B	2	False	47	(-6.9372934991852588, 3.4980397104021623)	(8.4964505062084541, -4.4675217811201975)	(-4.2678036898142171, -2.6292702288492347)	(4.481760431046613, -0.0054742151535460692)	1.0	slash	1.75009
27	M	A	N	M	N	A	B	B	M	8	3	shapes	M	2	True	47	(-0.5282635393238273, 5.341264247430674)	(-5.9839023064530013, -6.4115794671206157)	(-8.4053020631290156, 1.4219204082320509)	(8.0552972938352987, -6.0559801016607091)	1.0	z	1.2837
28	M	B	M	B					B	4	1	shapes	B	2	True	47	(-7.3732800594113908, -0.21545575270781647)	(1.5128254633514366, 8.2291235325318972)	(-3.0714690928113146, 3.0566885180738605)	(6.798950504534865, -8.3121611510667464)	1.0	z	0.733303
29	N	B	M	N					M	4	3	shapes	N	2	False	47	(7.2457794940001978, -5.2168048257294384)	(-5.7686753657758674, 2.4050868393878719)	(5.9791700315452658, 0.43005239205415791)	(-6.9985507959015019, -5.7753852904708332)	1.0	slash	0.804971
30	M	B	N	A					B	4	1	shapes	B	2	True	47	(-4.2247240251589346, -7.7313215807910751)	(2.2369998938385685, -3.8743027477263903)	(4.1565119323267954, 3.0649871356828253)	(-2.6336534532799831, 1.390990530364439)	1.0	slash	1.21462
31	N	A	N	A					M	4	3	shapes	A	2	False	47	(-5.5574505473398137, 1.3966828896440848)	(-6.6020760535919267, -8.721416265837437)	(4.1886497051283023, -5.8706119793296772)	(3.6629516370023385, 6.5153959524688112)	1.0	slash	1.78235
32	N	A	M	M	N	A	B	B	N	8	4	shapes	N	2	True	47	(-6.9040773098251655, 3.3373025854676239)	(-0.10923082306263154, -8.046526036561648)	(-0.64744674482384745, 7.4232670425752865)	(4.0729725819129516, -6.2207001215282469)	1.0	slash	0.87789
1	M	A	B	M	A	B	N	N	B	8	4	shapes	A	3	False	47	(4.8325551254269001, -0.4140192172271373)	(-6.4200516107137915, 1.9420632414064762)	(-3.1766365303018107, -7.2300892904793823)	(7.2629949936016018, 3.5159472456200653)	1.0	slash	1.0456
2	M	B	A	M	A	N	N	B	N	8	0	shapes	M	3	False	47	(-3.9698888729832404, 0.35643369602354191)	(0.88458605907618981, 4.5027586864668763)	(5.2136680231870827, -1.4699280306424756)	(-6.4693208046243189, -3.5294281200564486)	1.0	z	0.969257
3	M	B	B	A	N	N	M	A	B	8	1	shapes	B	3	True	47	(7.2004983208519686, 5.6679112908476945)	(-0.30039491517075767, 8.0700862818749677)	(6.586847486857538, -6.472987708819149)	(5.0516052935247249, -0.11967738314332621)	1.0	z	1.00461
4	M	B	A	N					A	4	2	shapes	A	3	True	47	(-3.0250070004204082, -1.586158271398995)	(0.19922620149147896, 2.5193398494004189)	(4.0329111938263971, -2.373633157016604)	(-5.3375326438280677, 4.1279769305953913)	1.0	z	0.574487
5	M	A	A	B					A	4	2	shapes	A	3	True	47	(-2.321439882113645, 3.3013157645967564)	(-8.5716393561632316, -6.7774493134172591)	(2.4940638478234352, 8.7242571388401231)	(1.8941344376111378, -4.9483083159571564)	1.0	slash	1.07009
6	N	A	M	M	B	A	B	N	A	8	5	shapes	A	3	True	47	(-5.8586119480888854, -6.9126187490636166)	(7.9144578367045639, -6.018277747702605)	(1.1455288480809465, -2.4105079277767452)	(4.4285579976809988, 3.9013121143019944)	1.0	z	1.11761
7	M	B	M	N	A	N	B	A	M	8	0	shapes	M	3	True	47	(-5.9254517241934934, -2.5168235662503724)	(0.18617757238140165, -5.9929021431247582)	(8.1633314185786823, -4.0122446870451229)	(-2.5289719173562828, 7.783108542893352)	1.0	slash	0.963355
8	M	B	N	B	N	M	A	A	A	8	1	shapes	B	3	False	47	(0.28502346179974403, 2.918459385363013)	(-7.2841182881336088, -7.23504851853974)	(5.0700547314914512, -6.8541599848119183)	(-2.5355588958315929, 8.0196494238746148)	1.0	slash	0.862986
9	M	A	N	B					B	4	2	shapes	N	3	False	47	(3.7204427934644251, -2.1690017349388979)	(-3.3198049413418458, 5.3663560436676896)	(-2.9587702248704284, -5.9099772906532975)	(8.5292366258736614, 6.2166766350872003)	1.0	slash	0.764507
10	N	B	M	B					B	4	1	shapes	B	3	True	47	(-1.1784650540880151, -3.487693848505411)	(-7.1088694324213462, 0.69159614864398655)	(2.6992464153573721, 5.237938096859768)	(2.5027380607163554, -6.2439011760066219)	1.0	z	0.870325
11	N	A	M	M					A	4	1	shapes	A	3	True	47	(4.9229365649647008, 6.3002072650474688)	(0.76994522614582017, -7.6335263139081846)	(-6.0911201642908619, -5.7825310754083485)	(-0.66570340316962096, 5.4788075850980569)	1.0	z	0.961733
12	M	A	B	N					A	4	0	shapes	M	3	False	47	(5.9132138341933977, -4.8461258794717956)	(-6.8225833625224173, 0.028305201719600603)	(2.6875327406065317, 0.17489437999808644)	(-5.1723945270945295, -8.4821627780488917)	1.0	slash	0.78766
13	N	A	A	N					B	4	3	shapes	N	3	False	47	(-6.6806414784080754, -1.347577960065661)	(-3.4094355287173244, 6.8737393753621419)	(7.1808857828969064, -6.4774473487007889)	(4.7573422078442249, 6.716167060272447)	1.0	slash	0.647251
14	N	B	M	N					M	4	2	shapes	M	3	True	47	(-1.6931200875349797, -4.1589156032361521)	(2.325231617642542, -6.9209994506153611)	(3.7944231344181212, 3.7812675444772683)	(-7.6211354547125074, 0.54491389164534709)	1.0	z	0.664229
15	M	B	M	N					A	4	2	shapes	M	3	False	47	(-8.4160772083271809, 3.2797116157379484)	(-4.754907158125631, -4.3242790860091755)	(3.3702893776416545, -3.6302035642955586)	(1.5892104927393689, 7.659443314418688)	1.0	slash	0.56668
16	M	B	M	A					B	4	1	shapes	B	3	True	47	(-8.3947047290854968, -3.0287022403713326)	(8.0625682562726908, 5.0196538698223829)	(2.575080135423315, -2.4567353030673296)	(-6.469427973159088, 3.6819501109759809)	1.0	z	0.950087
17	N	B	A	B					M	4	3	shapes	B	3	False	47	(4.3166053071225541, -5.2159990936041174)	(7.834188278444234, 6.9395148181545494)	(-3.347383708492452, -4.2010421682761967)	(-2.4242634254280651, 0.98241861351337434)	1.0	slash	0.553874
18	M	B	M	B	A	N	A	N	A	8	0	shapes	M	3	False	47	(0.4902848996335063, 4.9607678255429448)	(5.9382802056137791, -1.1164241104188291)	(-4.2389991783413574, 6.2026822190336652)	(-2.9262539524242399, -3.3274192448087279)	1.0	slash	0.855485
19	N	B	M	A					N	4	0	shapes	N	3	True	47	(-7.2063648018691735, -8.5661587063327911)	(2.820125850379851, 4.7307248640783879)	(5.5035337818370245, -8.2656610816325884)	(-6.1107381046413973, 6.6532714821570966)	1.0	z	0.863352
20	M	A	N	A	N	M	B	B	B	8	1	shapes	A	3	False	47	(2.735169602307689, 0.92060373479035285)	(8.5718053203644544, 4.5010400645645916)	(-8.3263812964551445, 3.2536646381539782)	(-7.4474745755672744, -7.5974757842180454)	1.0	z	0.814781
21	N	B	M	A					N	4	3	shapes	A	3	False	47	(-0.81469116364370198, 5.9899837361764448)	(4.0177333908610553, 5.7173935720436102)	(6.1799250177958651, -0.98280310281418704)	(-8.310050564194249, -4.7682632041842918)	1.0	slash	0.742643
22	M	B	B	M					B	4	3	shapes	M	3	False	47	(-4.7401407276714638, -7.0976655155426487)	(5.7920555465335521, 6.4081743225516377)	(-4.4231812100827321, 3.9437205283358256)	(4.3019365625164898, -4.0222293216148985)	1.0	slash	0.548174
23	N	B	B	N	M	A	M	A	M	8	6	shapes	M	3	True	47	(8.7291930180981865, -5.7071875392073359)	(-0.24015476738143349, 5.7527222490783352)	(2.8804710421872297, 0.44215124719828047)	(6.6288136803871538, 7.3383483485208565)	1.0	z	0.803866
24	N	B	B	M					N	4	1	shapes	B	3	False	47	(-3.9579079794663965, 2.9888499935110389)	(-6.0140618314270728, -1.1713121047142785)	(4.8249078627834763, 0.28666586953544915)	(6.0685000654543444, -8.2885086633329692)	1.0	slash	0.581347
25	M	B	A	N	B	M	N	A	M	8	5	shapes	M	3	True	47	(-4.5581603212859996, 8.4538333482612416)	(-1.4694372394156368, 2.3627812114667002)	(-4.9845565780297605, -0.61739643730150284)	(-2.4318143185108774, -5.1514454738098587)	1.0	z	1.01318
26	M	A	B	M	B	N	N	A	B	8	2	shapes	B	3	True	47	(0.35812449419247194, 2.4555116357167428)	(4.0714895213245175, -7.4570398660135115)	(3.0686270423377842, 6.5998086161649674)	(-3.0120857789252113, -6.5194515535727078)	1.0	slash	0.678812
27	M	B	B	N	A	A	N	M	M	8	7	shapes	M	3	True	47	(-0.35659857099473946, -4.8299947078034959)	(-3.8203434490234978, 5.0933110091545792)	(-3.0459426363464903, -1.0394485529541901)	(4.7647396349869933, -2.7715538750506434)	1.0	z	1.14038
28	N	A	M	A					A	4	1	shapes	A	3	True	47	(-5.0987931928381807, -3.8272924325641711)	(2.7387506069164402, -6.0944176147535263)	(5.7477887130334171, 7.1064666550267432)	(-6.9978980834535154, 6.7041833635524188)	1.0	slash	0.730142
29	M	B	N	M	N	A	A	B	B	8	1	shapes	B	3	True	47	(-2.813303157074369, -1.3617388406502542)	(-8.6772274281327526, 6.5594427289380022)	(4.7104314511300842, -5.8391083350782118)	(-8.3835790181120071, 1.5319049202474115)	1.0	slash	0.54969
30	M	A	B	B	A	M	N	N	M	8	3	shapes	B	3	False	47	(-1.7844713500064096, -1.4110396909679688)	(8.408933686056411, -0.87163845882966307)	(4.2737410882981806, -8.7433845610581145)	(5.16945762122117, 7.1012182302558422)	1.0	slash	0.57337
31	M	A	A	M	B	N	N	B	B	8	0	shapes	M	3	False	47	(6.3433756582045042, -0.96361902589444615)	(1.3008634855335792, 6.2449488554130497)	(-1.1219356798229931, -3.2909122989190287)	(7.8186268371585506, 6.8065763286965346)	1.0	slash	0.495313
32	N	A	A	M	B	B	N	M	M	8	0	shapes	N	3	False	47	(-3.7581343842766097, 2.5194300163570169)	(8.2230433907849019, 7.7331398986584752)	(-6.2999646474249094, -1.0501247055949694)	(-0.072361587736473609, -0.91407426162178584)	1.0	slash	0.992894
1	M	B	N	N					N	4	1	shapes	B	4	False	47	(-2.6209284563100228, 4.3402346228789757)	(4.1448238216045628, 5.9807260350892406)	(-8.2381844164378446, -6.9529914172955207)	(3.8288762882290683, -1.6958081815322021)	1.0	slash	0.584189
2	N	B	A	B	M	M	N	A	B	8	1	shapes	B	4	True	47	(-6.2504680063607019, -5.5064130833961809)	(0.5112474132082987, 6.9627331204482008)	(7.9042062718311037, 0.6527515913265507)	(7.890989198754049, -3.7552790270016985)	1.0	z	1.28005
3	M	B	A	M	A	N	B	N	B	8	0	shapes	M	4	False	47	(-8.5666215591632824, 4.1667382084835278)	(-0.645922304116473, 4.07533513686049)	(-5.3139205006667023, -1.7968827915115968)	(-0.53431717056036199, -6.6233275934262359)	1.0	slash	0.525602
4	N	A	B	M					N	4	0	shapes	N	4	True	47	(2.9311061412793524, 1.158345404941997)	(-0.2586384896368692, -7.0538068607524602)	(5.59656144439972, -7.5114558729142358)	(-6.1742565807882119, 6.38874821437558)	1.0	z	0.727275
5	N	A	N	A					B	4	1	shapes	A	4	False	47	(-8.0752943451570545, -3.9458947389804209)	(1.8815354762652774, 2.2154480453547034)	(-2.380011417813046, 7.861268341112396)	(3.5784847212249353, -6.5769399841573559)	1.0	slash	1.07908
6	N	B	N	M					A	4	1	shapes	B	4	False	47	(-2.8283432327356763, 2.8036999885055884)	(5.5679320455632091, -1.4896311165304805)	(-8.7355933045334648, -1.8460455294744884)	(6.7163261231100027, 4.6416099654939309)	1.0	z	1.32068
7	N	B	N	B	M	A	M	A	B	8	6	shapes	M	4	False	47	(0.24708174249876258, 5.7219958271783824)	(-1.9630693163938915, -4.4178655045189359)	(6.103241301807584, -0.73194385095921177)	(-3.4372455782623952, -8.4861278588124947)	1.0	slash	0.718274
8	M	B	M	N	B	A	A	N	M	8	2	shapes	M	4	True	47	(-8.2610818550609952, 8.3778891896742884)	(-4.9584151514602972, -7.3567151172566101)	(-3.4933855654843606, 3.2373300553263515)	(3.6676386648615189, 2.2373152677202288)	1.0	z	0.931772
9	M	B	N	N					B	4	1	shapes	B	4	True	47	(0.41066653316058854, 6.9570308663493936)	(-3.9480943135915352, -6.2840559892763892)	(7.6624841645461075, -0.13054009008674861)	(-1.3087071750121479, 2.1209507320408818)	1.0	z	0.483471
10	M	A	N	M					B	4	0	shapes	M	4	False	47	(-1.3474210513009881, 0.20713686292289424)	(6.681750201194161, 0.064299701500935669)	(-3.7821993364475652, -4.7727948471753852)	(2.5394523459584342, -0.77587756958249798)	1.0	slash	0.605152
11	M	A	M	N					N	4	3	shapes	N	4	True	47	(3.5270534258233912, 7.2940352082896744)	(-5.5936293996755477, 8.627063374098551)	(7.7477448124828605, -6.7774403863768864)	(-1.1969153735088387, -8.5972892049967484)	1.0	z	0.572973
12	N	B	A	A	M	N	B	M	A	8	3	shapes	A	4	True	47	(-6.8475128905147571, 0.84138491851384245)	(-0.5377355880007304, 4.4559925229149417)	(6.6632292132973863, 1.016348186155108)	(-7.4220527936125169, -5.1530569211216415)	1.0	z	1.34275
13	N	A	N	A					B	4	0	shapes	N	4	False	47	(-4.5134404802047392, -2.809828213617692)	(4.7975397595851312, 4.3728776932780864)	(-3.1901203437006664, 7.7725272894821877)	(0.36192871782610858, -0.17456225850605733)	1.0	slash	0.58027
14	M	B	B	A					A	4	3	shapes	A	4	True	47	(-0.58481416867328662, 4.1689810373635687)	(-2.2116339852754558, -3.4000318903384912)	(4.3384961916480549, -7.828492867237272)	(5.2965992279434584, 5.7058142175993982)	1.0	z	0.561951
15	N	A	M	A					A	4	3	shapes	A	4	True	47	(-4.7780882376951102, -5.3750971777898124)	(3.0819760752035368, 5.7898164173071027)	(8.3524546754069604, -1.6691888689072965)	(-6.5655014828431568, 7.906894065093141)	1.0	z	0.52348
16	M	B	A	M	N	A	B	N	B	8	5	shapes	A	4	False	47	(3.951100704176838, -4.4891878697950771)	(-3.9836167614105662, -2.9436492447087241)	(-6.2959822113970825, -8.5458869239040816)	(5.920885093233899, 6.7667739180520208)	1.0	z	0.679322
17	M	A	N	B	M	B	A	N	M	8	4	shapes	M	4	True	47	(2.2347916607022196, -3.2328375976317947)	(-1.9726802070005496, 1.8956320640810702)	(6.703767472414988, 4.9419108013088735)	(-7.1290420670278909, -6.6999124255041096)	1.0	z	0.580949
18	N	B	N	M					N	4	2	shapes	N	4	True	47	(-0.83511684842291345, 2.5434690393115176)	(-5.6581120156017821, -2.8821062250846419)	(6.551099997618234, -5.4255656073390393)	(5.501404350213706, 6.3714956413478188)	1.0	z	0.554654
19	M	B	A	N	M	N	A	B	B	8	7	shapes	B	4	True	47	(7.320816524685867, -0.37048260810810518)	(-7.5731156672356352, -6.3939974909780579)	(2.3066815300596897, 0.62529749562619585)	(4.2751230427274578, -6.4298006914440684)	1.0	slash	0.753062
20	M	B	A	A					A	4	0	shapes	M	4	False	47	(-1.8631345617437738, 5.966101915888423)	(6.3166567840353043, 3.3041562311957424)	(-8.6052459097175991, -2.5581128319207158)	(1.489231134509275, -6.8328813746839723)	1.0	slash	0.579755
21	N	B	M	N	M	A	B	A	B	8	1	shapes	B	4	True	47	(-3.8073199699439524, 7.4598953854113077)	(-3.6478747027865097, -1.0523132031703382)	(3.7449727076784356, 8.687681032643674)	(6.7554686301717055, 1.1468510480288376)	1.0	slash	0.901489
22	N	A	M	A					A	4	3	shapes	A	4	True	47	(-0.10507889876170928, 4.4527875494126956)	(1.4376871824992374, 8.3565570399808848)	(8.4931671250580116, -4.620064351945091)	(-4.5729927659164433, -5.8500619474169104)	1.0	slash	1.29113
23	N	A	B	N	M	B	A	M	M	8	2	shapes	B	4	False	47	(-7.2983752209471477, 1.1175424592439676)	(3.9707195171221414, 7.9662338588422656)	(2.5020231524383547, -7.3959663674025995)	(-5.7412183669517578, -6.5749693993567782)	1.0	slash	0.540754
24	M	B	B	M	A	A	N	N	A	8	1	shapes	B	4	False	47	(-5.0893911123320716, 3.055803766807756)	(4.3052585524547169, -6.8151480122486063)	(8.025265627212498, 6.8817699235676031)	(0.082867830634180351, 1.4700213096432559)	1.0	z	1.01251
25	M	B	M	B	N	A	A	N	M	8	2	shapes	M	4	True	47	(5.3685565327886327, -4.0134692788588877)	(-3.303786052805032, 3.5236077402051542)	(-3.8039527108646984, -1.3536744522377395)	(-0.79780902953257637, -6.7686646604150535)	1.0	z	0.830282
26	M	B	A	B	N	M	N	A	B	8	3	shapes	B	4	True	47	(3.4452943307732209, -8.1707540078507837)	(5.9989625338162504, -0.49821081846009818)	(7.7819461580651819, 7.4985664944665515)	(-5.1320499676065277, 5.0847120381262556)	1.0	slash	0.597832
27	M	A	B	A					M	4	2	shapes	B	4	False	47	(-7.4898799440430395, -6.9376269745631669)	(6.8455575173759762, 2.4155207993838914)	(-4.7846101379469221, 6.4162193694724117)	(5.5293885671505354, -6.8193568596394458)	1.0	slash	0.679446
28	M	A	B	A	B	M	N	N	N	8	4	shapes	B	4	False	47	(3.230031293865876, 1.9997537522489708)	(3.3687635221989876, 7.4903307206588501)	(3.2038777817909274, -6.1487715758057444)	(-1.5795288950832571, -1.7318274759020458)	1.0	slash	0.677133
29	M	B	A	N	N	B	A	M	M	8	5	shapes	B	4	False	47	(-5.2461105536236268, -7.9986359142404222)	(-7.5966591125486254, -1.2836873441526544)	(7.0812310618206808, 8.5927390474240255)	(6.598311037952902, 4.1639671880798161)	1.0	slash	0.706907
30	N	A	M	A					A	4	1	shapes	A	4	True	47	(5.0115737488459828, 4.8790536363077042)	(4.9524980727405907, -2.9938009644549757)	(-5.6810378777566557, 0.68139859617644838)	(-2.1396802098132728, -8.185096266559432)	1.0	z	0.910384
31	N	B	N	B	M	A	A	M	B	8	2	shapes	N	4	False	47	(-7.9371850855731028, 1.8158994325209843)	(4.0434592545191297, -7.4103718347954377)	(-3.7198770388037889, -5.1307341107419528)	(-5.0618155973430632, 8.444419600752056)	1.0	slash	0.606189
32	N	A	A	B					M	4	3	shapes	B	4	False	47	(3.0834211209692732, -4.2622480714285977)	(8.3247898600016015, 0.8013556823769008)	(-6.7740580742551124, -8.2797695596059064)	(-3.2059027126215449, 0.99923280844246776)	1.0	slash	0.591846
1	M	B	M	B	N	N	A	A	N	8	1	shapes	B	5	False	47	(-4.2482471852331321, -3.5767398657698806)	(0.57687344691757403, -6.5425507726991903)	(5.1647705522939322, 0.96652641788278082)	(8.7165514445573038, 3.3261226378334854)	1.0	slash	0.601383
2	M	B	M	B					A	4	0	shapes	M	5	False	47	(1.5623847095633465, 4.709074771903488)	(-6.5539212794817905, -0.74482355977176873)	(-6.6088600035957237, 7.9486120179264539)	(6.239546494998331, -5.755890755568414)	1.0	slash	0.587103
3	N	B	M	N					A	4	2	shapes	M	5	False	47	(8.7402772217656945, 7.09027279733772)	(-0.39712077281219393, -7.8024989995329586)	(6.6904284996729366, -3.7200255997577303)	(-6.2628450603332162, 2.8530526528757818)	1.0	slash	0.520783
4	N	B	N	B	M	A	M	A	N	8	6	shapes	M	5	False	47	(8.3480926998516942, 7.6521619325253312)	(7.736595455437385, -0.037174053887556013)	(-0.91766896172519719, 4.0589552408493965)	(-7.4703122438208158, 0.57994720834078173)	1.0	slash	0.980664
5	N	A	B	N					M	4	1	shapes	A	5	False	47	(3.1521684573672086, 2.983492147277147)	(-7.5265362960408559, 0.022732058074202754)	(-1.2264344225632282, -8.0455663980652883)	(0.38222276281012313, -4.2177058657013671)	1.0	slash	1.18413
6	M	B	N	N	M	A	B	A	B	8	0	shapes	M	5	False	47	(-4.4374847516946145, -0.77998687544191281)	(2.5125271025961204, 5.2907716442369228)	(-4.8357327979453935, 7.2324161806822929)	(5.6209544520356189, -8.2863621009359054)	1.0	slash	0.471587
7	M	A	N	N	M	B	B	A	M	8	0	shapes	M	5	True	47	(-6.4343185116603685, 0.83784159821947668)	(5.7356012577820437, -4.1840965763576428)	(0.46340557717713615, -8.2217714238763158)	(-4.1310036131815551, -3.0394081131024935)	1.0	z	0.556979
8	M	B	A	M					M	4	3	shapes	M	5	True	47	(5.7948321527468742, -0.46526913296936812)	(-2.3835316907959641, -3.4317308925270309)	(-6.4718303457229345, 2.5295301944816924)	(0.88706419735005859, 0.51535967891854639)	1.0	z	0.639094
9	M	A	M	B					M	4	0	shapes	M	5	True	47	(3.4869754816131913, -7.253323889603478)	(-4.3888996105970843, -3.5542398573584233)	(2.1974869493303917, 5.2249644290930597)	(-6.8473443333401445, 8.6806883008866329)	1.0	z	0.568694
10	N	A	A	M					N	4	0	shapes	N	5	True	47	(3.2711174122057383, -4.5967446329782238)	(-7.3304215761217488, -1.1804718041101943)	(6.7817295446341657, 1.0950657810985991)	(-4.7762325044198626, 5.4503749902626559)	1.0	z	0.424396
11	N	B	B	A	N	M	A	M	M	8	4	shapes	N	5	False	47	(-0.74826171879422532, 5.3727496489055149)	(-8.3712930864451636, -3.5421179917762631)	(-4.0121791371391815, -2.0358468468232127)	(7.3437067425918592, 5.7163532667058075)	1.0	slash	0.751914
12	M	A	A	M					A	4	2	shapes	A	5	True	47	(5.2410346752203232, -1.4734196525391852)	(-0.61313649937411441, -6.8138071310013046)	(6.7660890220056782, 2.9790577209235654)	(-7.4841074664317713, 7.4581585783489572)	1.0	z	1.09193
13	N	A	B	A	N	M	M	B	M	8	3	shapes	A	5	False	47	(-7.5874950874651805, -0.34985119582110791)	(4.4179389384569507, -7.1700442728791494)	(0.11753838087511248, 0.52075933200989688)	(-0.8611322954276126, 7.808043402419564)	1.0	slash	1.38145
14	N	B	M	A					B	4	3	shapes	A	5	False	47	(-6.5114893726555803, 5.2441423967506449)	(2.996270285793031, -2.524815358089584)	(7.2482386453785068, 0.85762214888871924)	(-1.2386943450527026, -0.73096706428983182)	1.0	z	1.05886
15	M	B	M	A	A	N	B	N	M	8	3	shapes	A	5	False	47	(-4.3737220452873506, 1.0405160338831383)	(3.4477633462819455, 6.4915705232786269)	(0.27735927378398451, 2.4456797365469072)	(-5.9663394358100135, 6.9418182181473007)	1.0	slash	1.1807
16	N	A	B	N					A	4	0	shapes	N	5	False	47	(-1.1207397870334184, -7.5564305390301199)	(1.3455878131869365, 3.0797223966193865)	(1.4791951703728632, -2.8635791071875198)	(-6.6728842119049796, 6.5082315675730946)	1.0	slash	0.634229
17	M	A	M	N	N	A	B	B	M	8	2	shapes	M	5	True	47	(2.194117764295342, 1.24516364891082)	(-5.7053931827078586, 8.7345541960893414)	(-5.921855788504935, -7.584365416838895)	(5.1356589372832708, 6.6425565376794324)	1.0	z	1.34383
18	M	A	M	A					M	4	0	shapes	M	5	True	47	(-2.8817155629966367, 2.2166033593585386)	(5.289835047733833, 1.4234391698257003)	(0.32152609186433168, -1.2192020248526427)	(-4.0107342438215907, -6.3520517112476096)	1.0	z	0.541356
19	N	B	N	M					N	4	2	shapes	N	5	True	47	(-5.9267858718657624, 7.8635913577229744)	(7.1137602911061695, -3.316307881689732)	(-2.8795130658195003, -6.5890392910560394)	(6.5651100070275152, 7.5274412845160015)	1.0	z	0.451248
20	M	A	B	A	N	B	N	M	A	8	3	shapes	A	5	True	47	(0.36453580578624134, 2.2689630563959717)	(3.1811603332567451, -5.8907468063756241)	(-8.1719637661452538, -4.0217223220759255)	(-1.0077341999021368, 6.1980660057974006)	1.0	z	1.54092
21	M	B	N	B					M	4	0	shapes	M	5	True	47	(2.1284532984211673, 8.7169235086674597)	(-3.1662420772493922, -0.38313648737691963)	(-0.8126000256869883, 4.1223076879480693)	(7.6779509804108166, -6.1006680532566744)	1.0	z	0.650688
22	M	B	A	B	A	M	N	N	M	8	0	shapes	M	5	True	47	(1.4340020102360107, 2.2321903235971323)	(-7.0497856913390544, -5.2311601089902302)	(6.129752023452534, 5.3775507595687202)	(4.7949084600270133, -6.0347514512752678)	1.0	z	0.642028
23	N	B	N	M					N	4	1	shapes	B	5	False	47	(4.7464654542091544, -3.2041348767737343)	(-0.14009413689976569, 7.0959684851629348)	(-6.0703787007682894, -3.2259642470910403)	(3.7313826077410344, 3.8406201713452628)	1.0	slash	0.585812
24	M	B	N	N					M	4	0	shapes	M	5	True	47	(-7.6654884935640553, 1.0746743017117364)	(0.099762438434273903, 3.8633790600006748)	(3.5675859614412264, -4.2114663446535419)	(-0.51002567513796393, -2.4100653920706412)	1.0	z	0.559485
25	M	A	A	B	M	N	B	N	N	8	5	shapes	N	5	True	47	(4.6128754916453811, -6.9716378321905443)	(-3.5572358849430072, 1.5698519821060994)	(7.7179512784906734, 2.7690238895546315)	(-4.4256899055360357, -6.7134660837744322)	1.0	z	0.595144
26	N	A	N	A	B	M	B	M	M	8	7	shapes	M	5	True	47	(3.9063772907308909, 5.8464218796502436)	(7.5824832457674596, 8.1226146418574103)	(-1.4757608437038989, 5.0877732783541152)	(-6.4508358200884253, 3.8424903509491859)	1.0	z	0.47897
27	N	B	A	B					M	4	1	shapes	B	5	False	47	(0.48189345012511176, 8.5909741392668941)	(6.0444974804649316, -6.5691669356852174)	(-8.5620573824515596, 1.7954156919548563)	(-8.1119042851729883, -4.1739717481661334)	1.0	slash	0.720529
28	N	A	B	B	N	M	M	A	N	8	0	shapes	N	5	True	47	(-3.1767563160888974, 2.8394723161434445)	(3.0144137933604789, 8.7020578130786355)	(3.3053676093233033, 1.7414564151263754)	(-7.7666693723727933, -4.1828347083433819)	1.0	z	0.538138
29	M	A	B	N	M	N	B	A	N	8	5	shapes	N	5	True	47	(-6.0775450282264911, -8.2587324618406992)	(-6.92519859556415, 1.6213116661092197)	(-2.5976749045525436, -0.88872747840909216)	(7.1958411950943297, -1.2511146415313892)	1.0	z	0.515957
30	M	B	N	A					A	4	1	shapes	B	5	False	47	(-7.6166213220439944, -0.76994660593738473)	(4.4456059401736141, 3.3726701144886917)	(4.0548864407161407, -5.8946593627050108)	(-7.8256413695745701, 6.549540827414118)	1.0	slash	0.607628
31	M	B	A	A	M	N	N	B	N	8	4	shapes	M	5	False	47	(0.7212803789702118, -5.027036816668276)	(3.439555285067712, 3.8512531172447755)	(4.2984785887497736, -2.5432206939088049)	(-1.5887938940759732, 0.51792466470165088)	1.0	z	1.46729
32	M	A	N	A	N	B	M	B	A	8	6	shapes	M	5	False	47	(-3.7668702287777522, -2.2276339065046997)	(8.6542860723135462, 3.4150762974836564)	(1.8247475563677646, 2.7055160508241496)	(-8.1858267783546239, 4.9372533738851399)	1.0	slash	0.554774
1	M	A	M	N	N	A	B	B	A	8	5	shapes	A	6	True	47	(3.4246199336899004, -0.37852622589739049)	(4.0928549668683001, 3.8869902967029013)	(3.2036721825585346, -5.4314330275990841)	(-2.0478397866717879, 4.7286522181509412)	1.0	z	1.24434
2	N	A	N	M	A	B	B	M	A	8	6	shapes	B	6	False	47	(1.0325211924634452, 1.8356624286593988)	(-1.8599654253246651, 5.5948186623310843)	(2.3542760580871729, -8.318610574427554)	(-6.5201113932297066, 3.0528013686847224)	1.0	z	0.992204
3	N	B	A	M					B	4	3	shapes	M	6	False	47	(-1.5838003547030022, -7.6262167833740477)	(0.7716819387262106, 3.2017808703837201)	(-2.8818918509354754, 6.3306739990565593)	(6.2698071598826601, -0.46371494403060076)	1.0	slash	0.595621
4	N	A	M	B					M	4	3	shapes	B	6	False	47	(-3.9660681683686096, 4.0188923986397231)	(2.8258878594726653, 5.8957268018025513)	(-0.024510351073425696, -3.9457467596556048)	(3.3791020379850192, -1.699562445505638)	1.0	slash	0.655406
5	M	A	B	B	A	N	N	M	A	8	4	shapes	A	6	True	47	(-1.6922272066892763, 2.9107682619961608)	(-7.9182479766050813, -3.829751149371023)	(-6.1787323509780681, 0.47231979692802994)	(5.4747769191723386, 7.2194769932485734)	1.0	z	1.08105
6	N	A	A	N					N	4	3	shapes	N	6	True	47	(-8.0146074547283881, -6.5578850175933576)	(-5.6034377833118958, 1.7978105391578847)	(3.1876702422715422, -1.6878470019921448)	(6.4613140493110865, 5.4301532292256471)	1.0	z	0.506819
7	M	B	A	N					B	4	2	shapes	A	6	False	47	(6.8633493513863684, 1.2328335493231322)	(-6.0665122521249311, -8.2011306510421829)	(2.8508723758687307, -0.74895915243930133)	(-4.2768688555394583, 7.1701565705047443)	1.0	slash	1.08044
8	N	A	A	B					N	4	0	shapes	N	6	True	47	(-0.69845708991779176, 4.0671976208021778)	(5.1945815087712717, -5.3934241553019469)	(-6.519681536965563, -6.8263833566770149)	(4.9413080079385292, 1.4241166319695306)	1.0	z	1.17812
9	N	B	B	M	A	N	A	M	A	8	6	shapes	A	6	True	47	(-1.1798676948110325, 6.7242957937524874)	(4.6910700146449642, -1.2257200575227731)	(-6.8648976652447278, -8.4107416224616305)	(-1.6931773929400276, -0.50546364031844782)	1.0	z	0.795804
10	M	B	A	B	N	M	N	A	B	8	6	shapes	N	6	False	47	(5.3046299214823982, -2.3370274942041984)	(-6.7350925590001118, 8.5605566419976533)	(-4.0258805841249083, 4.0441351221774013)	(-0.65228384840659004, -5.4740934962796217)	1.0	slash	0.60931
11	M	B	N	B					M	4	0	shapes	M	6	True	47	(-2.6314826940056468, -7.8746716417672715)	(2.0903731603040683, -0.93781012919459261)	(0.25846443076570402, 8.6098681591580792)	(-4.8942221116234261, 7.2098530999694521)	1.0	z	0.736766
12	M	B	N	B					A	4	3	shapes	B	6	False	47	(-0.64771224518925941, -4.1713609045142448)	(-2.6680941222838488, 5.1648231521770409)	(4.7946261703378887, 1.0695981475927656)	(5.7319398016401717, -5.741615899013258)	1.0	z	0.728432
13	M	B	B	M	N	N	A	A	M	8	3	shapes	M	6	True	47	(-0.48135978859496653, -4.4853312137301371)	(0.30914754817015577, 7.9111384098381237)	(-7.7795363482258129, 6.6544868065976228)	(-8.0494097212202753, -2.3388413948977611)	1.0	z	0.596271
14	M	A	M	N	A	N	B	B	N	8	4	shapes	A	6	False	47	(4.1551460570068048, -7.3871049619063838)	(-7.2607381581117467, -0.36179177276997265)	(-7.4274656483001689, 4.9465963566216651)	(0.55050419874063117, 3.2767773785102214)	1.0	slash	0.706009
15	M	B	B	N					B	4	1	shapes	B	6	True	47	(7.879581005902061, -2.7077316357272343)	(-8.0494290638127541, -8.3364604101390238)	(2.5885338857305538, 1.8512295115034227)	(-7.3052768693557519, 5.0291944506687027)	1.0	z	0.735487
16	M	B	N	N	M	B	A	A	B	8	6	shapes	A	6	False	47	(7.0853613420706409, 6.7393002897549525)	(-3.3396144042716491, -7.5685266009654679)	(8.6338164735576868, -8.6012184839261856)	(3.0027075063028548, -5.0536303081549354)	1.0	z	0.857156
17	N	A	N	A					A	4	1	shapes	A	6	True	47	(-0.39046091283436901, 1.384333175818)	(-0.78849607441648217, -8.6039271545067795)	(5.5484188129347505, -5.2072468249856856)	(8.3678949742402651, 1.0561880847129714)	1.0	z	0.623079
18	N	B	M	B					N	4	0	shapes	N	6	True	47	(4.0222166133332937, 5.0560022071867454)	(-5.8822623130282725, -6.8076282560766659)	(6.0563410485086582, -2.410363296786656)	(-4.3423934324439513, 5.242920275537081)	1.0	slash	1.00445
19	N	A	A	M	B	B	M	N	N	8	0	shapes	N	6	True	47	(2.017193202820355, -5.1403828899018684)	(8.1596993591802196, 2.2501859430487734)	(-4.8702480890461155, -2.6365493443440018)	(-6.406389374576225, 7.249225868085361)	1.0	z	0.840203
20	M	A	N	N					A	4	2	shapes	N	6	False	47	(-1.9996136191142693, 3.0587685006739598)	(7.3359280488652026, 4.4050920173527626)	(-5.7782774194996023, -4.725674783190648)	(3.6662995259327378, -2.4503105160859171)	1.0	slash	0.62589
21	M	A	N	A	B	N	M	B	A	8	1	shapes	A	6	True	47	(-7.7301462269377748, -3.0937998381396863)	(8.1405865769625265, -7.0356749836102894)	(0.10703938208133579, -5.598024923418695)	(-3.6037578026101782, -1.2323079434511053)	1.0	slash	1.08153
22	N	B	A	A					A	4	1	shapes	B	6	False	47	(1.9438372004446585, 0.94671497782972835)	(4.2324087536511268, -6.4931400514520021)	(-0.18453644965357263, -5.6159299839841736)	(-6.5198429564817353, 7.5844101585147783)	1.0	slash	1.0993
23	M	B	A	B					M	4	0	shapes	M	6	True	47	(-2.5676782403150273, -8.0891800299816854)	(7.1655302312008011, 7.0635045164456365)	(3.378700333294157, -7.3988249734628466)	(-2.3443478014945249, 6.4778831447602414)	1.0	z	0.760887
24	M	A	B	A	M	B	N	N	A	8	2	shapes	B	6	False	47	(-0.80648165152544049, -1.6211949546789342)	(-7.9718603133354042, -6.7106074189420806)	(2.3897873636947988, 3.6043295795410479)	(-0.42180082589994505, 7.1753614447943406)	1.0	slash	0.924465
25	N	B	N	M	B	A	A	M	A	8	4	shapes	B	6	False	47	(6.9955272025488142, 0.40812295258913878)	(-5.2773292008176487, -5.0039565164120239)	(0.62137983727869717, -0.079511949315612895)	(-7.3035314491664076, 7.3454843899874547)	1.0	z	1.16818
26	M	B	B	A	N	M	A	N	N	8	4	shapes	N	6	True	47	(-6.3396130402492794, 4.7827513273432665)	(7.6385885370563891, 7.6064123309732103)	(-2.7616038149116289, -1.8328221394797017)	(4.2410517765468789, -1.1029358772459581)	1.0	z	0.957573
27	N	B	N	B					B	4	1	shapes	B	6	True	47	(2.8629481284915297, 5.9340778843327779)	(-4.8304202040018476, 1.3979039399997699)	(6.3004709013863671, -6.8564778105105848)	(-3.3813125120708403, -2.9849116369229929)	1.0	slash	0.711375
28	M	A	A	N	B	M	N	B	B	8	4	shapes	B	6	True	47	(-6.9637942154295525, 0.2241703158026489)	(0.27400419765967321, 5.6947124622885461)	(5.4424532344816168, -5.3983844042918951)	(6.7323730094014032, 6.2359108365513283)	1.0	slash	0.797129
29	N	B	M	N	M	A	A	B	A	8	4	shapes	M	6	False	47	(-1.177007050685952, -3.8504589911096998)	(7.8690414147033039, -0.9379417140811297)	(0.94481670938282747, -8.0261450776971817)	(5.725537320709023, 3.7131750955355738)	1.0	slash	1.49062
30	M	B	B	M					M	4	2	shapes	B	6	False	47	(-6.0505909402117819, -3.0957973854725811)	(5.6900018545765647, 0.069832920763957418)	(5.9587427760408929, -6.8036507783952302)	(-1.5835387494468041, 1.5350957546832973)	1.0	slash	0.610137
31	N	B	N	M					N	4	3	shapes	M	6	False	47	(-6.033264234883541, -5.4125746758366589)	(-7.1769608420290592, 1.6681963943167659)	(0.91859089304661801, -5.9350987498578052)	(6.8904761686480338, 3.9949323101721443)	1.0	slash	0.601978
32	M	A	N	N	M	A	B	B	B	8	4	shapes	M	6	False	47	(-0.04519047647122143, 0.074023565461477148)	(6.2840993594352046, -8.518043952367611)	(0.70243490168243916, 4.9836570477160453)	(-4.131648227346032, 5.2703922498729057)	1.0	slash	0.621739
1	M	B	B	M	N	N	A	A	M	8	2	shapes	B	7	False	47	(2.5187405265885907, 8.5884040063240299)	(0.70741075941160148, -0.79947578844618317)	(-7.8208270395512738, 4.7697209653520662)	(-3.4481370714047408, 4.1644056229097579)	1.0	slash	0.657241
2	M	A	B	A	M	N	N	B	A	8	3	shapes	A	7	True	47	(-2.4566099882169929, 7.8672395678066849)	(-1.5329586965382678, 0.9494071459929998)	(5.6067453429188241, -4.0159923055038922)	(-6.4301699791671432, -7.5958299178698008)	1.0	z	1.00304
3	N	B	A	M					N	4	2	shapes	A	7	False	47	(4.6631373401155116, 5.7572785724283548)	(8.7172429060540004, -4.7835709685668082)	(-5.6567295780585782, 7.1710978224397088)	(-4.5225168253966102, -4.5658371077311246)	1.0	slash	0.756522
4	N	B	B	M	M	A	A	N	M	8	4	shapes	M	7	True	47	(1.7494208052287252, -4.0545559366950306)	(3.4735616200031263, 2.6610075468525878)	(7.1157974512856512, -4.4446915783930772)	(-7.7426404251472691, 3.0077353598864001)	1.0	z	0.834272
5	M	A	N	B	A	M	N	B	N	8	1	shapes	A	7	False	47	(-7.0471412946437368, 2.3931475025574116)	(2.8872031324700238, -4.7248673131119041)	(-6.7021331145636456, -1.6225849068034917)	(5.4050718284212991, -1.4960221735280479)	1.0	slash	0.679861
6	N	B	N	M	A	A	M	B	M	8	1	shapes	B	7	False	47	(6.4120936058906253, -5.6214675132317371)	(-1.5603168798978615, -0.33720703279556474)	(-6.7195554912170028, 0.15108853584854742)	(-2.4016217149738717, -5.5108189982994595)	1.0	slash	0.517574
7	N	B	B	M	N	A	A	M	A	8	7	shapes	M	7	False	47	(-2.7813089228729364, -6.8130052877393164)	(-3.5103751916686123, -0.87019646466919465)	(5.4669971776916189, -5.4444182628870763)	(-4.1951995011636738, 8.2326444826228666)	1.0	slash	0.778925
8	M	A	N	B	A	M	N	B	B	8	7	shapes	B	7	True	47	(-2.7379946789240357, -1.6859064077879333)	(6.407274362239443, -3.7120277715177048)	(5.5338693642416228, -8.5965312254260091)	(-4.5216302762698541, 8.5747983625096786)	1.0	z	0.620917
9	M	B	B	M					B	4	2	shapes	B	7	True	47	(-6.8199800795212795, 2.1258354245960014)	(0.35384771379637492, -8.1319031297743241)	(1.6593472645185461, 2.4629354093508287)	(-7.9380102945007502, -6.2341287260880964)	1.0	z	0.649862
10	N	A	M	A					B	4	2	shapes	M	7	False	47	(-1.4479541270324567, -2.3345023004623382)	(-2.9482414271531523, 2.8527900187949875)	(4.6165549131145802, 5.2499139322207906)	(2.5114124971484859, -1.1025754537990542)	1.0	slash	0.514347
11	N	B	N	B					N	4	2	shapes	N	7	True	47	(0.48735030474353991, -6.700430575391322)	(-3.2238928008316385, 5.3191178138094397)	(8.4148892241547735, 1.6086792525971791)	(-6.9097328532497659, -2.1559554268448551)	1.0	z	0.49381
12	N	A	B	M					M	4	3	shapes	M	7	True	47	(5.1470396058256789, -6.8244228402852505)	(-4.7366864567839961, 3.8033273446711888)	(-4.6620038949519582, -7.504062502324139)	(0.19400571099813746, 2.7717000582493387)	1.0	z	0.565548
13	N	B	M	M	N	B	A	A	N	8	4	shapes	N	7	True	47	(-4.6134713188491405, -3.7408406671924528)	(5.3380029593662464, -3.9425621687195038)	(-1.423894375157218, -1.050827939302577)	(-7.711276429077544, 5.2984280283769483)	1.0	z	0.849131
14	M	A	N	A	M	B	B	N	N	8	7	shapes	N	7	True	47	(-4.2049047948801679, 3.3489431175821149)	(5.7828673610183117, -6.7796113776762477)	(1.0048151065823454, 6.6184033936220228)	(-2.251521595337997, -6.1497026086288376)	1.0	z	0.404844
15	M	A	A	M					B	4	1	shapes	A	7	False	47	(8.2450053101792946, -1.9071841815342214)	(2.653919993416034, 2.7706943306169496)	(-0.37532700355385629, 7.5473671621478822)	(-8.5770149278956378, -3.2757099029324932)	1.0	slash	0.844416
16	M	A	A	B	N	M	N	B	A	8	1	shapes	A	7	True	47	(8.0195459805805527, -7.5133061816596411)	(6.6465764283029252, 8.5383481447629563)	(-7.2461742419284105, -5.2871912365715001)	(3.9718551864367662, -1.441478692866335)	1.0	z	0.944315
17	M	B	N	N					B	4	1	shapes	B	7	True	47	(4.3969708848263913, -5.4028977357516768)	(1.0299678248806874, 3.4636886937564739)	(-3.4252195867774669, 4.8563295254823746)	(-4.8826635031474179, -8.4234601653084002)	1.0	z	0.74193
18	N	A	M	B					B	4	3	shapes	B	7	True	47	(5.1570387602610399, 3.6455225112048968)	(-7.2840114098389979, 5.4309785590645792)	(7.2311128891019703, -4.1506307814335415)	(-5.5310166969591998, -8.2138343353522316)	1.0	z	0.531468
19	M	A	B	B					B	4	2	shapes	B	7	True	47	(3.2477208453331556, -5.0468967505032225)	(-4.5521191061617365, 7.2132778280734993)	(5.4412867027376475, 0.52904836838822078)	(-4.5043438729350331, -6.7001560214867331)	1.0	z	0.547185
20	M	A	N	B					A	4	0	shapes	M	7	False	47	(2.4863686327947807, -1.6486746087486877)	(-8.1461446697975344, -5.0174850223492822)	(-7.7200339596240468, 7.6628801536509563)	(0.83223948671690096, 3.6577934136858588)	1.0	slash	1.24692
21	M	A	N	N	B	M	A	B	M	8	7	shapes	B	7	False	47	(5.2921835089645928, 7.4442847896465274)	(8.3463931849321042, -6.7186148561570107)	(-3.3285191524298217, -0.90082962660113619)	(1.532295532628094, 5.0916827027486633)	1.0	slash	0.610146
22	N	B	A	N					M	4	3	shapes	N	7	False	47	(-0.64510257180964636, -1.9647558027332011)	(-7.1465162937023967, 4.4152993187163112)	(6.5280534323293455, -6.4989741724088166)	(0.051576857184075564, 6.4574176630981164)	1.0	slash	0.626213
23	N	B	N	B	A	M	M	A	N	8	5	shapes	M	7	False	47	(-5.3705593014595721, 0.98490630977049776)	(4.4378012664568036, 1.8238658255456848)	(6.9801170865775664, -1.5215649796020685)	(-4.948841134640686, -8.5349847801649172)	1.0	z	0.63394
24	M	A	A	B					A	4	1	shapes	A	7	True	47	(-6.5765998164867625, 5.7179403174004637)	(8.7083752790125253, -2.0627137351841389)	(-3.0328263972555378, -5.5941227257719728)	(4.0630751953355571, 6.1571319273351914)	1.0	z	0.604666
25	N	A	A	M	M	N	B	B	B	8	5	shapes	N	7	False	47	(-3.7910576527510003, -6.7123138173596484)	(-6.5138190715107811, 4.6827436983115174)	(-7.7209092501348442, -5.0005840940610806)	(-5.1133628645380274, 0.42673764236331024)	1.0	slash	0.641125
26	M	A	N	B	A	B	N	M	M	8	2	shapes	N	7	False	47	(-8.1247862524585521, -4.6817978502773423)	(5.0596342804959082, -2.1665708773041157)	(4.7021492716772535, -6.2773469345246475)	(-4.5517714079458287, -2.6682862384401336)	1.0	z	0.756796
27	N	A	M	B	A	B	M	N	A	8	4	shapes	A	7	True	47	(8.3142461377079648, -7.4710236525548934)	(-1.5881926362851795, 3.1648769745129126)	(-3.845006465841081, -4.4983537371049236)	(-6.3733128292914909, -0.58340711998882178)	1.0	z	0.754558
28	M	A	A	N					A	4	1	shapes	A	7	True	47	(7.020020593657625, 5.5510665931537275)	(-6.2663704186533025, 0.22512494630217184)	(2.821713069615285, -2.3329556980919772)	(-4.7252061726759571, -6.6688083832683001)	1.0	z	0.69401
29	N	A	B	N	M	A	M	B	N	8	0	shapes	N	7	True	47	(5.8267287747834242, -0.35794263451248476)	(-0.71108944184184075, -2.5224875268900551)	(5.3400980732366836, 5.6741857834855534)	(2.2628131899681385, 1.9264213662383991)	1.0	z	0.855938
30	M	A	N	B					A	4	0	shapes	M	7	False	47	(0.0015940174514454952, -4.4785663285978057)	(-6.859067052139058, 7.2332195063691547)	(-5.403919547546348, -6.5293932948070177)	(3.3572541321372533, 5.9985714801204022)	1.0	slash	0.535516
31	M	A	B	N					B	4	0	shapes	M	7	False	47	(7.4140231297610306, 4.8556509424093743)	(1.7912307023999929, -1.0314131304930063)	(-7.5100521689988931, -1.6625178089863706)	(-8.2166131365645168, 7.8253793055993697)	1.0	slash	0.591166
32	M	A	M	N					N	4	2	shapes	M	7	False	47	(5.7341148590915356, -8.3071609261604404)	(-2.6150409426792693, 4.6173142751378347)	(-1.700030784419714, -2.7488678497747987)	(4.762945677638335, 4.4441144350993174)	1.0	slash	0.650694
1	M	B	M	N					N	4	3	shapes	N	8	True	47	(0.67718005225156297, -1.7404493539765218)	(-1.5049869020627691, 3.5803551370111713)	(0.11867312764712068, 7.7761721171454141)	(-7.9851983491648024, -7.2441558692529258)	1.0	z	0.774378
2	M	A	N	B					N	4	2	shapes	N	8	True	47	(-1.3571205786688818, -0.53505298948711655)	(-6.8501962475975366, 2.2251222412996334)	(4.1085570278709405, -7.7769634922541782)	(8.0061527578471683, 3.1495621807215333)	1.0	z	0.638028
3	N	B	A	B					B	4	1	shapes	B	8	True	47	(6.1969234121919108, 0.43698034370489047)	(-8.7331417973009948, -8.468377315640149)	(1.7078306611029319, -1.2285024738304973)	(-7.3341877719255306, 1.0193847278606505)	1.0	z	0.575929
4	N	B	N	A	A	B	M	M	A	8	3	shapes	A	8	True	47	(-6.2534351637393115, 4.6493797523288851)	(6.4196640134415155, -1.139694722355082)	(-0.75190166956011861, -8.6553613612303746)	(-6.7820280762245284, -8.0736674116278131)	1.0	slash	0.505594
5	M	B	A	B	N	A	N	M	B	8	3	shapes	B	8	True	47	(8.379718367037416, -2.4448680263199414)	(5.7730660490893797, 2.7622609415772779)	(-4.8308426971205911, 8.6961279445304456)	(-5.9895867516307186, 4.3600579036478209)	1.0	slash	0.887451
6	M	A	M	N	N	B	B	A	B	8	7	shapes	A	8	False	47	(1.2719825460568757, 3.4908670731845461)	(-4.1412381190799001, 3.9400363027252254)	(-8.5885670950940636, 1.94772306876059)	(8.1874610563006307, 7.8665932529906648)	1.0	slash	1.19276
7	M	B	M	N					B	4	1	shapes	B	8	True	47	(-6.4178284910375956, 0.99893218802538364)	(-8.0591075796287157, -7.0735005427295219)	(4.8844153134150492, 0.60153883434112032)	(6.0081506387103385, -8.6758149061653249)	1.0	z	1.2604
8	N	A	B	M					B	4	2	shapes	B	8	True	47	(4.0513448560203003, 3.4276028236386775)	(-7.9990006230743829, 0.48647041413813241)	(6.3020159193443259, -8.170396301816151)	(-2.9604824976524355, -5.9614012035653339)	1.0	z	0.634052
9	M	B	N	B	N	A	A	M	N	8	2	shapes	N	8	True	47	(4.3015405234933173, 4.6148711911193647)	(7.8754163894930933, -7.2764933711648876)	(-7.3341008583552441, 2.3622887062862254)	(-5.1409570740415704, -2.9012735001055709)	1.0	slash	0.685592
10	M	A	N	B	N	A	M	B	B	8	2	shapes	N	8	False	47	(-5.5499896585421382, -7.542392769106347)	(4.0437697372068673, 2.7447480173725101)	(-0.47652829354858817, -1.6093472895013816)	(-3.6548008755152885, 3.7024533902119234)	1.0	slash	0.545346
11	M	B	N	B					A	4	1	shapes	B	8	False	47	(-1.9775701636853826, -1.6412719038463086)	(-1.4360766216738075, 5.1778994795902911)	(3.6418013794800181, -0.6606412042914549)	(6.356744797167023, 6.0486022457372393)	1.0	slash	0.630971
12	M	B	N	B	A	N	M	A	A	8	5	shapes	N	8	False	47	(8.0904883115104305, -1.2393613924995028)	(0.98404175441469377, 8.5819173377106885)	(1.1668445847170617, 0.78918231748101775)	(-6.5362627902200963, -1.4940491427359479)	1.0	slash	0.4287
13	N	B	M	N					M	4	2	shapes	M	8	True	47	(-4.7065090642887686, 0.55684976191040292)	(8.3559560672299824, 4.579841019149665)	(-7.6512834245673726, -3.4044218080285109)	(4.3681062368257919, -3.0014391233452073)	1.0	z	0.74425
14	M	A	M	A	N	B	N	B	A	8	2	shapes	M	8	False	47	(5.8113539238279444, -5.9815999813142522)	(5.8313774486911569, 5.9423373572900271)	(3.7635593825410041, -2.5106140538202588)	(-1.328599971311295, 7.3697618254575978)	1.0	slash	0.543964
15	M	B	N	B	M	N	A	A	A	8	5	shapes	N	8	False	47	(-1.0828687349520312, -8.3076847928034372)	(7.7495927771659652, 7.2363875552649084)	(-5.6350205910161861, 8.1161241193147546)	(1.7820175758576422, 1.8015667234075305)	1.0	slash	1.40756
16	N	A	N	M					M	4	1	shapes	A	8	False	47	(-4.3573706227379505, 7.7669912384615216)	(7.8459525212385728, -1.1216921184320645)	(-8.0095955988349594, -7.6714619506500252)	(4.4305680142462176, 5.2056720410191772)	1.0	slash	0.687473
17	N	B	M	N	B	M	A	A	N	8	3	shapes	N	8	True	47	(-2.0037148888055949, 4.5378306506087345)	(-0.24202258216096517, -2.8929060606328942)	(-6.1868266940219483, 0.38765742156112815)	(4.6394815221855836, -3.8691897010687066)	1.0	slash	0.435158
18	N	A	A	N	B	M	B	M	M	8	7	shapes	M	8	True	47	(-6.721996130168935, -2.8098073688881504)	(8.2524549869095161, 8.2280051235424025)	(7.5896114314413374, 0.57893043492833129)	(5.7413029669848079, -4.7419131530321099)	1.0	z	0.694603
19	M	A	A	N	B	M	B	N	B	8	1	shapes	A	8	False	47	(-7.3124399499136752, -6.4805976279874908)	(2.5014111502417506, -5.5993777870824246)	(6.051090503720129, 8.636801608766401)	(5.2853588414324495, 3.653714812012506)	1.0	slash	1.00838
20	N	A	A	M	M	N	B	B	N	8	6	shapes	B	8	False	47	(2.6109692582283035, -6.5956734660449863)	(-6.3664000320168626, -1.6228785194074025)	(-8.0035278500964058, 8.6982547008763831)	(4.6508891444400255, -0.88703700043738198)	1.0	slash	0.722006
21	M	B	N	N	B	A	A	M	N	8	2	shapes	N	8	True	47	(-1.7193195817946467, -7.7479774706949343)	(-6.6212415462788918, 0.87789388213626829)	(-6.3813628803222979, 7.4341961830583543)	(4.9126239140466375, -2.0303700187604177)	1.0	z	1.10962
22	N	B	N	M	B	A	M	A	N	8	2	shapes	N	8	True	47	(5.7712572342969182, -6.4436449795781972)	(-0.90532266783070803, -8.6669358860164447)	(0.64577153197333104, 1.4161478212152723)	(8.1794991607450385, 5.0224199527245172)	1.0	z	0.653318
23	N	A	N	A					B	4	3	shapes	A	8	False	47	(-0.094551131173714609, -6.2983508569354845)	(-7.9923924040273846, 6.2776833786271187)	(8.3493002301760662, -2.1482274489709301)	(7.6437871836956894, 8.3280380542368491)	1.0	slash	0.804999
24	M	A	B	B					A	4	0	shapes	M	8	False	47	(0.21816294824348148, 6.2407755838260179)	(3.0170913066935867, -6.3674120383104924)	(-6.4756489752089799, 6.1124078064106762)	(-5.7050569152151667, -2.6400047832588687)	1.0	slash	0.646663
25	N	B	M	N	B	A	M	A	N	8	7	shapes	A	8	False	47	(7.4375873010540374, 6.0359423456968475)	(8.6909383226410455, -5.6997701770176405)	(1.2480675083572184, -1.2335188262069048)	(3.3405882209550253, 8.1732774377226818)	1.0	slash	0.600104
26	M	B	A	M					N	4	0	shapes	M	8	False	47	(5.0889823647204366, 3.7078736046345853)	(-5.4285724784274354, -7.7086768684356617)	(1.9188905004517718, -1.5020881524641574)	(-6.1587976179500927, 1.8168424347232399)	1.0	slash	0.610111
27	M	B	B	N					B	4	2	shapes	B	8	True	47	(-3.9763377286828314, -5.5765488371537231)	(8.2460493609765066, 0.89837197059687313)	(-2.348115588541841, 0.27391213566342287)	(7.4245958477109468, -6.4788810995717352)	1.0	z	1.53709
28	M	A	M	A					B	4	1	shapes	A	8	False	47	(3.4815924631736905, -6.5955589336061671)	(0.4270822372829528, 2.9065701282455123)	(-4.1892939795940647, 4.7844348480127348)	(-8.3882753907570926, -8.2441207141190471)	1.0	slash	0.951053
29	M	B	B	A	N	N	M	A	N	8	5	shapes	N	8	True	47	(7.0593289659258787, -7.4859572233222016)	(-6.0729270593241367, 4.4522140891327524)	(-2.7959681383215695, -4.0252236367491099)	(5.9893182069609701, -2.4622165493174402)	1.0	z	0.69264
30	M	A	M	B					A	4	0	shapes	M	8	False	47	(-7.1359019697789448, 5.6001810010284121)	(4.8152511691675297, 5.940713269444279)	(5.915533637299152, -1.1305031514446444)	(-1.5818550069200095, -5.8935610422655653)	1.0	slash	1.38061
31	N	B	A	N					N	4	3	shapes	N	8	True	47	(-0.84083488341662971, 2.5604373284745474)	(3.603836562209807, 7.7823704410537431)	(-4.4354674818059801, -2.8115269033623802)	(4.9617087515118072, -5.3830656524526876)	1.0	z	0.882252
32	M	B	N	A					A	4	1	shapes	B	8	False	47	(3.5806712715012043, 6.379333610646583)	(0.59355058270574723, -4.5700503416966756)	(-7.4464719776365884, -7.4588753656111848)	(-8.5848702471018701, 7.1780960267642424)	1.0	z	1.42757
