TrialNumber	stim0	stim1	stim2	stim3	stim.probe	ttl.stims	corr.num	trial.type	stim.corr	block	match	Subject	stim.pos0	stim.pos1	stim.pos2	stim.pos3	ran	resp	RT
1	N	B	A	N	A	8	2	shapes	A	Practice	True	5	(4.4508424388496124, 2.6066638284073598)	(-0.42964924891401957, -1.7508860186693065)	(3.0344223851397842, -5.8093279977614731)	(-8.1905957895476309, -3.4648727128968266)	1.0	slash	3.01473
2	N	B	A	N	B	8	3	shapes	N	Practice	False	5	(2.049540108572808, 5.7751005953524324)	(-7.9839005832671255, -8.4287325565458868)	(0.21961565390551385, 1.3203063521186866)	(5.3353436994520393, -2.5056871393499627)	1.0	slash	2.23193
3	N	A	N	N	M	8	1	shapes	A	Practice	False	5	(-1.367045100235349, -0.3276040022013138)	(-0.75177821296973679, -5.7843776064947408)	(4.6434993141850374, 1.6140051328073941)	(7.9545448508572392, -6.002455098656192)	1.0	z	1.45381
4	M	B	A	B	B	4	1	shapes	B	Practice	True	5	(7.6729599394763355, -5.8458235100838172)	(-5.1739922677578987, -1.04452699420853)	(-0.88757083509806023, 3.7059439585345668)	(7.9139780933346309, 7.6541324978139045)	1.0	z	1.02946
5	M	A	M	M	M	4	3	shapes	M	Practice	True	5	(-8.0008165346748292, 0.45889833329371044)	(4.4332914830424723, -7.9742058149709694)	(6.9017911716765745, 7.3037503166135522)	(-1.2564227170462274, -2.4901670810057883)	1.0	z	0.83312
6	N	A	B	A	A	8	3	shapes	A	Practice	True	5	(-0.82550203142903644, -4.7471622014943859)	(6.7480505663680699, 7.0177128485471485)	(-2.9785360540031141, 0.53152743820167636)	(-5.0303402302456401, -8.2454399779742769)	1.0	slash	0.790649
7	N	B	B	N	M	4	3	shapes	N	Practice	False	5	(-7.7199100642423648, 2.3132416900601314)	(5.8973410904533488, 2.6626078430342659)	(-0.79673153295219112, -5.0224277829345061)	(5.189084038471325, -7.6177413509583083)	1.0	z	0.84254
8	M	B	A	N	M	4	1	shapes	B	Practice	False	5	(-0.28234370138522635, 8.1825436364652333)	(0.80840844508960075, -7.1391768186359981)	(-7.2766061169253664, -5.6949187599834517)	(6.5486376710406695, 5.4758161757667985)	1.0	slash	1.43603
1	M	A	N	B	M	4	3	shapes	B	0	False	5	(0.084961663078527039, -5.6853494191836562)	(-2.5693512260392923, 2.0495954707523243)	(-4.585478202053265, -2.309518761989402)	(4.510385076140583, 4.6960031381050111)	1.0	slash	0.81923
2	N	B	A	B	N	4	0	shapes	N	0	True	5	(-7.2108166332203139, -8.6525063940481655)	(-0.15173935344318146, 3.7381198951892181)	(1.5979711510351677, -3.2479890723949092)	(5.080526207416062, 4.7586602731686156)	1.0	z	1.33633
3	M	B	B	N	B	4	3	shapes	N	0	False	5	(-0.52951825419932597, 8.1013684937869286)	(3.7169725995153158, -2.2928557968470713)	(6.4082784575980725, 2.142490866439033)	(-2.7327098753518584, -4.3960653267659096)	1.0	slash	0.864139
4	M	B	B	M	M	8	0	shapes	M	0	True	5	(6.1652781861477717, -1.1050689101879936)	(3.6193227907203465, 3.1142831152681509)	(-7.659119437101392, 8.4445700649507849)	(-3.499428134736756, 4.8874444872783318)	1.0	z	0.583552
5	M	B	M	B	A	8	4	shapes	A	0	True	5	(-8.1732461587699223, 4.5697299425636579)	(-6.7474756548316019, -5.1048983005860382)	(5.8578252158845601, -4.2003276767103275)	(-3.0855270556803411, -7.0220591463819826)	1.0	z	1.36715
6	N	B	N	M	B	8	6	shapes	N	0	False	5	(5.3860413866198318, -0.21988325470747583)	(-3.9656957424753898, -1.5535779261364508)	(0.085048938892564152, -3.4316561163790045)	(1.7847681279618204, 3.7245368149338152)	1.0	slash	0.466761
7	M	A	N	A	B	8	7	shapes	B	0	True	5	(-1.9322215960577616, -2.351684458285547)	(0.78039410764982264, 5.7592397172028065)	(-6.9485233159997266, 0.35448068667241373)	(-7.0214574060763582, 6.1768457857225982)	1.0	slash	1.98652
8	N	B	B	A	M	8	5	shapes	A	0	False	5	(4.1088495086469283, 7.3501601367335319)	(-6.17020476883269, -3.0773950055137735)	(2.921123627144171, -1.9603963584331261)	(1.0988309685488993, 1.7155670112010064)	1.0	slash	1.26604
9	M	A	B	B	B	8	3	shapes	B	0	True	5	(0.071015652044849276, 7.330820207326191)	(-4.3015352007218706, 4.1255218484544951)	(2.337681238673424, -1.2177386462708606)	(-6.2680758103582042, -4.2241516999661624)	1.0	z	0.55166
10	N	B	M	N	B	4	1	shapes	B	0	True	5	(-5.2563556136085037, 1.7166602712975862)	(-5.322493691406299, -3.9432735280550633)	(5.618076899229159, -0.17249671819768331)	(2.3779971390755374, 8.6840329328783632)	1.0	slash	1.15526
11	M	A	A	B	B	8	1	shapes	A	0	False	5	(0.31128470417415421, -0.13169260360034407)	(-1.3902778048911806, 3.8634197558374765)	(-4.9397473068965301, 7.0171468478254297)	(6.415090223560254, 0.42451478173979851)	1.0	slash	1.56873
12	N	A	B	A	B	8	1	shapes	A	0	False	5	(8.1541535173255255, 0.78628447896608478)	(-5.9138176725203619, 6.43334531965575)	(-1.1685739548480649, -5.0434320971019631)	(2.8751904886879345, 1.8996748855499188)	1.0	z	1.58848
13	M	A	A	M	M	4	3	shapes	M	0	True	5	(-1.6451925024573786, 0.019926877522861375)	(1.8583367640183592, -4.3496328199894627)	(1.3120042987744291, 6.7346440417422073)	(-3.8924837388660931, -3.9411716904604868)	1.0	z	0.616046
14	N	A	N	B	M	4	0	shapes	N	0	False	5	(-0.19473500983430547, 0.26101527733713326)	(-1.9423310098529338, -8.3108611458077402)	(8.0714894988076082, -0.73069639949169307)	(7.415538484990666, 6.9120758395434656)	1.0	slash	0.687875
15	N	B	B	A	N	4	0	shapes	N	0	True	5	(-0.72446457214881477, 0.67579477704716062)	(3.5739629964669213, 4.306621860079396)	(0.64456768235590189, -3.3246166297027386)	(-3.2667716750120421, -8.3611936509598177)	1.0	z	0.67147
16	N	B	M	N	N	4	3	shapes	N	0	True	5	(7.8142300236636295, -8.2433374549940979)	(-8.6967295149971484, 7.248393220369632)	(-3.2285324131471773, -6.0351062187904247)	(7.1538628825435158, 7.0208758728255045)	1.0	z	0.739045
17	M	A	N	N	M	4	0	shapes	M	0	True	5	(-2.2808492820254793, 5.7750125820030966)	(0.41694434053582974, -0.50019570459405749)	(-2.4396192327095401, -6.8338215121164936)	(3.7099425781692208, 5.3922689720855814)	1.0	slash	0.568854
18	M	A	A	M	B	4	0	shapes	M	0	False	5	(-1.327983525979878, 6.1747764474033708)	(-4.2288485529524191, -1.8389030525008119)	(6.4281661563193762, -2.78912671090439)	(2.0128011612029901, 2.7635039466959039)	1.0	slash	1.25635
19	N	B	A	M	N	8	5	shapes	A	0	False	5	(-3.3252674430961964, 3.8745464528611251)	(7.4318940334093853, 2.8921908032092833)	(-8.1443013848804533, 0.18801422547479163)	(8.5505923604942957, -1.7200877153997531)	1.0	slash	0.72196
20	N	A	A	A	A	8	2	shapes	A	0	True	5	(2.3582788719504908, 1.5139044415422767)	(-8.400711234533258, -3.2679733589512781)	(-3.3166357590711248, -4.0969698641687922)	(8.4598441406315814, -2.7727368242296668)	1.0	z	0.717659
21	M	B	N	A	B	8	6	shapes	B	0	True	5	(6.1617423473987571, -5.8198823257249366)	(0.048508187607550823, 7.3572935797006025)	(4.0918246651625498, 6.2337477037473761)	(-1.3973017737096551, 0.13046107606774449)	1.0	z	0.811483
22	M	A	A	N	A	8	1	shapes	A	0	True	5	(6.4527087155817533, 4.9243182020196983)	(-4.064785841447514, -2.3129160454487234)	(-0.98887435700263371, -8.3870173685422404)	(-7.758710899195389, 0.75414414836743759)	1.0	slash	0.797068
23	N	B	B	N	M	8	3	shapes	N	0	False	5	(4.3430954708898089, 6.5485385727026095)	(1.8896290242296665, 0.29577925386052861)	(-7.2785220833801745, -6.7876000660834563)	(-1.1025411529490707, 8.3220910635508289)	1.0	slash	0.554744
24	M	A	M	B	N	4	1	shapes	A	0	False	5	(0.63245796707384372, 0.22297733711389611)	(-2.4983201944998887, 5.5654939508804091)	(4.9511994030608051, -5.5265786665668415)	(-8.6690637043903198, -4.6206084822497777)	1.0	slash	0.614425
25	M	B	M	A	B	4	2	shapes	M	0	False	5	(8.0376554478072642, -7.6805622195995964)	(-2.6608708008789916, -0.66341694438174059)	(-8.6620386049559315, 6.6465554922861649)	(0.86176900810334267, 5.8364833362209279)	1.0	slash	0.917735
26	M	B	N	A	M	8	6	shapes	M	0	True	5	(-6.0668212319139627, -2.6800447412533197)	(7.7473915373960729, 8.223474323228789)	(-0.51454900276736915, 0.34888734553345557)	(3.614279852733258, -0.46459429483074643)	1.0	z	1.42771
27	M	B	A	M	N	8	1	shapes	B	0	False	5	(7.2279172763551642, 2.4797413948351537)	(-0.78718529171622986, -6.3396654048265768)	(-8.7090377191387294, -2.4443492398865976)	(4.1180282223032432, -6.3537954303890398)	1.0	slash	1.11529
28	N	B	N	A	B	4	1	shapes	B	0	True	5	(-4.6744446946652358, 1.5676618960165563)	(3.3386223304748821, 1.5920094878048836)	(2.5108085477477271, -3.6102109244282978)	(-5.4668126160507819, -8.3716555618765867)	1.0	z	0.535017
29	N	B	B	A	B	4	3	shapes	A	0	False	5	(-7.24217697595037, 8.3018741301459258)	(-2.3871512078343393, -7.3706150634040304)	(3.3666793290576376, 8.275793600517158)	(4.5551069065435179, -3.6005088339955815)	1.0	slash	0.742735
30	N	B	M	B	N	4	0	shapes	N	0	True	5	(8.0788170602925184, -3.0747808255307723)	(-1.0612803590301221, 5.7816243364934579)	(3.1711353506689104, 5.3860401342656061)	(-7.2514855061641459, -5.2284389349150358)	1.0	z	0.716276
31	N	B	A	N	N	4	1	shapes	B	0	False	5	(3.973183262030954, -7.8040965028231488)	(-0.78608497695986213, 6.7896153616696733)	(4.4994479977851345, 2.2860133717163311)	(-6.8314044167425969, -1.3420675027629017)	1.0	slash	0.632
32	M	B	B	A	N	8	2	shapes	B	0	False	5	(5.7024975422245952, 0.76896773400333984)	(6.2330627253484074, -7.7990397426264852)	(-0.024012012960664464, -2.1114081804534379)	(-7.1482725051693414, -7.9533098017519768)	1.0	slash	0.837577
1	P	C	C	D	O	8	6	shapes	O	1	True	5	(-5.4486500329720879, 8.7271341584335893)	(-5.9143102569518877, -6.9080534527862092)	(-5.5847748471087471, -2.2242860151620425)	(-1.0725403577112305, 3.122266300021872)	1.0	z	0.803385
2	O	C	D	P	P	4	3	shapes	P	1	True	5	(-7.8168260170556971, 6.0795802440634894)	(-2.2234563513850416, -4.3083788580705793)	(3.770694498334807, 8.6438551692811494)	(7.9960784235482443, -1.9026468291229959)	1.0	slash	1.3809
3	P	D	D	C	D	4	1	shapes	D	1	True	5	(7.5695271585234742, -6.1809739405270063)	(0.69107163727393583, 1.1112764705889688)	(-5.0201324756193451, 3.2156113159488005)	(-6.8862224721369678, -2.2257809892972995)	1.0	z	1.83455
4	O	D	D	C	C	4	3	shapes	C	1	True	5	(5.0356569708332053, -7.5757025234546127)	(-3.2925070112928214, -7.5772652810597627)	(5.3206321435642998, 5.9798087547396399)	(-5.7205597433610453, 0.21548298510211694)	1.0	z	0.374086
5	O	D	D	P	O	8	0	shapes	O	1	True	5	(5.9693032456544906, -8.3199132294105986)	(3.3884694665871056, 0.060900443939429394)	(3.102660146106496, 4.4976169706453302)	(0.5946086551611991, -3.8260316605112896)	1.0	slash	0.615886
6	O	C	O	D	C	8	5	shapes	P	1	False	5	(5.8635578304553828, -5.9355048365555678)	(6.0899277700064935, 2.521945229382764)	(-7.9110187117991195, 7.5133210683432701)	(1.7438443852596475, 2.6239899276795331)	1.0	slash	0.90556
7	O	C	O	P	D	8	4	shapes	D	1	True	5	(-0.2722331006119223, -2.0448356979291775)	(-7.1390736674106661, 0.88493569918119697)	(-1.8608163828889284, 1.8558688531030096)	(7.4809908941781806, -1.7359525341443023)	1.0	slash	0.633026
8	P	C	C	O	O	4	2	shapes	C	1	False	5	(-5.7696188223868319, -5.4253843131951847)	(3.2447772581817667, 3.2140929761438208)	(6.4925379193339019, -3.3317486340352227)	(-6.655274867772313, 2.1048313548353761)	1.0	z	0.860573
9	O	C	P	C	O	8	4	shapes	O	1	True	5	(-2.9527381055863833, -6.2595933415116587)	(2.8642477082087154, -0.55520018299693419)	(-1.2583118530134669, 7.737262294778386)	(-6.2628884332844112, 6.3494295578770554)	1.0	slash	1.67828
10	O	D	C	O	D	8	0	shapes	O	1	False	5	(8.7152654972470422, 8.394199426646999)	(1.7055954073020132, -8.6870997373886372)	(-7.7116517348190108, 6.6181564662963357)	(6.1034317858482954, -7.4432680550425907)	1.0	z	1.11579
11	O	C	O	P	O	4	0	shapes	O	1	True	5	(-0.96308449090338044, 0.034067361217921643)	(-2.1884771789173909, -7.2298375989734627)	(6.9183220754368051, 0.18886314116950409)	(6.1172510634311923, -5.5450952676361531)	1.0	z	0.775378
12	O	C	C	D	O	8	0	shapes	O	1	True	5	(-2.5284630071954153, 1.6278407453533994)	(-7.5477439225888503, -0.90529814637898731)	(-4.6205159327691439, -5.1144231898071144)	(6.8352743587504108, -7.4396360622220215)	1.0	z	1.02525
13	O	D	D	P	D	8	7	shapes	P	1	False	5	(-1.3675605920283367, 4.9756490524816659)	(-0.57456295457860129, -2.6779286199026613)	(3.4001483827339456, -2.0592881027750485)	(8.2766710513275328, 0.78941402333344435)	1.0	slash	1.20897
14	P	D	O	D	C	4	0	shapes	P	1	False	5	(-1.0315515424222141, -2.4585245413648567)	(1.6362021180501216, 5.9530610230314096)	(0.9491088726771153, -8.1656579416325119)	(-2.9677342390503805, 6.2544721142264912)	1.0	slash	0.632626
15	P	C	P	P	P	8	2	shapes	P	1	True	5	(0.74234648561161087, 7.0084399500822112)	(6.4927374299689404, 8.4492256248558917)	(-4.3283858972429732, -5.7063410495185565)	(-4.8551917528923774, 3.5342019763026062)	1.0	z	0.830152
16	P	D	D	D	D	4	2	shapes	D	1	True	5	(2.2472880857059785, -3.946766919595734)	(-6.7238384023100251, -0.95920038648041039)	(2.688483763793112, 2.9247244719334144)	(-7.76885185383032, 6.3529946411333018)	1.0	z	0.785875
17	O	D	O	D	O	8	0	shapes	O	1	True	5	(-3.8279075450564104, 1.0507035822844717)	(6.9301924732458833, -6.9610992586756755)	(8.4334899089371476, 0.26848538422890833)	(-8.0671043815161312, 4.7787909869643102)	1.0	z	0.657568
18	O	C	P	C	P	4	1	shapes	C	1	False	5	(-4.1001218000665753, -6.1147644706356061)	(7.5000410072874715, -0.98693520826840953)	(-7.2529698729197349, 7.3035588193351586)	(3.4762653407091868, 4.5806353826474187)	1.0	slash	0.417099
19	P	D	C	O	P	8	3	shapes	O	1	False	5	(3.455600827731848, 2.7823872061661739)	(3.958754981400185, 7.5222309256912894)	(-1.6080549877346169, 0.3432187065485266)	(2.2158068068622683, -5.4035743771219051)	1.0	z	1.21204
20	P	D	C	O	P	4	1	shapes	D	1	False	5	(7.7569264315977513, -0.25913636635894832)	(-0.67319631715481343, 6.739362425048073)	(6.9289448178789215, 5.2943257875290453)	(-6.2794059452000548, -5.1604612171663575)	1.0	slash	0.379788
21	O	D	D	C	D	8	7	shapes	P	1	False	5	(4.3088898512038405, -2.590455794212617)	(-2.1079836998214994, -2.5392394074293909)	(2.1428998046558654, 7.4617923485697482)	(-7.0419071029675067, -3.2731997951572271)	1.0	slash	1.22215
22	O	D	P	O	P	4	2	shapes	P	1	True	5	(-1.3937487904878889, -8.0130620277089282)	(6.0143384018444923, -2.2405614568807071)	(-5.1574485665495029, 7.4967661861637573)	(2.6291463390492531, 2.9266639541687098)	1.0	slash	0.7638
23	P	D	O	P	D	4	0	shapes	P	1	False	5	(2.2631536801560159, 6.1828353337619681)	(-3.6554994577792579, -8.2594073880564256)	(7.7062816977334272, -2.0139964426119956)	(-1.3490395636845367, 1.1371576129611753)	1.0	slash	0.765412
24	O	D	C	C	C	8	3	shapes	C	1	True	5	(1.6459582139596236, -5.5542223630142331)	(0.49545287223110179, 8.105452383141003)	(7.1299416327811365, 6.4061847725069114)	(6.9050401587572949, -8.5225471873135756)	1.0	z	0.745114
25	O	D	C	O	C	4	2	shapes	C	1	True	5	(-8.3637054502181627, 5.758713560136913)	(-0.92964740504942522, -5.2302884266218506)	(4.6505590532663774, 2.6416734582852097)	(5.0501896590641344, -5.6832239736782393)	1.0	z	0.534715
26	P	C	D	D	C	4	0	shapes	P	1	False	5	(-6.0087110748090602, -1.0913480812408105)	(2.8067163313880652, 3.1566010083904281)	(1.9802516887217383, -0.86767403774700291)	(-5.6062096288827767, 3.717813146205188)	1.0	slash	0.628376
27	O	C	D	D	P	8	5	shapes	O	1	False	5	(3.1962227508338028, -3.733685191855975)	(-8.2396000678299455, -4.0859791079746763)	(-7.6559707885952619, 8.7084242797972706)	(-5.1974690587742609, 0.6143971799262502)	1.0	slash	0.787967
28	P	D	D	D	C	4	3	shapes	D	1	False	5	(-5.1538414215993296, 1.5673215161246912)	(1.4086260238059385, -5.4844439771567064)	(-4.2111822167223156, -6.0744212349534052)	(4.0379470041140166, 1.2613381966978583)	1.0	z	0.631479
29	O	C	C	C	D	4	1	shapes	C	1	False	5	(0.44844738850994226, -4.2745746908843989)	(-4.5705230006724369, -6.8651296268759552)	(-0.56163422289272091, 6.2248108837700258)	(0.2452569223732084, 1.5119417524429277)	1.0	z	0.739496
30	O	C	P	D	P	8	4	shapes	D	1	False	5	(-1.2590454238388329, 5.0872671438058745)	(-6.3734403981495582, -8.7139414153295451)	(6.2945953161187784, -5.4260358156796782)	(-5.9697629651133912, 3.281136656786602)	1.0	slash	0.501087
31	O	D	O	C	C	4	3	shapes	C	1	True	5	(4.1695838338941424, -1.0385746338364479)	(2.561223946093337, 3.0289596323531569)	(-4.5946182299748521, 2.3859367112078971)	(-8.4812094001101794, -0.092510032921763852)	1.0	slash	0.498718
32	P	C	D	P	O	8	3	shapes	P	1	False	5	(-5.8345737016285524, 7.9800946544094842)	(-6.1183536764643431, -2.1437650570901434)	(-0.46878164001753753, 7.824189836955604)	(-4.7603363401798768, -7.5319740346126807)	1.0	z	1.06855
1	R	F	R	R	R	8	1	shapes	F	2	False	5	(-0.17104792715196027, 2.2577964077554693)	(7.4614659360723401, 3.4614489723650781)	(-5.9988600865849948, 5.0733627037009423)	(-1.6996377423351205, -5.4779253959815666)	1.0	slash	0.860147
2	R	F	F	R	Q	8	3	shapes	R	2	False	5	(4.3710251840070171, 6.6060473844241958)	(3.9535394668927673, -7.9329733988722664)	(-7.7066788395932795, 1.8917150412144501)	(-5.0422836360339165, 4.9025748402997209)	1.0	slash	1.40604
3	Q	F	E	E	Q	4	0	shapes	Q	2	True	5	(-4.5719610374817217, 6.4243376526915874)	(-1.0421159372599389, -8.3603137984116049)	(4.7619257901085437, -0.07205015775307011)	(3.5613534253811512, 7.2914894071761509)	1.0	z	0.551157
4	R	F	E	E	R	8	6	shapes	E	2	False	5	(6.6260080148128129, 4.3163862382183353)	(0.97672579353270805, -7.469476664634449)	(-0.14465423787819631, 2.1298443431773357)	(-0.174269312707656, 8.329569055128573)	1.0	slash	0.758436
5	R	E	F	R	F	4	2	shapes	F	2	True	5	(7.4904243058356528, -3.4178174270157866)	(0.7518459972001601, 0.38595308212023305)	(-3.2362524461043449, -7.6689235316816156)	(-1.5851656112798356, 5.3749497634029471)	1.0	z	0.93658
6	Q	E	R	E	Q	4	3	shapes	E	2	False	5	(4.5435656694445896, 5.8419037968354566)	(-6.1025850242540596, 7.7197157155511)	(-4.0959831226899679, -7.5152158333294574)	(3.527645486204225, -3.8233334085281054)	1.0	slash	0.887697
7	Q	F	F	E	F	8	5	shapes	F	2	True	5	(1.4297844478628363, 2.635217621631698)	(-4.5892855392772862, 0.71436186240621247)	(-7.7505120448217957, 8.6735857346684782)	(7.6117292854251346, -1.5104460353712374)	1.0	z	0.627822
8	Q	E	F	E	E	4	1	shapes	E	2	True	5	(6.0875912169225401, -2.7737821413117736)	(-1.0831413489718784, 4.076920777626416)	(6.6735829486184652, 1.7254569526214709)	(-7.0312420435891134, -0.95903800825188501)	1.0	z	0.833302
9	R	F	R	E	R	4	0	shapes	R	2	True	5	(1.9604236231064949, 6.4415298078458711)	(-2.8729200634562408, -0.90103054258668358)	(-6.0536018802837894, 4.8899203399883255)	(8.3658093557202626, -7.6106394734077689)	1.0	slash	0.717268
10	Q	E	Q	Q	F	8	7	shapes	F	2	True	5	(-1.4995200836214622, -2.5860351812151112)	(-0.24434892700891986, 4.0169649696532055)	(-0.72361470742317913, -7.1819209841814313)	(8.2925971984278668, 1.3493113687550036)	1.0	slash	1.38682
11	R	E	E	F	Q	4	1	shapes	E	2	False	5	(-6.8128366337217274, 5.6492794464003797)	(-0.64405517681504065, -5.8913188172998296)	(8.4362049871912035, 3.9988124771893609)	(3.9154422009022269, -3.1265951172125028)	1.0	z	0.824561
12	Q	F	F	Q	F	4	2	shapes	F	2	True	5	(3.2228234116831658, 0.41760291377381087)	(5.1599807169016465, -7.8986508287339898)	(-5.4359966684749566, 2.7594550142523264)	(-2.1987812342653843, -3.8821065384062718)	1.0	z	2.44619
13	R	F	F	F	Q	8	2	shapes	F	2	False	5	(5.6931737720536688, 7.4313809914925315)	(-3.7494841698648695, -2.8681462581397792)	(-7.2169314595221756, 0.16823999766052999)	(2.2901420653917057, 3.5202322535232522)	1.0	slash	0.353717
14	R	E	E	R	R	8	3	shapes	R	2	True	5	(3.0028388829747819, 6.1279328138041755)	(-3.321136377349684, -2.3930571158812892)	(-4.5665182807667808, 6.9927996455806998)	(3.0874375076838483, -5.5132614981493857)	1.0	slash	0.599341
15	R	E	F	F	E	8	5	shapes	R	2	False	5	(-5.5005515417804265, 4.7585839070988953)	(0.15984231859758502, 1.7814176184961088)	(-3.2822560326108023, -0.68237157300219486)	(6.2299081485688301, 4.4040594823726149)	1.0	slash	1.91709
16	R	E	R	Q	E	4	1	shapes	E	2	True	5	(4.303905767769713, 7.4881502897483507)	(-1.9426402243164915, 2.7735407558663638)	(6.3719576001975735, -5.1863883537768221)	(-1.5085340285767401, -2.8820922730373093)	1.0	slash	0.560502
17	R	E	R	R	E	4	3	shapes	R	2	False	5	(3.2876198304500832, 7.7239857814598309)	(-5.3602523095294092, -2.6559851274238788)	(5.5062275193755461, -0.61400279157633975)	(-6.1539918102140359, 4.6494719864886278)	1.0	z	0.273897
18	Q	F	R	F	F	8	6	shapes	F	2	True	5	(5.9264528898990303, -4.1618357330627376)	(-6.2577362841519832, -8.4010969190845302)	(-2.7863163731611511, 1.2184845345597299)	(-4.2641450685911817, 5.1091046906910424)	1.0	z	1.12813
19	R	F	E	R	R	4	2	shapes	E	2	False	5	(-2.1247235245293572, -8.1780786400703853)	(6.1058274544347189, 8.1933331338876876)	(-1.0756165437130258, 8.6393296564318653)	(4.8475101273091852, -2.093565137477956)	1.0	slash	5.21763
20	R	F	R	Q	F	4	2	shapes	R	2	False	5	(2.4119001791876133, -7.5704490166439635)	(-3.1046809558407436, 7.7789261957368083)	(7.1129965801058539, 2.4297585042911329)	(-1.2801213124554369, -5.3221885963595312)	1.0	z	0.656747
21	R	E	E	E	E	8	3	shapes	E	2	True	5	(-7.2829751037280825, -0.72628102315086807)	(5.550578536179426, -7.6283519716119788)	(5.0942030720094227, 7.8554116337410207)	(-3.43377627750667, -2.8702961606577269)	1.0	slash	0.914728
22	Q	F	Q	E	R	8	6	shapes	R	2	True	5	(0.86994577583064547, -2.9454293715703379)	(7.1030345849066006, 3.7730526246385487)	(-4.579892769440189, -1.256832820108885)	(-5.3856898414806711, 5.5503472512980547)	1.0	slash	1.0243
23	Q	E	R	F	F	4	0	shapes	Q	2	False	5	(5.4638639223999483, -4.4762209662207013)	(-6.0067801948299051, 0.66764170827372205)	(1.5803604562217579, 8.5100547967990927)	(-0.43982896201550936, -7.0218642898161887)	1.0	slash	0.485951
24	Q	F	F	F	E	8	0	shapes	Q	2	False	5	(-4.9736824442569167, -0.39153371419838834)	(2.3296760665266962, 3.0418747797283601)	(-5.1939532534836745, -8.5063594513354062)	(0.53193587233853457, -6.2496383944088389)	1.0	slash	0.721642
25	Q	E	E	E	E	4	2	shapes	E	2	True	5	(-6.0689760565559441, 4.6958835645500763)	(7.3509011283875729, -1.6026654806242595)	(-6.9797826749727951, -0.23524763643676394)	(4.5559190785630843, 5.6534502573702206)	1.0	z	0.803198
26	Q	F	R	F	Q	8	0	shapes	Q	2	True	5	(8.2766006897713069, 7.1492918947011557)	(-6.0173399141167927, 2.6276311027459833)	(-0.68846121686272888, 8.4433827049221648)	(4.8108297985092765, -3.0396589876234126)	1.0	slash	0.926974
27	R	E	E	F	R	4	2	shapes	E	2	False	5	(-6.0633186035753326, 3.3530524807610202)	(5.0050560298833453, -8.3488721208982106)	(7.9749474627039589, 8.1340401707981727)	(-2.9575692375988956, -3.9579288191881856)	1.0	slash	1.00849
28	Q	E	Q	E	R	8	7	shapes	E	2	False	5	(3.4283954848763578, 6.8444221333814816)	(-2.2834914261875818, -3.6106112416518537)	(-7.8496927035596888, -7.6705052095281845)	(-1.9427084843544433, 0.79863537891087866)	1.0	slash	0.732425
29	R	E	E	F	E	4	1	shapes	E	2	True	5	(-4.7517639274852534, 5.5105352677864499)	(0.045768180593590557, -8.4574884688934233)	(-0.0098875377882841065, -0.88301934399315574)	(4.9583672198839146, 8.7135610956658596)	1.0	z	0.851871
30	Q	F	F	R	Q	8	4	shapes	Q	2	True	5	(-0.90721725978232648, -4.9505708442067871)	(-2.4762902384233048, 8.4227660475712121)	(-8.279373941499804, 6.5905179180078211)	(-4.1015811727832308, -7.7813269701485783)	1.0	slash	0.60758
31	Q	F	E	F	R	4	0	shapes	Q	2	False	5	(-0.72014933718164365, 8.3296072235189946)	(-7.3824198091287538, -8.6851722469749042)	(1.3066726797440538, -2.2881475800356306)	(1.8802999839753038, 4.3526568994081742)	1.0	slash	1.15321
32	Q	E	Q	Q	R	8	0	shapes	Q	2	False	5	(-0.17097593292892377, 2.1923406489156729)	(-6.8756248458554809, -1.5607942845756666)	(0.21686799048035788, -2.5049605850301093)	(1.8596405274372945, 8.3337156954065605)	1.0	slash	0.646174
1	N	B	A	M	A	8	7	shapes	A	3	True	5	(-1.5303701966777501, -1.7665209325823614)	(5.8349816638297956, 4.0534279591176432)	(-5.2569882889472748, -4.5096756789869179)	(7.1438704183484649, -8.4423694738531943)	1.0	slash	1.70056
2	M	A	A	N	M	8	5	shapes	M	3	True	5	(2.0707118402793068, -1.8075644152784109)	(-7.3660307426981237, 5.51691615308048)	(-6.19264447877908, 1.0823261484891074)	(4.430948177344618, 2.7396878097563526)	1.0	z	0.470047
3	N	A	B	A	N	8	5	shapes	N	3	True	5	(8.7267357671381269, -0.2724777769775546)	(-6.9865111371802779, 6.8670862443662681)	(4.6016766544464449, -3.3243643650794317)	(-3.7047374402104563, -2.8782413994052867)	1.0	slash	0.677768
4	M	A	M	M	B	8	3	shapes	M	3	False	5	(6.5627986802193021, 7.1661342186304804)	(6.9512540914891119, 1.1533176428602676)	(5.2095416724723229, -5.5146692312041328)	(0.28953024609963229, -8.3151747450023663)	1.0	slash	1.10743
5	M	B	M	A	M	4	0	shapes	M	3	True	5	(-4.0368020858476577, 2.5386270345267619)	(2.1026428024283099, -5.2979689056963615)	(5.1293747501499922, 6.6794238892625994)	(-2.6374581155015564, -1.2362952706585588)	1.0	z	0.519086
6	M	B	N	B	N	4	2	shapes	N	3	True	5	(0.3166454976116686, 3.9070257437456828)	(-5.7871726864594208, 5.2940417215730537)	(5.7172372671230907, -4.3170070478482554)	(-6.7359722202913499, -4.8730034089650918)	1.0	z	0.656685
7	M	A	N	M	A	4	3	shapes	M	3	False	5	(4.7717439484199033, 7.1052173769153004)	(-7.8293418867730846, 3.3065939349872995)	(-5.5554926060079204, -5.8026919238889638)	(7.4052037877478512, -3.0647675260630578)	1.0	slash	0.560243
8	M	B	B	A	B	8	1	shapes	B	3	True	5	(1.7753932267825778, 3.6389443636248977)	(-7.5843788407700075, -1.8197204641443472)	(4.6206406691117667, -4.8340282531593886)	(-3.0932213636837407, 8.0159607428587591)	1.0	slash	0.957925
9	N	A	B	B	A	4	0	shapes	N	3	False	5	(6.1451357165097065, -8.4448131615337463)	(-2.5626849247751737, -7.7775708483271799)	(-2.3470093386019171, 8.1487557654818232)	(1.4159629640817002, 1.583469097513408)	1.0	slash	0.935712
10	M	A	A	B	B	4	3	shapes	B	3	True	5	(-3.7718532188445062, -1.0426702221374287)	(0.15294315483851761, 0.19884294216971021)	(-3.0872308869274017, 4.9856450436405968)	(8.7110250371370626, -2.5357055023010746)	1.0	z	0.543132
11	N	B	A	N	M	8	1	shapes	B	3	False	5	(-1.1190599063029731, 7.4995208571474841)	(1.5278570319619185, -0.28037707409922774)	(-5.1222481857120528, 4.3222317828490731)	(-7.2080178236234875, -0.32116893261556356)	1.0	slash	0.632996
12	N	A	N	A	B	8	0	shapes	N	3	False	5	(-6.1177222458134963, -4.9837034112187482)	(3.3738803043685284, -5.4849477131662638)	(8.3471285728137659, 2.9392496059751352)	(1.6210160969532872, 6.6150458134627819)	1.0	slash	0.630665
13	M	B	A	B	M	4	1	shapes	B	3	False	5	(3.1377008498934753, 7.5702084549403068)	(1.3153904231187266, -0.25501005309986624)	(-8.5263177623017317, -0.17205164816406793)	(-3.7441333092761306, 0.32090315978546968)	1.0	slash	0.730258
14	M	B	N	A	A	4	3	shapes	A	3	True	5	(6.2252960099772867, -4.2897002858635007)	(-7.004570128465148, -4.416306217246496)	(-8.6956824545854907, 5.3473195378213614)	(5.0204680268209394, 0.48421415399733192)	1.0	slash	0.882072
15	N	B	A	A	B	8	5	shapes	M	3	False	5	(3.5496978354711111, 0.20140317365724059)	(-5.4749629135471132, -3.6535796770021314)	(-1.6922634067692544, 8.2091419076228256)	(6.7298174396471371, 3.2596832944216132)	1.0	slash	1.16558
16	M	B	M	N	N	4	0	shapes	M	3	False	5	(0.81757225088337826, -5.3003406572462142)	(2.6709881088878298, 0.60587653855565549)	(-6.8941510512090529, 1.2032365982730049)	(-8.6445732758195639, -3.1104592411051675)	1.0	z	1.40732
17	M	A	A	A	A	8	3	shapes	A	3	True	5	(0.17456483161528169, -7.0253323613583705)	(-6.9006966178209668, 6.6429139054807749)	(2.4967705716480779, -2.1984312706153375)	(-2.6944622429999159, 2.1282011910870366)	1.0	z	0.770731
18	M	B	B	M	N	4	3	shapes	M	3	False	5	(3.708248596937521, -7.3773071326716284)	(-4.4283324647613176, -4.7291953246765184)	(-1.3939766277612939, 3.5440649377585842)	(3.8325461318999547, 4.0779769278710383)	1.0	z	0.962629
19	M	A	B	B	B	8	5	shapes	N	3	False	5	(-4.7865858828948866, 5.5965558093849666)	(0.41991682221087601, -8.6959690614157203)	(1.2402973704040736, 1.7170646110189338)	(-7.9285588567180678, -7.7836373074842449)	1.0	slash	0.662302
20	N	B	A	N	M	8	3	shapes	N	3	False	5	(-6.0091140328537618, -4.7817319662804927)	(-4.4054520854088244, 6.8506106864326544)	(8.0083722283498737, -1.0716699564252892)	(1.2156193886619153, 2.1342714519105588)	1.0	slash	0.765308
21	M	A	N	B	M	8	6	shapes	M	3	True	5	(-8.4004863380671697, 3.9368798588499843)	(-4.5972125546731881, 2.0671549161726368)	(0.0043503934299113922, -2.6882394027569534)	(-2.5620129176245454, -7.2425904270230044)	1.0	slash	0.481406
22	M	A	N	M	B	4	2	shapes	N	3	False	5	(7.274382614925532, 6.4275781500197589)	(-6.3781682549851846, 1.5108990634704291)	(1.060679391774535, -4.6010564573091477)	(-4.4792894215951486, -7.6847918714721333)	1.0	slash	0.762369
23	N	B	A	A	A	4	1	shapes	B	3	False	5	(-5.5496291166338523, 7.3500584174743224)	(-0.93041516213932951, -0.98726262567772327)	(6.7164775584671688, 1.871966656595097)	(0.072694447872816426, -5.7695931820932493)	1.0	slash	1.13075
24	M	B	B	A	B	4	3	shapes	A	3	False	5	(-5.2592655511903494, -0.61763428778185059)	(6.1341732759820786, -2.9505188782697509)	(-3.0751190378347104, 4.7524532659639647)	(6.7678414803104747, 5.6680678841250298)	1.0	slash	1.31441
25	N	B	N	M	M	4	3	shapes	M	3	True	5	(7.174949284146134, -6.9489861713570766)	(3.8959803594253337, 0.28271154684686373)	(-6.6142809285635309, -0.88849082365348941)	(-4.6091331944398934, 6.126023083869562)	1.0	z	0.702095
26	N	A	A	M	M	8	5	shapes	M	3	True	5	(3.5361695833135034, 6.6931979678656184)	(1.5586752951584479, -5.017101180173686)	(-0.54125129544451234, 6.2283499484491731)	(5.8870607664765071, -1.4853434933105953)	1.0	slash	0.581722
27	N	A	M	A	N	4	0	shapes	N	3	True	5	(1.0590016346919988, -5.3958846538120291)	(-4.1997624695606781, -5.9104078160854083)	(-0.80502854696344617, 7.8002838372301433)	(2.4624090348767371, 1.8100549070178964)	1.0	slash	0.659294
28	N	A	N	M	M	8	4	shapes	N	3	False	5	(-4.2699900854282324, 2.3596796955463883)	(7.978868770786633, -1.3280096115834068)	(-1.2421448819421883, -6.2636475448529829)	(-5.4361950044187184, -7.2848332076263613)	1.0	slash	0.429134
29	M	B	B	N	B	8	2	shapes	B	3	True	5	(-8.1965252333948175, 3.5436082522578118)	(-1.2726419176392287, 4.7201251040723751)	(-2.1744139571015557, -6.9454053745235393)	(3.8293687614213763, 5.8320847824104725)	1.0	z	1.18888
30	N	B	A	A	B	4	1	shapes	B	3	True	5	(2.171711494354172, -6.4001765083717661)	(7.6285507506543837, 6.735580096866407)	(-4.4184068837511044, -3.3941360191894452)	(-1.5002163895098626, 2.5228238348095999)	1.0	slash	0.462526
31	M	B	N	N	B	4	1	shapes	B	3	True	5	(-1.3334425943205543, 3.1610178297808567)	(4.6889838769505161, 8.5248835264694272)	(6.965943499754216, -1.5584675330199254)	(-0.2084485661969957, -5.7907839468721827)	1.0	slash	0.787971
32	M	B	M	N	A	8	0	shapes	M	3	False	5	(-4.8288353045487389, 1.306506737453164)	(6.5850897372631305, -0.47837861663438375)	(-4.1247472542751069, -6.1979428745203702)	(4.4550770440973491, 8.5922292090444508)	1.0	slash	0.595788
1	P	C	O	D	O	8	7	shapes	C	4	False	5	(-2.1630353593131861, 8.6133857572413497)	(1.4279463034277544, -5.4868770044285142)	(4.6720446773816722, 2.282190379919216)	(-4.1480979937192632, 2.9349425688137565)	1.0	z	1.39723
2	O	C	O	D	O	8	3	shapes	D	4	False	5	(-7.5375530433814539, 5.7940284392195061)	(-3.4877914234138778, -0.90872179277491494)	(-0.36275335857206592, 7.6358534454922129)	(5.9775119379577877, 7.1233216278096894)	1.0	slash	0.930938
3	P	C	D	P	C	4	1	shapes	C	4	True	5	(-2.5763919742509893, 0.051769391503109219)	(4.3003882303550771, -4.9691629056207578)	(4.4971064700927368, 7.7397692231089259)	(-8.579728771071947, -5.6757284068622749)	1.0	slash	0.938587
4	P	D	P	D	D	4	1	shapes	D	4	True	5	(-0.88582085266747335, 7.6238411833651263)	(-7.6416005237521167, -0.76097239235872305)	(7.8776815785397858, -4.0028594557987951)	(5.281175343969954, 6.4624924924269607)	1.0	z	0.623484
5	O	D	O	P	D	8	0	shapes	O	4	False	5	(8.2641507108506573, -0.27064203014222343)	(5.1688452460641088, 8.1815978004182703)	(1.0684293051859424, 3.5931361526314785)	(-1.4754871580877298, -5.2037303133828683)	1.0	slash	0.517559
6	O	D	D	P	D	4	1	shapes	D	4	True	5	(3.2704460553988373, -6.7654331166017485)	(-7.468307663827467, -6.0808970302975887)	(1.518910584112044, 6.5869259864637382)	(-3.8129343780626597, 1.7029493304869998)	1.0	z	2.63152
7	P	C	C	C	O	4	3	shapes	C	4	False	5	(2.4551491584644545, 1.511947183523672)	(-5.6799957433440147, 0.76021233176074965)	(8.3914928290066726, -1.3386608651250986)	(-7.5298908980800778, -4.8581930819613639)	1.0	slash	0.499185
8	O	C	P	D	C	4	1	shapes	C	4	True	5	(-4.403694127878337, 7.6313134147046569)	(-0.0042838401582603325, -8.1244046183717114)	(3.4026409448029096, 0.48142695363387666)	(5.1399198076288766, -3.6608029992441322)	1.0	z	0.816725
9	P	C	D	P	P	8	7	shapes	C	4	False	5	(1.6894072688711184, 1.3173225298802578)	(-5.1703599651961554, 2.6700369924317577)	(-5.4317035679167383, -4.0088818145682783)	(-1.2041739581385222, 8.5159264622820139)	1.0	slash	0.602464
10	O	D	O	O	O	4	2	shapes	O	4	True	5	(6.8585011493126071, -2.2303371891017916)	(-8.5639965531736379, 7.678851880327084)	(2.8319428944061862, 2.9640131444831699)	(-1.0847035995432615, -1.6334514689660429)	1.0	z	0.868063
11	O	C	C	C	P	4	1	shapes	C	4	False	5	(-2.4430677011503219, 2.9578855427805539)	(-7.7490607610309734, -5.5985914563045123)	(6.5000981021435464, -6.5573435991870692)	(2.2349947442061406, 1.8149865429375218)	1.0	slash	0.76779
12	O	C	C	C	D	4	1	shapes	C	4	False	5	(-7.2126717639259121, -5.6582627954168103)	(7.9480271937255687, 2.2124379158649656)	(-2.3115881311094446, 6.7375769725083074)	(2.9245065621780562, -0.70805079099327095)	1.0	slash	0.855519
13	O	D	O	P	O	4	2	shapes	O	4	True	5	(-5.5766139204342036, 2.7592162537843965)	(-4.4764654969988982, -3.2753214540947369)	(5.749376684798662, 0.10103164607737014)	(0.69309050381742487, -1.1597689269087246)	1.0	slash	0.615119
14	O	D	O	D	D	4	1	shapes	D	4	True	5	(-5.0867102920275435, -7.686108770361642)	(1.153706271751533, -6.7986173132760968)	(-7.0533656136296408, 6.8903648016676531)	(1.1498804123725801, 5.6625351770317103)	1.0	z	0.782728
15	O	D	O	D	C	8	6	shapes	P	4	False	5	(-6.0818916278396662, 1.8804125815748964)	(3.9830468049490921, 4.0045867033274209)	(3.2532737494039168, -2.654933022015908)	(3.29529848988434, -6.8465895135294668)	1.0	slash	0.614465
16	O	D	O	D	O	8	0	shapes	O	4	True	5	(4.421773798840448, 8.2772256750340603)	(4.3438605547823954, 3.6392451663066865)	(-7.3980895977798715, -4.1894539177393515)	(6.891919959836649, -5.4011883535668233)	1.0	z	2.13606
17	O	D	C	D	D	8	3	shapes	D	4	True	5	(-4.7544375234419611, 6.1253586206464234)	(-4.8091893208405176, -3.2934935718047997)	(8.7194933587784362, 3.9428380098977556)	(6.019603878403414, -0.19572591064158473)	1.0	z	2.74539
18	O	C	C	D	P	4	1	shapes	C	4	False	5	(-7.1917401173042492, -1.8089948157961828)	(5.7610239661491214, -7.3508989988222915)	(-2.7078459908110073, 7.9529178802022962)	(4.5278670718664689, 0.61088706233375767)	1.0	z	0.959074
19	P	C	C	C	C	8	0	shapes	P	4	False	5	(-1.738282807330001, -2.0799597858045829)	(-6.4953100767415144, 7.3656536840053377)	(-8.3153964196699715, 1.4307980275556034)	(7.2995517811387209, -6.6133018476250305)	1.0	slash	0.428846
20	O	D	D	C	D	8	2	shapes	D	4	True	5	(-0.19991640953318957, 8.7192224242028793)	(5.4608501844329194, 0.34139357780525081)	(8.217615375742767, 3.294511575207304)	(-2.305324489789176, 3.6036590812335874)	1.0	z	1.54034
21	P	C	C	O	O	4	0	shapes	P	4	False	5	(-5.9357810864947576, -5.0070335136095583)	(-7.7276278163285319, 1.735101004880832)	(7.914799500814933, 6.9082625970734668)	(4.9967381524018748, -1.8656976214392342)	1.0	slash	1.39404
22	P	C	O	P	P	4	1	shapes	C	4	False	5	(-1.3211250680388273, -0.35120853062262647)	(4.5655753061885918, 6.7849404640020872)	(0.22686765979693213, -7.5976406015261775)	(-0.52578173267718142, 7.8390384883637658)	1.0	slash	1.06966
23	P	D	D	O	P	8	3	shapes	O	4	False	5	(1.3390043197081898, -1.6400574638009182)	(0.54244610824903283, 8.0388135354829586)	(-7.4977027938432794, -5.8276470047150193)	(-1.6835601429793883, 1.3373689907611332)	1.0	z	0.301213
24	O	C	P	P	D	4	0	shapes	O	4	False	5	(8.601469257471237, 3.7056854114167948)	(-4.1646071155338849, -6.8657948450566799)	(8.1084919804556677, -7.0335918765435608)	(-0.51975269054389983, 5.178734598892488)	1.0	slash	0.659104
25	P	C	C	C	P	4	2	shapes	C	4	False	5	(6.8369449170311007, -4.5021290380279604)	(-3.9900637706382058, -4.6635206102860689)	(5.6625489052566333, 3.165701584914558)	(-0.0064305638597321746, 6.2050102605887325)	1.0	slash	0.34461
26	P	C	D	C	P	8	0	shapes	P	4	True	5	(8.1978185048510142, -0.2327885706661732)	(-2.8895818355633835, 4.8889169942819173)	(3.2268200639030251, 7.0438105602476195)	(0.34066017032813711, -0.59123446085500397)	1.0	slash	0.95439
27	P	D	P	D	P	8	1	shapes	D	4	False	5	(8.4010628483061751, 4.9692708280588906)	(6.5253425174799649, -6.861570715349532)	(6.1441223096945503, 8.3153486337628841)	(-5.3408220537347901, 0.10443521736071304)	1.0	slash	0.737878
28	P	C	D	D	C	8	6	shapes	C	4	True	5	(4.3675531362552373, 6.4049228036102193)	(0.84994181799160096, 4.3386766778943979)	(5.437298364227324, -6.9807992384400102)	(-3.2563724526246851, -2.4597963604808344)	1.0	slash	0.867706
29	P	D	O	P	O	8	2	shapes	O	4	True	5	(-2.5985011755140723, -3.7808452672083339)	(6.5181952113383055, 1.9691360327390548)	(-2.4531883084636714, 8.2788745709306646)	(5.1544673090533895, -2.4369316972896069)	1.0	slash	1.05151
30	O	D	O	P	O	8	2	shapes	O	4	True	5	(-0.3614715546995857, 7.3882676658374145)	(8.0202691382097058, 5.6912694863870268)	(-6.0309842834295893, -1.4640782207501832)	(-8.0007425701801242, 2.8778075146241804)	1.0	z	0.380988
31	P	C	C	D	C	8	2	shapes	C	4	True	5	(3.2332411199722468, 1.4574833618164753)	(6.4215212776479884, 8.0048770217476779)	(4.2800581682105037, -3.5756923630853752)	(-0.61315218682711681, -2.7172668769966997)	1.0	z	0.790699
32	O	C	C	P	C	4	1	shapes	C	4	True	5	(-5.2581434607203335, -7.6757582845459922)	(2.5916263981939149, -0.20545450891442307)	(-5.4152680999552398, 7.6683113045687215)	(6.2311115194729005, 4.9688420598534471)	1.0	slash	0.698861
1	R	F	R	E	R	4	2	shapes	R	5	True	5	(1.4487868642407662, -5.0982189425531175)	(-1.9175021345439349, 2.5081113656719669)	(7.1689102671162441, 5.8001588897910956)	(-1.8732489660361367, -8.5619399663894207)	1.0	z	0.795773
2	Q	E	E	R	R	8	3	shapes	R	5	True	5	(-1.3799413214259548, -7.6932408243958026)	(-3.2216321473274983, 0.62366365737415919)	(5.8483059934715467, 7.5436836404483927)	(6.536715763666928, -2.3550814694772964)	1.0	z	0.875148
3	R	E	R	R	F	4	2	shapes	R	5	False	5	(-4.1086178816895149, -6.4073026245151743)	(5.00104076891372, 3.9441862570964119)	(8.4273935353601139, -6.8321760105496665)	(-3.5458463539706662, 4.1942724736608223)	1.0	slash	0.583052
4	Q	E	F	Q	R	8	4	shapes	F	5	False	5	(-3.725382394705151, 3.5522001827872636)	(2.8042349886006921, 5.387397862114172)	(-0.89186022885726324, -0.97870528119860634)	(6.433611875067653, -0.21091437612867203)	1.0	slash	0.902945
5	Q	F	R	E	Q	8	3	shapes	E	5	False	5	(3.4128044629956005, 4.0365976665190164)	(-3.2418395670972364, -4.3745434312612561)	(-1.2900204710115322, 2.4980176069119828)	(2.3468516452262733, -2.9689309225864546)	1.0	z	0.40663
6	Q	E	E	E	Q	4	0	shapes	Q	5	True	5	(0.030400239623961767, -2.7278007061473284)	(-0.46118375030975756, 3.758309151383088)	(-7.6895441229936425, -1.5919640256866536)	(2.872322141190903, 6.776427043927379)	1.0	slash	1.20817
7	Q	E	R	E	E	8	1	shapes	E	5	True	5	(4.3542961669932296, 3.4953286195885926)	(7.2234480065008349, -4.1352901790939445)	(-4.073675273761018, -0.77382407126146102)	(-1.8814258652551406, -4.662653192709409)	1.0	z	0.563805
8	Q	E	F	Q	Q	8	3	shapes	Q	5	True	5	(-1.7118278588641864, 6.525399800891309)	(2.3554692582112011, -1.7495714313284862)	(6.5171129859039407, 5.6649941615173187)	(-4.0711474727595469, -3.4151515289459748)	1.0	slash	0.919364
9	Q	E	R	E	F	8	1	shapes	E	5	False	5	(5.1590948091734905, -3.652789922699851)	(-4.694891210002174, 2.7665814646218632)	(7.6059898524330336, 3.4476993556745725)	(-1.1965315981910951, -8.2638219418472456)	1.0	slash	0.827078
10	R	E	E	E	E	8	2	shapes	E	5	True	5	(-3.8513710299466588, 1.9457407341298332)	(-6.7628852823497487, 8.7458330320749091)	(-2.9726042479061281, -4.5198482154237132)	(5.560934272670897, 3.4861247406088207)	1.0	z	2.18663
11	Q	E	F	R	F	4	3	shapes	R	5	False	5	(-4.6851421449305723, 4.7876796406657061)	(1.5592917647464155, 5.9944670934291384)	(7.4408835427327631, -3.9187995146988799)	(-5.9685086391980491, -4.2180217169078249)	1.0	slash	1.99239
12	Q	E	R	E	F	4	2	shapes	R	5	False	5	(-6.2037347163597918, -5.839001681167403)	(8.4505849509910966, -1.1345168871517668)	(-1.0265853166405847, 2.8355746808983451)	(3.6736603347455183, 7.8170154753029166)	1.0	z	0.355985
13	Q	E	E	R	R	4	1	shapes	E	5	False	5	(-3.517012023895477, -0.93000742251941215)	(3.2147332061481819, 6.1491734473228128)	(-4.2641073392820426, 7.7906705209149614)	(8.547302336679433, -4.6847572233329338)	1.0	z	1.14772
14	Q	E	Q	R	R	8	5	shapes	R	5	True	5	(-7.5446646969904725, -1.7928802236542678)	(-3.0581332321475614, -4.7047614963191435)	(0.69239870701222195, 4.6017083551401878)	(4.800029675127341, -1.6484510968246369)	1.0	z	0.747065
15	Q	F	E	R	Q	8	0	shapes	Q	5	True	5	(-6.3784739990001693, -3.9481803854236803)	(2.3949391216699443, 5.2725061640936737)	(7.9392706165841034, 8.2504469555093998)	(-7.3142821714745194, 6.7995163100410245)	1.0	slash	0.882752
16	Q	F	Q	R	Q	8	3	shapes	R	5	False	5	(-7.8482836360236581, -5.39548721885145)	(-1.7257830344597913, -7.2928346427499244)	(1.1134514859765936, 8.546772257869641)	(6.9369785842043576, 3.0057119118527051)	1.0	z	0.663072
17	Q	F	E	F	F	8	2	shapes	E	5	False	5	(1.5621662266974745, -2.9755695962390485)	(-5.6897656241780314, -6.6340515659967227)	(-0.40682004693745277, -8.075767941086438)	(-2.4268116343106056, 2.5483381005699925)	1.0	z	0.702226
18	Q	F	F	E	F	8	2	shapes	F	5	True	5	(5.2191988263527094, -4.3150578301199465)	(-5.3496241476523121, -4.3710020121139426)	(-2.9520203696078724, 5.5537987089397554)	(2.4077933376287319, 6.128374053166791)	1.0	slash	0.607757
19	Q	F	E	F	F	4	1	shapes	F	5	True	5	(-3.059106106904391, 4.468134988389588)	(5.4272580724301953, 3.5144338406658804)	(-0.50460027958405718, -3.9727243636977629)	(3.576499345658581, -7.0550804955414481)	1.0	z	0.593112
20	Q	E	R	E	R	4	2	shapes	R	5	True	5	(-4.6295595902880162, -4.4195786487637134)	(8.40933090508749, 4.1448524978488006)	(6.3163608532015161, -7.1161042085781618)	(-3.3776734173379559, 4.0936139393000222)	1.0	z	0.645115
21	R	F	F	E	R	8	0	shapes	R	5	True	5	(2.7554862210388791, -4.397517772040147)	(-6.1473400013231245, -6.0574052030272956)	(-8.0347300536769222, 5.8392728840622379)	(5.8631587573777537, 8.2311618845976433)	1.0	slash	0.544807
22	R	E	F	R	F	4	1	shapes	E	5	False	5	(-4.6671017991462795, -6.2846604643766302)	(1.8508948082031154, 2.8964958026877827)	(6.2979314886917166, -3.6564612105461309)	(-3.0771905647253082, 0.31864551704844324)	1.0	slash	0.398581
23	Q	F	F	Q	E	4	3	shapes	Q	5	False	5	(8.0355258603671729, 6.6508920292786922)	(-3.0197823392656771, -4.2228799094655933)	(4.9952645620586029, -3.2440306449636171)	(-8.3189230767531175, 6.6129206229849711)	1.0	slash	0.84034
24	R	E	R	R	Q	8	2	shapes	R	5	False	5	(7.1248064078969833, -0.45071338710974551)	(-8.3192216333040356, -3.2496432695913535)	(5.7942497584009427, -4.2309170182903051)	(4.866601022248684, 5.2178563399422373)	1.0	z	1.0778
25	R	E	Q	E	Q	4	2	shapes	Q	5	True	5	(-6.8685187043249059, -1.0196181467787504)	(5.9191398526967642, -8.0507391957227323)	(1.5853986531436774, 8.5073830191131563)	(-5.3172060486875141, 3.6388340177334637)	1.0	z	0.737498
26	R	E	Q	E	F	8	6	shapes	Q	5	False	5	(-6.4818311404233508, 7.5183107853259159)	(3.4211270546662345, 1.3776815783331298)	(-1.4436542560707517, 8.2654907998965435)	(2.7338024750796794, 7.7540790784728877)	1.0	slash	0.579006
27	Q	F	Q	F	R	4	2	shapes	Q	5	False	5	(4.6101649079015168, -3.2857376787874797)	(7.823736161701337, 7.1694207641353049)	(-5.3565012613542073, 6.1887740479716733)	(-6.7442070898997137, -2.4688119378708269)	1.0	z	0.70486
28	R	E	R	R	Q	8	2	shapes	R	5	False	5	(1.2255295979090786, 0.7668769489375471)	(6.1724475817605633, 4.2664134035120593)	(-1.4746972478856089, 7.5238035282557121)	(-0.55686870347528128, -5.8878731528428423)	1.0	slash	0.566525
29	R	F	Q	Q	R	4	0	shapes	R	5	True	5	(-6.6006540393635991, 1.7371360181456481)	(-3.5222181731659035, -6.6191572634112292)	(2.6704302441026542, 5.7690122924617562)	(5.801367081726049, -8.2490605048868098)	1.0	z	0.441623
30	R	F	Q	E	R	4	0	shapes	R	5	True	5	(7.751507257886729, -6.1999467783142119)	(-4.4658974227948489, -5.7194546610539065)	(-2.8342751848090417, 1.4067142727604143)	(2.0987851241712843, 1.6245766038583387)	1.0	z	0.73797
31	Q	F	E	Q	R	4	0	shapes	Q	5	False	5	(-6.4819989280844457, -5.258912546880472)	(2.61546903270151, -6.7476675653799667)	(-4.1077070972493406, 0.51235139666409779)	(8.4928381899914065, 5.1153232301124767)	1.0	slash	0.577039
32	R	F	F	Q	R	4	0	shapes	R	5	True	5	(2.1399402659815259, -1.7963378900977807)	(-2.4659031315811486, 4.7769447839706665)	(-7.5461844312574797, -4.0765227400429724)	(6.6069782281554819, 7.8749425207376156)	1.0	z	0.801144
1	M	A	M	N	M	8	5	shapes	M	6	True	5	(5.3988387471292683, 0.41916626145978064)	(-7.6642821302853115, 7.1986392673367057)	(2.0266727358257235, -8.0504061795432342)	(-5.2476260661165499, -6.9840343717847784)	1.0	z	0.544958
2	M	B	B	N	B	8	6	shapes	B	6	True	5	(-6.669132069181348, -5.1949668752610609)	(5.2476229026327417, 6.233840839327792)	(2.1622686241029463, -8.0885522433050738)	(-1.6793980967757944, -5.5910498606465513)	1.0	slash	0.310562
3	M	A	N	N	A	4	3	shapes	N	6	False	5	(-4.7512478579443913, -7.5405318746697363)	(-6.6750748066067516, 4.7121751642137184)	(0.20613055597516627, -8.5155464248687682)	(7.6177987661120241, 8.0587489266163459)	1.0	slash	0.802187
4	N	A	N	M	M	8	2	shapes	N	6	False	5	(-6.5948967319482064, 6.4647248255133825)	(5.4271187264036254, 5.9335690724637047)	(0.38290178204362846, -0.58579380349330812)	(-7.8455715334644713, 0.81168683293353716)	1.0	slash	0.678032
5	N	B	B	A	M	8	5	shapes	A	6	False	5	(-2.4856438168560064, 8.0908562057540792)	(8.6782624729761757, -4.5159895673721708)	(-3.3041009330493942, -4.2654739524606553)	(-8.1987908877702242, -4.6694754297528478)	1.0	slash	1.64351
6	N	B	M	M	A	8	7	shapes	M	6	False	5	(-5.6399770518665644, -4.8455017611549307)	(8.0178869892914193, -4.3560725806792497)	(4.8305811630543882, 3.033089627339475)	(-8.4384732721700377, 2.2615428147071572)	1.0	slash	1.07118
7	N	A	B	A	A	4	1	shapes	A	6	True	5	(4.4412826911104766, -0.0061232252971112899)	(8.0752141730879927, 6.1864973101691305)	(-5.7169545461154723, 5.2005664205296451)	(-7.6801613252296992, -5.3648731511147227)	1.0	slash	1.87467
8	M	B	A	M	M	8	3	shapes	M	6	True	5	(2.458844395635273, -5.6420177499774047)	(-8.4632389928082912, -8.4252418892704615)	(-0.88442914068785683, 4.0465265791557687)	(0.26823248620846307, -0.48463563728691206)	1.0	z	1.05764
9	M	A	B	B	B	4	2	shapes	B	6	True	5	(-6.1180428966503317, 0.86997910682547896)	(4.3074471796523248, 7.2014896563211543)	(1.4015081123195241, -8.2779301451839515)	(-4.4865110465063882, -6.1135948466537791)	1.0	z	5.61981
10	N	A	M	N	N	8	3	shapes	N	6	True	5	(-0.60773192028957546, -6.7737134683792277)	(-0.36483863980117803, 7.1818134698104164)	(-3.6132398599159838, 2.6737433974091118)	(1.0782152733722263, 3.1996764309341685)	1.0	slash	4.48304
11	M	A	A	B	M	4	0	shapes	M	6	True	5	(-1.8404130657107149, -0.38239531344817657)	(8.6448872760478501, 8.1134112973580379)	(6.9654245169197164, -7.8380860544373947)	(-1.7373154487960027, 4.026298685066072)	1.0	z	3.98053
12	M	B	N	N	B	4	2	shapes	N	6	False	5	(3.8567728745259053, 8.2039444028990403)	(-2.8517395423706198, -6.9184558080635421)	(7.4621540781801947, -0.085006259155353092)	(-8.3667360717498731, 3.6738420880200753)	1.0	z	4.8335
13	M	A	A	M	N	4	0	shapes	M	6	False	5	(4.5377395158960461, -0.57921774782601432)	(-7.156848322054369, -7.7928288430280155)	(-2.7038371566871566, 1.7983443068619351)	(0.47348896708595589, 5.6651238459819897)	1.0	slash	1.81329
14	M	B	A	N	A	4	2	shapes	A	6	True	5	(3.5915140727810488, 2.8292127130067009)	(7.0002720210868912, -7.1750883163194654)	(-3.0498792467707228, 7.267768813522764)	(-6.507335294605106, -4.8840262117168676)	1.0	z	1.78891
15	M	B	M	A	N	8	2	shapes	M	6	False	5	(-7.1399731130430233, -7.9995983024502806)	(7.9981058702706633, -8.7002062437105181)	(-7.0508834564478331, 5.4894803185508643)	(-1.6323766430319768, 3.1215822319405788)	1.0	z	1.12449
16	M	B	M	B	A	8	0	shapes	M	6	False	5	(8.4962616434318718, 3.1437770858153584)	(4.9246948564040949, 8.2355663950054776)	(-4.6427034384390202, -4.7065664831328462)	(1.2660276505914769, -6.4325098920506916)	1.0	slash	1.46404
17	N	B	A	B	N	8	7	shapes	A	6	False	5	(7.7711438547090168, 0.99714214636741261)	(-1.2885270575978902, 0.042356034900379314)	(-5.4522900703005952, 7.8272470196074551)	(0.8223419650777597, 5.6026066394733807)	1.0	z	0.325659
18	N	A	A	M	N	8	4	shapes	N	6	True	5	(-6.1306727820673359, 4.6787557885002276)	(-0.20021556155211329, 4.320522798484415)	(6.403275077325981, -7.0703512662967558)	(3.6287943482957576, 7.56851826368381)	1.0	z	1.80159
19	M	A	N	A	N	4	2	shapes	N	6	True	5	(-8.2725836057318212, -6.1245623692255995)	(1.5317833773515304, -6.0467192297132186)	(-0.69029168554100373, 6.7291176618452617)	(6.5407884526077549, 6.2240940313607638)	1.0	slash	6.02695
20	M	B	A	N	A	8	7	shapes	B	6	False	5	(-7.013860573517082, -0.059812940718947161)	(4.260829923464037, -1.6933425659216441)	(8.1271926549063913, -3.7073841762155357)	(4.3111113494725544, 3.7492884608581516)	1.0	slash	1.09022
21	M	A	M	M	B	4	2	shapes	M	6	False	5	(5.4680246353029371, -6.6587825003333503)	(-8.0786447689420697, 6.6648095690300249)	(3.7249129614863108, 2.1302485042212762)	(-4.2709243250057449, -3.484630083121008)	1.0	slash	1.12978
22	N	B	B	A	N	4	0	shapes	N	6	True	5	(-1.9018634928542788, 3.2036002546225451)	(2.1227444242153126, -2.9969532266011116)	(-8.0934722093742053, -5.8770067924207821)	(7.9746043207820279, 4.0147370012714951)	1.0	slash	1.76151
23	N	A	B	A	A	8	1	shapes	A	6	True	5	(-1.8379675996735694, -2.914073505454807)	(-2.3582973393797104, 8.0344379044838767)	(-0.57735032594360547, 1.4637055460761559)	(5.7739405033282925, -0.90764078099987877)	1.0	slash	1.29287
24	M	A	N	B	B	4	2	shapes	N	6	False	5	(8.5481277670213274, -7.2274153317198291)	(7.0671030847140592, 7.7848761863936389)	(-7.8634982111274701, 0.20004962732598841)	(-3.8719975814903256, -2.4762771381675188)	1.0	z	4.82047
25	N	A	N	M	A	4	3	shapes	M	6	False	5	(1.6973111305864883, -4.8068595753558281)	(-3.8709131153233001, -0.065732775391964537)	(6.3597343234120185, 8.0010618264926165)	(-0.58272651970162848, 3.8781606942159694)	1.0	z	4.26431
26	M	B	B	B	M	8	7	shapes	M	6	True	5	(-5.5922270889667738, -0.92392453830107879)	(5.4133609005683763, 2.0570658331621221)	(-4.4827847453482246, 7.4270468063319122)	(2.8520839722617968, 8.2715451280644139)	1.0	slash	3.40141
27	M	B	A	M	M	8	0	shapes	M	6	True	5	(-2.2108997698056267, -7.4935234583933301)	(2.0920041429169025, -2.4183448074960907)	(-8.6040920118534228, 2.2950662306374507)	(8.6931978451074166, -0.14630625947082621)	1.0	slash	4.22071
28	M	A	B	N	N	8	5	shapes	A	6	False	5	(7.3554545476813864, -0.20700894602871323)	(-8.7409951783497934, -3.2416273249421677)	(2.8148047408506116, 5.8860878547896665)	(2.395316483223306, -5.8425082202045608)	1.0	slash	2.08613
29	M	B	A	N	A	4	2	shapes	A	6	True	5	(6.9397304034423382, -5.3027738144025527)	(-5.3931844375822378, -8.6798008721439057)	(-8.5024139884902539, 3.7920330438215224)	(5.7273927126582667, 8.6106119737562175)	1.0	slash	4.90367
30	N	A	B	N	M	4	0	shapes	N	6	False	5	(0.96549949982726702, 1.2660038547942953)	(-3.8020540297514094, 4.4865051864532077)	(-1.8379751773083761, -8.0754368040530959)	(6.9013385374019016, -2.0330386066994528)	1.0	slash	1.46906
31	N	A	M	A	M	4	2	shapes	M	6	True	5	(-1.6377423125266448, -2.4740726141899154)	(-1.4389792181060308, 5.8331099348763527)	(8.5588895113870258, 4.5410714680709159)	(8.091538255377376, -2.7368748637421056)	1.0	z	1.56876
32	N	B	B	B	B	4	0	shapes	N	6	False	5	(1.0209769643141975, -5.4670069971088946)	(7.5828133296828284, 0.95383640041702122)	(-6.0735786878690625, -5.1339575232052423)	(-1.723349008869496, 4.594169067172464)	1.0	slash	1.47226
1	P	D	C	O	O	8	3	shapes	O	7	True	5	(-0.43022772412978227, -1.3094251642050185)	(6.6266003685097257, 0.58609341771101064)	(-6.0406720512208878, 5.3040602736761056)	(2.8970561525285348, 6.1472313604160291)	1.0	z	1.44985
2	P	C	O	D	P	8	6	shapes	C	7	False	5	(5.3347841741425235, 3.1439367891432166)	(-6.7743992709603269, -4.4095399509132882)	(-1.25304883312059, -2.968406077184957)	(-2.2791696870019251, 2.9027286014323987)	1.0	slash	1.46156
3	O	C	D	C	D	4	1	shapes	C	7	False	5	(0.2486883759766787, 5.3767075943839302)	(4.317357252240944, -6.8145939041779844)	(-2.7945110681523566, -5.7973964912540934)	(-6.4004815953589773, 3.240702936825743)	1.0	slash	1.17084
4	P	D	P	P	D	4	2	shapes	P	7	False	5	(-0.43807393930732097, 2.9410316323674586)	(-7.7631109345771989, -4.8359348599729106)	(8.1192596858992303, -3.8364176200516349)	(6.943289156143349, 4.6057717173118036)	1.0	slash	1.22685
5	O	C	O	O	P	4	1	shapes	C	7	False	5	(2.6894823447068283, 4.4379760630977003)	(-7.6812648594342852, -5.5815602051859399)	(-4.4357746113742342, 3.6912621554836367)	(4.2802161436848145, -8.3193274042839871)	1.0	slash	1.20031
6	P	D	P	D	C	8	4	shapes	C	7	True	5	(-5.8401219725633817, 0.02512535514900982)	(-1.4193132681993905, -1.2911899768704407)	(-4.7900314454695838, -7.6316237165189591)	(-4.1431678738052335, 8.5687257958942666)	1.0	z	1.90202
7	O	D	P	P	P	8	3	shapes	P	7	True	5	(2.2053708796201121, -8.6490804129790479)	(-6.0717465006157774, 4.8535510057313846)	(7.8377368148375517, 2.4133436242657176)	(-2.2516567719326375, -3.4973223786483523)	1.0	z	1.12562
8	P	C	P	C	C	8	1	shapes	C	7	True	5	(0.3499024859722617, 5.3305211106295793)	(-0.093897843626324473, -8.702541956875617)	(-8.6421408059106977, 5.5271888851754429)	(5.5346412213451064, -2.9432346886534528)	1.0	z	1.29716
9	P	D	C	P	P	8	6	shapes	P	7	True	5	(-0.69572261581555139, 4.2036459302317937)	(-7.2447218926819534, -1.8796541393668837)	(5.6849474221899321, 2.5106076559142956)	(8.0218167134141609, 7.9700115119772654)	1.0	slash	2.17088
10	P	C	D	D	P	4	3	shapes	D	7	False	5	(5.8719593120600813, -7.1749962025545475)	(1.7032665218375165, 5.5505355123870999)	(-6.0004383456753034, -4.2400092917047534)	(-5.6938280228227773, 3.3298824770961701)	1.0	slash	1.4824
11	O	D	D	D	D	4	1	shapes	D	7	True	5	(2.227203305967338, -4.7729883347398916)	(-5.0621405852700612, 3.1103365445740234)	(-6.5176190897026274, -0.9734705813749942)	(5.7624337528095992, 1.4953372872454551)	1.0	z	1.61191
12	O	C	D	P	P	8	4	shapes	C	7	False	5	(1.8063880142440816, 4.4039567670691468)	(-6.8648451470039262, -5.1864848974419893)	(-2.4853238317495272, 6.0290152783560362)	(-8.3949617180471954, 4.9294686985758318)	1.0	slash	0.493642
13	O	D	O	C	O	4	0	shapes	O	7	True	5	(-0.69393388210608009, 4.1917330329659865)	(7.3833199566377026, 6.839094352123178)	(-7.9918187455363174, -4.0905016173673578)	(0.56472095893246355, -1.7224525931550225)	1.0	z	0.837314
14	P	C	C	D	D	4	3	shapes	D	7	True	5	(-3.0410106483956065, -4.7549045889137016)	(6.7361509497486249, 4.8894296151011236)	(6.6859252105370288, -1.9624996979605918)	(-2.0758163700729568, 2.6956485240994557)	1.0	z	0.600421
15	P	C	C	D	C	4	2	shapes	C	7	True	5	(5.3051936408456957, 2.1906585061570514)	(-4.4151815556115066, 0.19550382437646263)	(-4.8992323226863066, -4.1059296827849288)	(5.3130268855282843, -4.9565309859743749)	1.0	slash	0.490599
16	P	C	C	C	C	4	1	shapes	C	7	True	5	(-8.1948398515633016, -0.44158825388996092)	(5.1907066700509041, 6.6380069395889407)	(2.2736022253759813, -7.5368288401510188)	(-5.8861125935672796, 3.8098294729691666)	1.0	z	1.00231
17	O	D	O	O	O	4	2	shapes	O	7	True	5	(-6.5694041897738158, 5.5889437430164577)	(3.3253898230576198, -7.3891733728207445)	(2.6717433498875121, 7.957809070683787)	(-2.912962792594616, -6.6023605281233335)	1.0	z	1.01201
18	P	C	P	C	P	4	1	shapes	C	7	False	5	(0.46360666661523275, -5.8760772376526571)	(-0.041754027453757558, -1.879769970141016)	(-8.6878983029877777, 1.7496193332075745)	(3.5444514264122589, 0.8741912335998876)	1.0	slash	0.635639
19	O	C	C	O	O	8	1	shapes	C	7	False	5	(2.4108085602607368, 0.62248730311918976)	(4.2771886574609042, -5.2539376112736722)	(8.0726668100766439, -1.0103786796144734)	(-2.2750325763972139, 0.097768479762258664)	1.0	slash	0.77726
20	P	D	O	P	D	4	3	shapes	P	7	False	5	(-3.6461212414323443, 2.9152351930680709)	(8.4312300863955194, -4.4583881904995559)	(-0.40281105416278429, -1.4116823937299658)	(2.7541968205108525, 2.9174852195517307)	1.0	z	1.73688
21	O	D	D	O	C	8	6	shapes	C	7	True	5	(0.11272655390263608, -7.7091666463099759)	(-6.5207990178382111, -6.001841026726936)	(6.2840045293652764, -5.4716885366900545)	(-4.8556090078352128, 3.7138881428629098)	1.0	z	0.666478
22	O	D	O	C	O	8	2	shapes	O	7	True	5	(0.81017859001997117, 3.2465329311128563)	(-1.7574231374205622, 6.7513501818784611)	(7.6688296106966121, -4.34018897813056)	(8.0475628310825584, -8.4009242320829038)	1.0	slash	0.248215
23	P	D	C	O	D	4	1	shapes	D	7	True	5	(-2.2599838572157687, -5.6318041346913681)	(-4.9508722301234345, 7.3873931165757156)	(5.7118743039894593, -5.1922057000528827)	(5.8425436935679791, 4.4698045924699663)	1.0	slash	0.871807
24	O	D	O	O	P	8	6	shapes	C	7	False	5	(5.088487334870889, -7.6742264996231953)	(4.6080981326904311, 1.1711083502319362)	(-1.4317752018477554, 0.80722147424706847)	(7.218353370783646, -1.922977195381713)	1.0	slash	0.789528
25	P	D	D	O	D	8	2	shapes	D	7	True	5	(6.1489128436829006, 6.8341698982314671)	(5.0719859802597327, -7.0145453315280957)	(-6.2924392847570605, 2.1410229493193462)	(-4.9073868107165755, -1.7748808982771109)	1.0	slash	0.653044
26	P	D	D	C	P	4	2	shapes	D	7	False	5	(-6.5568701622257439, 1.7683149411814352)	(7.9662000178324348, 4.5181814496942927)	(-4.4178137009426264, -5.2834890150107778)	(6.1020872734175811, -5.0865108134502304)	1.0	slash	0.91666
27	P	C	P	P	P	4	2	shapes	P	7	True	5	(-8.562232066009015, -7.9516357894054153)	(5.1022201918570165, 0.90796306781946967)	(-7.9015955366415094, 6.6813972568688378)	(3.799965278464903, -6.5351495703200744)	1.0	z	1.37649
28	O	D	P	C	C	8	1	shapes	D	7	False	5	(7.8060602207426584, 8.2938119643237798)	(5.2705620233682637, -6.2721670520715058)	(-2.8108642200464757, 8.2239138481194978)	(-6.5046084168772342, 0.40459347236027376)	1.0	z	1.85004
29	P	D	P	C	C	4	2	shapes	P	7	False	5	(0.42391849701575701, 1.0703652040408151)	(-4.9485999806953735, 2.7189302203649941)	(5.8772051065696687, -6.7071285009196151)	(-5.2693873387425629, -3.2411425385386465)	1.0	slash	0.84953
30	O	C	O	C	P	8	3	shapes	C	7	False	5	(-6.2752777235836597, 7.0656880112466585)	(0.82316063462504374, -3.9654643660460316)	(5.3358430319492545, -2.6800620205219419)	(8.1598908590254453, 6.4199222017888289)	1.0	slash	0.861316
31	P	D	P	D	O	8	7	shapes	C	7	False	5	(6.7952512040154023, 6.2336145666789662)	(-5.8196983309245098, 2.5568997115192698)	(0.67333065339900955, 5.6215648149075772)	(0.84979595302388056, -2.2841527598514686)	1.0	slash	1.05283
32	O	D	C	O	D	8	3	shapes	O	7	False	5	(3.6141584947163015, -5.2516481217224946)	(-4.6823612046407828, 6.4801530418479736)	(1.2461899959264446, -0.34952299793306274)	(-7.6370228578850998, -3.2753478025363361)	1.0	slash	0.534476
1	R	E	E	E	E	4	3	shapes	E	8	True	5	(-4.8080651841287807, 5.6011241703389079)	(-8.3735446183425708, -1.0444229970969712)	(0.2659687809982092, -4.6856224374092186)	(2.7128930886659308, 7.3524763028931197)	1.0	z	0.706328
2	Q	E	Q	Q	Q	8	5	shapes	E	8	False	5	(-0.68627106311167552, -4.7241210151187278)	(5.9758313335030362, 7.6577759152227536)	(-2.4359312121793897, -8.5010628450368007)	(6.6702682017109591, -4.5022615741208565)	1.0	slash	0.471879
3	Q	F	R	F	Q	4	3	shapes	F	8	False	5	(3.1287812189376041, -0.20359050107408017)	(-5.5856768557862129, 8.3173668546136597)	(-6.55327637291348, -1.7818287614537498)	(5.1204767816227417, 5.2413992674952521)	1.0	slash	0.843047
4	R	E	F	E	R	8	5	shapes	Q	8	False	5	(-4.3687965988235034, -1.603295679213157)	(-3.3538967224138467, 3.0732495821636761)	(0.24847119905578552, -1.8427010692502153)	(-8.4005885563964267, -6.6120656527402275)	1.0	slash	0.599324
5	R	E	Q	Q	Q	4	2	shapes	Q	8	True	5	(-7.0722058910912988, -4.5162830600023502)	(-6.7518573880159662, 1.3088879250412067)	(2.6259683555524713, -0.42306430563802877)	(1.5661585003014444, 4.6345663523142928)	1.0	z	0.616924
6	R	F	F	F	F	8	4	shapes	F	8	True	5	(8.6965627578419102, -2.4072422771553708)	(-3.678247159275692, -7.2926085621393195)	(8.5510655983028023, -8.2465859990233845)	(-0.70771482831516508, 5.9858786038198826)	1.0	slash	0.468578
7	Q	F	R	Q	R	4	3	shapes	Q	8	False	5	(-7.893392191220955, -3.3756187005671965)	(4.1091531012538596, -4.6524039560838046)	(1.8565803063711446, 7.0369362834261331)	(-5.1935680738105106, 4.2245597012798815)	1.0	slash	0.656199
8	R	E	Q	R	E	4	2	shapes	Q	8	False	5	(2.8023926591021393, 8.7459037813682734)	(-6.8433791640959063, 6.3079597679926227)	(-2.6697632052693248, -8.641766520519468)	(7.9498462658145712, -7.125409542745345)	1.0	slash	0.855877
9	Q	F	R	E	Q	4	2	shapes	R	8	False	5	(3.1888156852210177, -7.5193405058534246)	(5.4764668984497753, 7.4941657196418063)	(-3.6021164948010798, -5.9917554846603052)	(-5.2909075419831737, 2.2570080357403128)	1.0	slash	1.7115
10	Q	E	F	R	E	8	5	shapes	E	8	True	5	(-7.3571512585262866, 3.6914916208079571)	(5.8481642060358041, -8.4490420450771779)	(7.2336861616420656, 5.0945188871086398)	(1.4661083973023565, 4.2824004579164061)	1.0	slash	0.671015
11	Q	F	R	Q	E	8	4	shapes	E	8	True	5	(-7.0837941258295345, 4.7897964118435254)	(6.5878887978659755, -4.219575265836939)	(-7.2118388824913584, 0.092163121289786432)	(3.4481875932087505, 1.8149102450918235)	1.0	slash	0.910845
12	R	F	E	F	E	4	2	shapes	E	8	True	5	(6.0408101192987047, -4.3239252729779007)	(-5.14333275531909, -5.1895912306709073)	(5.6804694190175198, 8.0163033943962496)	(-3.4916247771865772, 5.7064465027196061)	1.0	z	1.48242
13	R	E	F	Q	Q	8	7	shapes	E	8	False	5	(-1.0237713931914776, 2.898492703365914)	(-4.1292607032892121, -2.1267741529623585)	(5.6486353825968632, -2.6645195897128477)	(8.3613033818263034, 5.1002563497972613)	1.0	slash	0.542139
14	Q	F	F	F	F	8	4	shapes	F	8	True	5	(1.1319151755531163, 0.94011153119279278)	(-7.1452975508722041, -1.9534182735028587)	(2.2920198673875998, -5.5474348596527356)	(-8.1059230133765006, 6.1258664815187149)	1.0	slash	0.927834
15	R	F	R	F	R	8	0	shapes	R	8	True	5	(-7.2121269607317977, 7.8626486307060972)	(-1.8545818152787241, 4.1414974440935133)	(3.9139546418632776, 6.1492858679005309)	(-4.7623511988208582, -5.4510890266876757)	1.0	z	0.914848
16	Q	E	F	F	Q	4	1	shapes	E	8	False	5	(-0.052424128950793403, -6.3471589085872271)	(0.90296417441883037, 4.5748208594040936)	(-3.3563346968770693, 3.241665037542889)	(3.7635435911137414, -0.50747210439280899)	1.0	slash	0.766833
17	Q	E	R	F	Q	4	0	shapes	Q	8	True	5	(-6.4827315886995471, -0.25445457130727434)	(4.0634074917489595, 7.7579720483409957)	(8.6722717445801294, -6.6123311240976701)	(-0.60736348785247429, 3.4571260044894618)	1.0	slash	1.11276
18	Q	E	F	R	F	4	2	shapes	F	8	True	5	(4.2023135865408285, -7.9313947795716535)	(2.9121687617792755, 8.392861692636977)	(-6.9369620213636898, 0.8247703109398774)	(-1.1920063121441462, -2.8285974899528519)	1.0	z	1.1242
19	R	E	E	E	Q	4	2	shapes	E	8	False	5	(-8.3282356446534394, -5.0639530185974415)	(6.3058428617743623, 6.6670844161709937)	(5.9547615554035911, -1.0270862542264299)	(-2.2456532713086759, 6.7554206866436104)	1.0	slash	0.461882
20	Q	E	E	F	Q	8	5	shapes	Q	8	True	5	(8.1563524442959299, 3.1005600766156149)	(1.8798933122986146, 2.6389647416546804)	(-5.1773004076245677, 3.937547641172916)	(-5.9863988417762073, -2.0593583109847406)	1.0	z	0.623621
21	R	F	F	E	Q	8	1	shapes	F	8	False	5	(-4.5812253225739017, 1.7166988485156409)	(0.77729236347321695, -6.1747574114140837)	(6.111035736007878, -2.4453266528455675)	(-6.495035533460161, -4.67688052235314)	1.0	slash	0.5993
22	Q	F	E	Q	F	4	3	shapes	Q	8	False	5	(-2.2428270802375785, -2.9202245394199027)	(-8.6294089124560891, 6.2261547833578845)	(8.1911849362974998, 7.5255622587368087)	(0.028826071746919979, -7.9962918974526769)	1.0	slash	0.505729
23	R	E	F	R	R	8	1	shapes	E	8	False	5	(4.0979111718777013, 4.0400494043930983)	(-8.4178931008319999, -1.0697637375903621)	(-2.0627182839996401, 1.9592780296150138)	(-0.87529722904788798, -2.4249683692999779)	1.0	slash	0.560638
24	Q	F	E	Q	E	4	0	shapes	Q	8	False	5	(4.5315775798745488, -7.7790712205200592)	(6.1251343664797879, 4.0931604671552044)	(-8.5380220157167166, 7.608790024330883)	(-7.2993885568671937, -7.2460534603321491)	1.0	slash	0.458158
25	R	E	F	F	E	8	1	shapes	E	8	True	5	(3.1325249953609138, -1.8466556936178682)	(-2.8377619826340208, -7.2460610729574713)	(-4.919315628827591, 7.245128231109442)	(7.2683549450382223, 0.51496656335432967)	1.0	slash	0.651915
26	R	E	F	Q	F	8	1	shapes	E	8	False	5	(5.8321910878824657, -6.525722800355604)	(-6.0064575291575268, -8.1736610552136408)	(-2.2928922757443608, -3.1788802193233581)	(-4.8384737802855922, 8.7153854205639441)	1.0	slash	0.351448
27	Q	F	R	E	Q	4	0	shapes	Q	8	True	5	(1.0817155736619348, -5.9713203263724211)	(1.0753626495460864, 8.4103832329538797)	(-6.0313111983982726, 3.3197332855431636)	(-5.0132889578558437, -5.7936325477595751)	1.0	z	0.721261
28	Q	E	Q	F	E	8	7	shapes	F	8	False	5	(-2.7287929214090916, -5.364368977554216)	(1.4810841624835049, -4.8707934198540723)	(-6.7655811973229678, -6.8087620688733548)	(0.56990962887204866, 6.6051441634335113)	1.0	slash	0.75905
29	Q	E	E	R	Q	8	6	shapes	R	8	False	5	(-6.6714736931938754, 1.3681071192946561)	(3.8018492866107962, -6.1322820168376424)	(-2.6133616257309225, -7.2390162782333052)	(-7.0786412555194271, 8.0945981466529346)	1.0	slash	0.428612
30	Q	E	Q	E	E	8	4	shapes	E	8	True	5	(-6.4169563793746747, -8.2734914869857512)	(0.13748487462791914, 7.1840892782199912)	(2.5408334982696346, -5.2404415954853132)	(-4.7619059847372132, 1.9887895967886973)	1.0	z	0.892358
31	Q	F	E	E	Q	4	0	shapes	Q	8	True	5	(1.734676663395998, -6.7777867702274754)	(6.9902777432512497, 5.8521993408775703)	(-3.7153046614369023, -2.7832976819855251)	(-1.0811092235518958, 1.2101468981859256)	1.0	slash	0.683999
32	Q	F	R	Q	Q	4	0	shapes	Q	8	True	5	(-0.94050785764654066, -2.9100690004213332)	(1.6488707341305506, 7.1430243929374555)	(6.0466044907033236, -2.8629872728930241)	(-7.6843905162942656, 2.898829029696012)	1.0	slash	0.613536
