TrialNumber	stim0	stim1	stim2	stim3	stim4	stim5	stim6	stim7	stim.probe	ttl.stims	corr.num	trial.type	stim.corr	block	match	Subject	stim.pos0	stim.pos1	stim.pos2	stim.pos3	ran	resp	RT
1	N	B	A	A					B	4	1	shapes	B	Practice	True	51	(-3.5993355752458216, 0.29057464412885459)	(3.944802586039275, 0.49831419718869618)	(-0.91980495054332589, -8.2067939414211217)	(1.360552831969569, -4.3466552405337389)	1.0	z	4.83346
2	M	B	M	N	N	B	A	A	N	8	1	shapes	B	Practice	False	51	(-5.543620686107432, 1.4457498924841872)	(6.2537284744787893, 4.704954090379502)	(-2.2733095430511554, -6.5328312853768953)	(-0.34958854246848503, -2.4011666686482824)	1.0	slash	2.60283
3	M	A	B	N					B	4	0	shapes	M	Practice	False	51	(2.7251238050321227, -6.1222884007573981)	(-1.0991514502680619, 4.1347685633326794)	(8.385213539672737, 0.63583655799065397)	(-2.6393026540304279, -0.033001218739954652)	1.0	slash	2.34636
4	M	B	M	N					A	4	3	shapes	N	Practice	False	51	(4.5156461340983185, -7.2999444507022559)	(-3.8158562095090138, -0.54663565967186045)	(-6.3111842501454545, 8.1822373064114764)	(4.5842123484690145, 4.6267559960386055)	1.0	slash	1.39186
5	M	A	B	B	M	N	A	N	M	8	0	shapes	M	Practice	True	51	(-4.4734743327422573, 6.576784452597165)	(4.7424181802675918, -8.3005024325257857)	(-5.7409681594100075, -6.9514085493800284)	(4.6447894536904357, 3.3846256716871128)	1.0	slash	3.07706
6	M	B	A	N	N	M	B	A	B	8	6	shapes	B	Practice	True	51	(-1.3861396559371535, 0.40989923349205881)	(-7.9942732892884099, -2.3933653039377596)	(-2.5860153377777193, 6.5819434092323394)	(-3.9386075165666465, -3.1311252622883652)	1.0	slash	1.33634
7	M	B	M	N	A	B	A	N	M	8	6	shapes	A	Practice	False	51	(0.60430167880266517, -0.20294141081741124)	(-7.0822043494955826, -1.0384327763732557)	(-2.3562274838884996, 5.2455978272745796)	(6.3589677834549043, -4.4597188632967111)	1.0	z	2.06371
8	M	B	N	B					B	4	1	shapes	B	Practice	True	51	(2.2828126139559082, -7.9132410757931133)	(-2.1802332915576379, 0.76446773663338519)	(-1.5326265082593418, -4.329419585679724)	(6.7383782537369132, 7.0692536225927096)	1.0	z	1.66951
1	M	B	A	M	N	N	B	A	B	8	6	shapes	B	0	True	51	(8.1084996448114133, -6.3203976964131989)	(8.2184022126420722, 2.2790755998442105)	(-2.2798999470733694, -3.1313977497850818)	(-5.3650770099903076, 1.4825153858450282)	1.0	z	2.79947
2	N	B	B	N					B	4	3	shapes	N	0	False	51	(-8.6776855508391524, 7.49040157653587)	(0.17422762745705533, -5.853498201032342)	(1.9392041466007583, 3.9184045989207537)	(-6.2186769220697329, -4.0396781557056984)	1.0	slash	2.94611
3	M	B	N	M					B	4	1	shapes	B	0	True	51	(0.77051094961547051, -4.4036000342203208)	(8.4283130225260727, 1.2896990234907832)	(-4.4359008356982219, 3.2252615637586057)	(-7.163784546531744, -3.5103729019831658)	1.0	z	1.69261
4	M	B	M	B					M	4	0	shapes	M	0	True	51	(-0.54019413830414287, 5.3250850913217143)	(-0.41486309672968957, -5.8633609101221564)	(3.3128949937454983, 2.8764371635233079)	(7.602099789700258, -4.4598793696181893)	1.0	z	1.15417
5	M	A	M	A					A	4	1	shapes	A	0	True	51	(-6.8917187847247812, -4.6837707346467869)	(3.2400971864924859, -2.8911158932496521)	(6.7442005806248204, 4.0094234447586725)	(-8.2160372653078628, 1.9207695743170543)	1.0	z	1.26832
6	M	B	M	N					M	4	2	shapes	M	0	True	51	(3.130883308595239, -0.90780193816152011)	(-2.0392644167915988, -6.1356806934749821)	(4.1209316156860041, 4.8370746696360118)	(-0.31865373016445453, 7.4836337167440874)	1.0	z	1.18326
7	M	A	B	N	M	N	A	B	B	8	2	shapes	B	0	True	51	(-2.175139009524182, -6.826372073043224)	(-6.1412739525681488, 5.4961362651186292)	(-3.5609500428020135, -0.069544602009827372)	(6.3913836414140608, -1.2769443811018677)	1.0	slash	1.57314
8	N	B	M	N	M	A	A	B	A	8	2	shapes	M	0	False	51	(1.2095465972182851, 7.8184267609322404)	(-0.7221852775146349, -5.832425899961498)	(-7.1224704265443233, 1.9982088412615333)	(-3.0084639408987686, -1.9486754877049117)	1.0	slash	1.43844
9	N	B	A	A	N	B	M	M	M	8	3	shapes	A	0	False	51	(-1.7444859541339124, -8.0953418870010534)	(4.903381505772483, -1.1829345946009582)	(-6.3445777579946752, 1.8915208452590218)	(8.7038067739546996, -7.6072414161805444)	1.0	slash	1.72023
10	N	A	A	M	B	B	M	N	M	8	3	shapes	M	0	True	51	(-1.5552325847306676, -1.0174431661692163)	(-5.6401493987462672, 6.2528792192142557)	(-4.5907159023337156, -6.500015536471814)	(3.855568205124813, -3.21167889110618)	1.0	z	1.10778
11	N	A	N	B					A	4	3	shapes	B	0	False	51	(-2.7601965693260277, -3.6122032649279747)	(3.9262134154805999, -1.4647851782275296)	(-0.98160063192097002, 8.0011186506355152)	(8.1672587564327905, 3.4842529483399787)	1.0	z	1.792
12	M	B	N	A					M	4	1	shapes	B	0	False	51	(-3.0762144669396019, 4.4912169912135766)	(0.73874976618784949, 7.4147465444022842)	(5.5927515403927774, -0.35591298556161277)	(-4.4644692736000602, -1.0993499808504632)	1.0	slash	1.15521
13	M	A	M	A	B	N	N	B	M	8	5	shapes	N	0	False	51	(3.8088007032733664, 8.7008540026085797)	(7.1525198383105906, 1.8880719793614134)	(-2.8680403293998724, 3.3145038046865984)	(-6.7546115602648396, -0.9200289079468531)	1.0	z	1.21466
14	N	B	B	M					M	4	3	shapes	M	0	True	51	(4.3445275496524705, -1.4596227710733496)	(-7.7508192135530329, -3.1335831699810779)	(0.1170035367933373, 7.7437666462472698)	(-5.7485974917239195, 5.8686336161554458)	1.0	z	1.09284
15	M	A	B	B	A	N	N	M	B	8	2	shapes	B	0	True	51	(4.8877607049630942, 6.1937186207653241)	(6.094401988806835, -7.7534843690512005)	(-5.0079266686652177, -6.5714746491473672)	(6.3296216991511827, 2.0721561876441204)	1.0	z	1.78998
16	N	A	M	A	B	B	N	M	M	8	7	shapes	M	0	True	51	(-1.2303289177895911, 1.1714655351631134)	(2.786941707537423, 3.8928513856594336)	(4.8509930892935085, 7.7232769926325595)	(5.3970875318981371, -3.9875567855549363)	1.0	z	1.26721
17	M	A	M	B	B	A	N	N	M	8	0	shapes	M	0	True	51	(-2.1403532845325062, 5.0780190212881777)	(-1.1028726973259175, -3.1210215913337533)	(0.84660628373920233, 0.69533880730597986)	(-6.6497259723828428, 8.5485788727479495)	1.0	z	1.12912
18	N	B	N	B	M	A	M	A	M	8	6	shapes	M	0	True	51	(-3.2891898957444443, 6.5189980551949311)	(7.6727793109014542, 2.0867638907966946)	(2.4304161054105951, -4.047349418620156)	(-8.7166183440321543, 0.49402966164372941)	1.0	z	1.04074
19	N	B	B	M					B	4	2	shapes	B	0	True	51	(7.1050400299269487, -6.2334368473057467)	(5.7463333836006392, 8.2962046718851639)	(-3.7834231709091144, 7.091768069055485)	(-5.2784701595838044, -6.3763438003269037)	1.0	slash	1.84273
20	M	A	A	N	N	M	B	B	N	8	2	shapes	A	0	False	51	(-6.7558338726786396, -5.5481486178503916)	(-4.9932953556195034, 8.5698626718774982)	(-2.3491660904116314, -2.2760924041616502)	(0.029276530673229217, 6.4998481018864531)	1.0	slash	1.94794
21	M	A	M	B					A	4	0	shapes	M	0	False	51	(5.0012437750837684, 6.3942649765043225)	(-1.5478536088092838, -2.5631039954612254)	(-1.4004897105010574, 7.0988977115550433)	(7.467687235533635, -4.8014616304830717)	1.0	slash	1.20724
22	N	A	A	N	B	M	M	B	B	8	2	shapes	A	0	False	51	(0.90306813508461836, -5.2888446936537346)	(-3.6132064448409746, -8.2074319031380192)	(8.1943728954894155, 0.97422286459337926)	(7.5327156055523439, -7.4521190467093401)	1.0	z	0.9861
23	M	A	A	N	N	B	B	M	N	8	1	shapes	A	0	False	51	(-1.687720702651645, 0.55523752254906533)	(-4.9982845434593148, -5.4933548941907544)	(4.4585778541997438, -3.3088442987717865)	(3.8860851191383627, 8.0231485572372847)	1.0	slash	0.950456
24	M	A	N	B					A	4	1	shapes	A	0	True	51	(3.6833062383174369, 3.2278552100025326)	(-0.11070135039913254, -2.4369586048392797)	(-2.8106072471705232, 5.5074704874282023)	(7.2829089207150091, -7.9200342790135583)	1.0	z	1.13906
25	N	A	B	N	M	B	A	M	A	8	1	shapes	A	0	True	51	(-5.6336506370030168, -3.9687396381273699)	(8.5095565543088227, -6.0392696037518849)	(3.1912387824726807, 0.85923412129518439)	(2.4801810696336766, -7.0481282462652661)	1.0	z	1.58597
26	M	A	A	B	B	M	N	N	A	8	3	shapes	B	0	False	51	(7.1228683044238519, 3.9683713269900007)	(-8.1239027035894242, -2.6278371804370311)	(-4.0086767319817715, -0.53777235058095485)	(-4.5528038797510098, 8.4234375267177413)	1.0	slash	0.903688
27	N	A	A	B					N	4	3	shapes	B	0	False	51	(-6.0905954225212238, 5.5442750411918276)	(-6.5583187599050792, -8.3368813107701438)	(7.2248497165420851, -8.0799980855821669)	(0.43976500165026877, 1.4392855922550556)	1.0	slash	1.03526
28	M	B	M	A					B	4	3	shapes	A	0	False	51	(3.7420366171634765, -5.4208465331946689)	(-2.0601322642918207, 2.8525595830174346)	(6.5191687795124764, 2.7218479089208394)	(-2.3052237333455849, -8.4465665320876617)	1.0	z	1.11912
29	N	B	A	M	A	M	N	B	M	8	6	shapes	N	0	False	51	(-2.0789352870064466, -6.4380225840229848)	(-7.0933581650505726, -3.8522588204639536)	(3.6306724288208319, 1.5644458550819671)	(-0.2811789160669278, 3.6032464407655489)	1.0	z	1.14843
30	M	B	N	N					N	4	3	shapes	N	0	True	51	(6.2173676960894149, -7.021703880240544)	(-4.8580948033692142, -4.5392970096151206)	(-5.1117957252517545, 0.42081191178573008)	(6.8954269232655658, 3.2714927823308919)	1.0	z	0.9207
31	M	B	M	B					M	4	3	shapes	B	0	False	51	(-1.9585340360102306, 0.34269513465948087)	(-4.4966688934260191, -7.2068053438230386)	(3.0773453805649993, -7.9470408304447311)	(1.0892197054696435, 7.2487061018157508)	1.0	slash	0.762349
32	M	B	B	A					N	4	2	shapes	B	0	False	51	(-5.2654338204553657, -5.9816848661184192)	(3.2416099122149156, -4.2026933062293033)	(-4.7543313535944147, 3.0598430397149379)	(4.7977544589668284, 4.9377622939819865)	1.0	slash	0.683906
1	M	A	A	N	B	B	M	N	A	8	1	shapes	A	1	True	51	(3.2442236291412136, 2.3040988097770647)	(-2.2972327583246708, -1.1341169918508109)	(-5.2287857991348146, 4.328567860209569)	(7.4264386659900765, -2.6349724834807766)	1.0	slash	0.812505
2	N	B	B	M					N	4	1	shapes	B	1	False	51	(4.5128203814105436, -7.6507866550849135)	(5.3151342729075033, 7.6349715426224236)	(-6.9196994301682517, -1.7829866428514869)	(-4.4595281606308408, 2.8869684033790204)	1.0	slash	0.874717
3	M	A	M	B					N	4	0	shapes	M	1	False	51	(-2.3721658322040895, 0.50660686383617559)	(7.2413250859327984, 5.7839567692717608)	(4.1690422521299162, -1.5215090345901583)	(-0.90095813370752964, -4.4501930286742066)	1.0	z	1.23879
4	M	B	B	N	A	A	M	N	M	8	2	shapes	B	1	False	51	(-7.8197306893992682, -4.8358373663358432)	(7.8694803060556637, -6.41530635991385)	(7.4799472637923436, 0.47192533402409609)	(-6.8310434056826743, 7.4326572110032991)	1.0	slash	0.745996
5	N	A	N	B					N	4	0	shapes	N	1	True	51	(0.3546994075224621, -6.8949817611350674)	(-5.9264672459123746, 4.6191135540688926)	(6.2579860474192266, 6.3478200590297682)	(-4.7168585546610009, -2.0221893368697863)	1.0	z	0.647555
6	M	A	M	A					M	4	3	shapes	A	1	False	51	(-8.4725013311304167, -4.3738631179787273)	(-4.3847901916431624, 5.4839028951527418)	(6.5968539672665205, 5.2163884868968768)	(6.806421050136457, -0.34164589638304932)	1.0	slash	0.735931
7	N	B	A	N					B	4	1	shapes	B	1	True	51	(5.456566541590643, 0.11217374017782689)	(-0.83160569745193325, 1.6570686014568903)	(7.8545290727208297, -6.4126786664519457)	(-7.68418473541678, -0.52523752233444121)	1.0	z	0.559465
8	N	B	M	M					M	4	1	shapes	B	1	False	51	(5.6820773579876072, 5.1405362757020896)	(2.1712589082112412, -4.7655123035469789)	(-7.3828993731536912, -8.0278645806676909)	(-7.2196134987535521, 5.8463668221933425)	1.0	slash	0.694641
9	N	A	N	M	A	M	B	B	A	8	2	shapes	N	1	False	51	(5.9822638660256189, 7.7370135169589958)	(0.30023668521706526, -6.053257179079969)	(-4.9582978865348828, 2.9145370739698269)	(1.9755404805099825, 8.0330733240804086)	1.0	slash	0.744864
10	M	A	M	A	N	N	B	B	N	8	4	shapes	N	1	True	51	(3.2120020408838528, 2.9505306341386657)	(1.27735769436784, -4.1211039782869401)	(-8.372025309399536, -8.6209254120685905)	(-0.16162400127302767, 6.4093929791923934)	1.0	slash	1.31702
11	N	A	B	A	N	M	B	M	B	8	7	shapes	M	1	False	51	(5.0127388474343313, -2.6821952024412425)	(-8.6248548622605945, 4.8548545005699388)	(-1.4387105072543784, -7.1419929215786535)	(6.6074343464697893, 7.4105745200950359)	1.0	slash	0.783626
12	N	B	A	N	A	B	M	M	B	8	6	shapes	M	1	False	51	(1.7763082824477223, -3.1674709188870027)	(6.2311767530015967, -6.6992912839346257)	(-8.3024424679249549, 3.29853263115894)	(3.8638550818647488, 4.0699673755233547)	1.0	slash	1.49117
13	N	A	M	A	M	N	B	B	B	8	4	shapes	M	1	False	51	(-8.2146542652931966, -7.6435514724105076)	(-0.84314528035491065, 7.0561004927364905)	(7.9140682220888756, -4.1512490804680366)	(-3.691988338452088, -4.9227537745025582)	1.0	slash	0.932962
14	M	B	B	M					M	4	0	shapes	M	1	True	51	(-0.34248294866429774, -2.3817739515266387)	(7.1594733581472383, 3.7814586855711578)	(6.0689966177879313, -1.271994690333913)	(-4.2937211730008809, 0.20915125930235412)	1.0	z	0.797208
15	M	B	A	B	N	N	M	A	B	8	6	shapes	M	1	False	51	(2.224745427635078, -8.6022161199222076)	(1.3543844757797476, -4.072952866873524)	(0.66948187174583751, 7.5190460134527548)	(-1.7348427922286271, 1.5824002914597184)	1.0	slash	0.760105
16	M	B	B	N					N	4	3	shapes	N	1	True	51	(-4.2181753231075074, -0.74602774818944972)	(0.47254669682732597, -4.1447797915057887)	(-1.7861895946082935, 5.2892708174456846)	(5.5289316050932964, 7.6719004825673309)	1.0	z	0.754331
17	N	B	M	M					B	4	0	shapes	N	1	False	51	(-6.440008163124805, -6.025417145470934)	(5.5178121111404899, 8.1881743539848486)	(-5.3390143945786406, 0.69765388439736498)	(3.8289540605805819, -2.1864720381530329)	1.0	z	0.539436
18	N	B	A	N	M	A	M	B	B	8	1	shapes	B	1	True	51	(-6.6068099569948444, -6.3483855868273213)	(8.4259957597970185, 1.92850583416622)	(-7.3140088875295328, -0.95686422653810599)	(0.77004234960018181, -4.5668547596792948)	1.0	z	1.32349
19	N	B	A	M					A	4	3	shapes	M	1	False	51	(4.6082493841049423, -3.2724773941131096)	(-8.4219029704005504, -2.194582425812472)	(8.5722162508156252, 1.3115158616539802)	(-1.1403469417695167, 5.7178368876284402)	1.0	slash	0.660766
20	N	A	M	B	N	A	M	B	N	8	4	shapes	N	1	True	51	(-5.3963396409653974, 1.5871057338420389)	(0.23096679653437313, 7.6810021101808879)	(6.9282859447664347, 0.64257161321657641)	(-0.42837594048650374, 2.4316113995230175)	1.0	slash	1.39029
21	M	B	N	M					M	4	3	shapes	M	1	True	51	(-3.2070355088615088, -1.3646684825732054)	(6.4153360365311585, -2.6803941926969204)	(-8.6266191244282044, 3.9585866869169983)	(0.97871257043515492, 5.5064495102231117)	1.0	z	1.06663
22	M	B	N	M	N	B	A	A	M	8	3	shapes	M	1	True	51	(1.4389791547826629, -6.1752947736396671)	(-3.8019790201573684, 5.9683533586387156)	(6.0485312466132761, -2.5349374093116097)	(-0.60756355444051202, 0.33320268874735604)	1.0	z	1.22378
23	M	B	B	M	A	N	A	N	A	8	7	shapes	N	1	False	51	(-1.9032849630900923, -2.1909097537836786)	(5.9309103171636401, -8.5621801277924892)	(-4.2579425674297182, 8.5399337780893205)	(-1.3629948825365146, 4.0865087886061335)	1.0	z	1.67296
24	M	B	B	A	A	N	M	N	M	8	2	shapes	B	1	False	51	(-8.2291739368850791, -1.5436228361012976)	(1.5320085953705096, 0.35119397896679239)	(8.1176830848366244, 4.6585215351179592)	(-2.2641972911468722, -6.4825337918329344)	1.0	slash	1.17548
25	M	B	M	A					A	4	0	shapes	M	1	False	51	(2.6762313900845704, 4.0359400787883235)	(2.6544200376407741, -5.2411066817542835)	(-1.9148376254451778, -0.98404817210666184)	(-7.9234055701361754, 0.99024714468865227)	1.0	slash	0.70027
26	N	B	N	B					A	4	2	shapes	N	1	False	51	(-1.5850569945216115, 8.2760499063050084)	(-3.6706046651775726, -0.29836229298870265)	(5.9417122510127154, -7.4746035164336568)	(8.3340035485541861, 0.68583308233777629)	1.0	slash	0.802605
27	M	A	B	M	A	B	N	N	N	8	7	shapes	N	1	True	51	(6.918537099644249, 0.27022183658468535)	(3.4965527422056457, 4.3095405677690657)	(-3.8794198979177255, 1.0718926811954876)	(3.443982137400134, -7.3202099636229594)	1.0	slash	1.11051
28	N	A	A	M					N	4	0	shapes	N	1	True	51	(-4.5364488206180473, 0.10398758922896967)	(0.64840134526069448, 0.11335175142866838)	(3.2301562569067226, -7.8619178704883197)	(-7.2918385530253502, -5.5625363838974984)	1.0	z	0.897275
29	M	B	A	B	A	M	N	N	N	8	6	shapes	N	1	True	51	(-2.20581173727689, -2.3483745560205094)	(8.5928106265405866, -1.9919496814750062)	(-5.701564162095849, 2.7588780031304641)	(-0.35328714177836673, 6.6045769105771228)	1.0	z	1.17901
30	M	A	B	B	N	M	N	A	N	8	6	shapes	N	1	True	51	(4.7466360664862233, -1.3853127540400534)	(-6.7385301613334292, 3.2985294066009665)	(1.3493215615051373, -8.7309549278472609)	(-1.7324033294919321, -6.1311024135384926)	1.0	z	0.930656
31	M	A	B	B					B	4	3	shapes	B	1	True	51	(-1.5598788604077649, -0.94994081355810778)	(5.5147810915908213, -5.6012785919093133)	(0.10934997578516104, 5.301802772711417)	(-7.3127297623821317, 7.5722193718909239)	1.0	slash	1.22679
32	N	B	N	M					B	4	1	shapes	B	1	True	51	(7.4213781449836809, -0.21364521536215264)	(-5.6750575785206356, -8.0156676877778636)	(-5.6501064546462665, 4.6291688480128776)	(4.2103312457704849, 2.9510292015261879)	1.0	z	0.99203
1	N	B	B	N	A	M	A	M	M	8	1	shapes	B	2	False	51	(7.1538433102816938, -2.0618520342066908)	(4.0905867892696595, 4.4281741340121155)	(-3.2515920661771336, -4.1793234725279262)	(-4.7721509262513315, 2.4311630730742575)	1.0	slash	0.668214
2	M	A	M	B	A	B	N	N	A	8	4	shapes	A	2	True	51	(-4.3691794831854054, 8.0374304722575047)	(-5.8784987836484657, -4.3548217048670868)	(7.7411506079679562, -8.0749954271490623)	(8.5112005438270195, -4.0532835513562553)	1.0	slash	1.04124
3	M	B	B	N	N	A	M	A	N	8	3	shapes	N	2	True	51	(-1.1483733306864981, 6.1438357456867418)	(-6.1977154461890347, -6.0635521264598342)	(0.67452626553104267, -1.637930026580463)	(6.2208709470146868, -8.5744183566195211)	1.0	z	1.1335
4	N	A	N	A	M	B	B	M	M	8	7	shapes	M	2	True	51	(-5.654232672405592, 6.4871763805461065)	(7.5574503572193024, -3.9328129244016559)	(1.8772490479369477, 3.6814808851513057)	(4.9069310272311473, 8.2755712382507518)	1.0	z	0.791225
5	M	B	N	M	A	B	N	A	M	8	6	shapes	N	2	False	51	(-5.7524128120038966, 1.7727655806832008)	(-3.1178429393582112, -5.4230247951785362)	(4.3321149203903744, -4.7216473643217096)	(-8.4346179686078635, -4.1925588843429269)	1.0	slash	1.09037
6	N	B	N	M	A	A	B	M	N	8	5	shapes	A	2	False	51	(-1.4664424497279791, 3.8095279418774961)	(-4.1255471211577373, -6.2304625240968861)	(3.6786307060331502, -0.50181655567284444)	(-0.096766256598010969, -2.3700825315014171)	1.0	slash	0.850347
7	N	B	A	B					A	4	2	shapes	A	2	True	51	(8.5302737168834177, 1.2769846956585695)	(0.35113447593115765, -4.7890585510219656)	(-2.3798353096011784, 5.44316085867111)	(-7.9119949194515886, -1.5154649798509565)	1.0	z	0.520865
8	N	A	N	M	B	B	A	M	B	8	4	shapes	B	2	True	51	(0.19771118240708674, 7.7687234145631834)	(5.9710314337293617, 5.1663733226953621)	(8.1921555658798972, -7.9872374796249428)	(-8.4814793420842349, 6.1190358509506151)	1.0	slash	1.0029
9	M	B	B	N					N	4	2	shapes	B	2	False	51	(8.0260890070648898, 8.5944706441817083)	(-4.4184218851898942, 6.5784302986027399)	(-6.4608530834839808, -2.6082985091572768)	(1.2817072834694976, -3.3096214438967229)	1.0	slash	0.90996
10	M	B	N	M					A	4	0	shapes	M	2	False	51	(-8.0836696523482257, 3.0471745232797218)	(7.3997792535864875, -8.2085990443693682)	(-5.0892214124183948, -7.0853080767020096)	(1.9159576138406091, 5.8131247758205724)	1.0	slash	0.82294
11	M	A	A	N	M	B	B	N	B	8	6	shapes	B	2	True	51	(-1.1245288976326453, 4.6204087083716718)	(8.7209638245515606, 3.3779839822479971)	(1.7473482381993026, -6.6016064426403327)	(-7.6908077577328484, -2.8578274277945432)	1.0	slash	0.756144
12	M	B	M	A					M	4	2	shapes	M	2	True	51	(8.479098744419769, -6.5507267951880737)	(5.1764358959342847, 6.8564907237744812)	(-2.7292338844443478, -8.3284069389059869)	(-1.635886467915995, 4.7400044749728387)	1.0	z	0.997713
13	M	B	B	A	N	N	A	M	B	8	4	shapes	N	2	False	51	(-5.5170010062654313, -1.8258550556463726)	(7.0983604617422102, 5.9420255329978922)	(0.044611057555103528, -5.9600696468637562)	(8.2117608520586352, -6.8249762828705141)	1.0	slash	1.25028
14	M	B	A	A					A	4	3	shapes	A	2	True	51	(0.27440260863954791, -0.92902343698820111)	(-2.4510411391104592, 6.838393902602002)	(-4.3130053265340802, -5.5026658046993964)	(6.6207269480433251, 7.9632159880534275)	1.0	z	0.80697
15	M	B	B	A					N	4	1	shapes	B	2	False	51	(1.0003685687869357, 4.6901472407926672)	(-3.2104994626379497, -3.9049612686787141)	(8.2569128614619203, -6.6757118941516174)	(-8.1899815812302936, 6.684610424245383)	1.0	slash	0.728378
16	M	B	B	A					B	4	3	shapes	A	2	False	51	(2.6573349889633846, -4.8938193394442457)	(6.9373784679349004, 8.6615797413046316)	(-1.850631399650366, -6.2737979054021)	(-7.0319781893285693, 7.831046933569219)	1.0	z	1.28033
17	M	A	M	B					B	4	3	shapes	B	2	True	51	(-1.6001527063775791, 1.6706363862376126)	(6.2398505679341252, 3.7645266109076783)	(1.6344285395391296, -0.71266574618374712)	(-8.0558666922753712, -1.9237851968495159)	1.0	slash	1.59248
18	N	B	N	B					B	4	3	shapes	B	2	True	51	(-5.4215813835012741, -7.8561623589413951)	(7.492937090857442, -1.3756986494806034)	(8.5119596312750154, 7.9744088537259117)	(-2.1420909625103368, 8.143769640782093)	1.0	z	0.756122
19	M	A	B	A	N	N	B	M	A	8	3	shapes	A	2	True	51	(-7.584763723857546, 6.6057247380934729)	(7.9320848316915828, 1.9818390119849028)	(4.4380840580381928, -4.1728029052263809)	(3.5416735328620863, 8.0807506309620933)	1.0	slash	1.11924
20	N	B	B	N	A	A	M	M	A	8	3	shapes	N	2	False	51	(-4.5776900165277565, -0.010356012073517107)	(6.9903321252014692, 5.9420109611794505)	(5.0894162009629742, -0.93211386348132397)	(5.7895450476550661, -6.8147617976810588)	1.0	slash	0.843307
21	N	B	A	B					N	4	0	shapes	N	2	True	51	(1.4802765496314549, -4.1069887606832021)	(-7.4612609760717481, -4.9757360198636134)	(-4.1166614109706847, 1.0137742860482302)	(8.5767591082497283, 2.5989185020848495)	1.0	z	0.648503
22	N	A	N	B	M	M	A	B	M	8	3	shapes	B	2	False	51	(8.247928798877318, -0.12137485309787444)	(1.1005525579804551, -6.2845024059138979)	(0.42441453276773622, 6.2155113262984134)	(-5.2393415910461805, 3.8157475827157015)	1.0	slash	0.722198
23	M	B	A	B					N	4	2	shapes	A	2	False	51	(-7.8512278415598296, -8.050155629770078)	(2.6964164228072729, -7.4389312713524802)	(2.9569716079504964, 4.757756688766154)	(-8.4153816482834607, 2.7391914414689751)	1.0	slash	0.659392
24	N	B	N	B					A	4	2	shapes	N	2	False	51	(5.4473105772305122, 3.3914062935389921)	(-0.18874418953532413, 5.6591991500044365)	(1.8619018782958534, -0.46235271320398219)	(-0.99044172565450594, -7.5453752762666673)	1.0	slash	0.911249
25	N	B	M	B	N	A	M	A	A	8	2	shapes	M	2	False	51	(-2.5223707506302633, -7.4522543135554464)	(-8.4038168835122811, 6.816504343687626)	(7.5249337067117459, -2.0587748745582157)	(1.8909688019534077, 4.1970771711520474)	1.0	z	1.42909
26	N	A	N	M					N	4	3	shapes	M	2	False	51	(-5.038009927624155, 0.087416196294253012)	(3.0652733733693083, -1.8720699084462948)	(1.1319489120229367, 4.2918935412734509)	(-5.0937603990206721, -6.8195963717349191)	1.0	slash	0.696653
27	N	A	M	A					B	4	2	shapes	M	2	False	51	(-8.1075349598463422, 1.0697718536051539)	(5.5661382319727402, -1.5801082423923036)	(6.9967303546599062, 5.2835328916708715)	(-0.21132099796403381, -4.7464797001815455)	1.0	slash	0.62433
28	N	A	B	A					A	4	1	shapes	A	2	True	51	(-1.6606885051352931, -2.5130394361800406)	(-3.7190456459310326, 2.8656953056787877)	(3.8655990390053105, 8.6425172210388546)	(0.065801980129545967, -8.0537886466061046)	1.0	z	0.732601
29	N	B	M	M					M	4	3	shapes	M	2	True	51	(-1.7660872554309819, -8.2183948556887891)	(-3.0579064741221558, 6.6168908350637974)	(8.618061089156928, -4.0675848819535956)	(4.0019230131055039, 7.3360405158331723)	1.0	slash	0.721648
30	N	A	A	B	N	B	M	M	A	8	0	shapes	N	2	False	51	(8.3278038857805328, -0.18395367783955763)	(-8.5179319120652988, -0.71068023191163832)	(-6.2853240741011707, 6.8362123277115519)	(-0.96572978098543327, 5.717283152733641)	1.0	slash	1.38728
31	N	B	A	M	B	A	N	M	N	8	6	shapes	N	2	True	51	(0.31195804259532345, 5.1136618342352165)	(7.3272066838135821, -5.3762451581544379)	(-7.0459082178460557, 6.2807816376912982)	(8.0924789362294938, 5.4091016691899494)	1.0	z	0.480976
32	M	A	N	M	A	B	B	N	B	8	6	shapes	B	2	True	51	(1.6542852071950787, 1.6502891357122742)	(0.49424872937150433, 7.6716760028136903)	(-3.816541822957829, -2.3517587242934983)	(6.0672399730516737, -2.1061210834658102)	1.0	z	1.01856
1	N	B	B	M					N	4	2	shapes	B	3	False	51	(5.9066493683585843, 5.631160509552311)	(-2.0896501012421789, 6.6849010566473268)	(-5.3822142146545602, -4.6495235372787409)	(8.0526738766647625, -0.23406674577440256)	1.0	slash	0.712462
2	M	B	M	A					A	4	0	shapes	M	3	False	51	(1.386873817421014, 0.22728803038498668)	(-1.3873572873354538, 3.6944485008141523)	(3.613970058886979, -4.8385294170766953)	(-7.4061320686579748, -4.0394036150214321)	1.0	slash	0.740432
3	M	A	N	N					M	4	3	shapes	N	3	False	51	(8.1743027781540221, -8.6622497767183848)	(-4.4588292952633495, -4.768961922049586)	(-2.4028326388039671, 2.6945801548925346)	(7.17010940890912, 7.6471384751271358)	1.0	z	1.30569
4	N	A	B	N	A	M	M	B	N	8	3	shapes	N	3	True	51	(-5.0953815171009218, -8.6670114930160818)	(-5.6314690823066389, -2.5636023324481458)	(4.3377595927917252, -2.7430262560059022)	(1.729222312771201, 2.6205173539451678)	1.0	z	0.895623
5	M	B	M	B	A	A	N	N	A	8	4	shapes	A	3	True	51	(1.6958868114531782, 0.029218406754496939)	(-3.1218604364193636, -6.4503769990581699)	(3.5257761306179898, -8.5912679720506855)	(8.2391365572443469, 5.3349389982072069)	1.0	z	1.12694
6	M	A	M	B					N	4	0	shapes	M	3	False	51	(4.6863411443964189, 0.27786788805696183)	(-0.63326252469872202, -0.23736525287619514)	(4.3689522452780558, -6.3271648975629464)	(-3.6785985876171745, 8.2767096527680621)	1.0	slash	1.03054
7	N	A	A	B					A	4	3	shapes	B	3	False	51	(-6.7150888565083839, -2.0692921075219255)	(0.91754495361316657, 8.732463252683619)	(0.11370615382424099, -4.0683299985493608)	(-2.9193020491197501, 4.8198654659372338)	1.0	slash	2.30758
8	M	A	A	M	B	N	N	B	A	8	2	shapes	A	3	True	51	(-3.8440023731019597, -5.5357439485686477)	(-7.2431684451975586, 7.1771085401390486)	(4.4710186267699825, -2.1812727759400783)	(7.1111306097666809, 3.9382281115189066)	1.0	slash	2.43945
9	M	A	N	M					M	4	3	shapes	M	3	True	51	(7.556086809403137, -4.7650552736896161)	(-2.2902883313114648, 7.4084641138648237)	(7.1903666927665402, 3.4481589987327759)	(-0.65537834358578273, -0.61566768673848671)	1.0	z	0.833161
10	M	B	N	N	M	A	B	A	B	8	4	shapes	M	3	False	51	(6.4148025638913619, -5.3268089718850788)	(3.0732327808431616, -2.6340644639981257)	(-2.538284981870973, 4.3960986075065485)	(1.9586739539107239, 2.2060589281858736)	1.0	slash	0.926919
11	N	A	B	N	M	B	M	A	N	8	7	shapes	A	3	False	51	(3.1672952551268114, -5.3793236030768208)	(-3.2667150221390093, 5.2214626192635514)	(7.5959747310349925, 6.2093988927723203)	(-3.6193848853739601, -1.4632160394091853)	1.0	slash	1.19223
12	N	B	A	A	N	M	B	M	M	8	3	shapes	A	3	False	51	(7.9665577163958012, -4.7197331918711294)	(-7.3941048906182072, 4.9001879327549052)	(8.1103489785756047, -0.13407302859577008)	(-2.742904185811768, -2.9934821703702337)	1.0	slash	2.11625
13	N	B	M	M					M	4	2	shapes	M	3	True	51	(7.560871518708062, 5.3563737984085069)	(0.37733260828687243, -4.0808571532807143)	(-4.5826702139068907, 4.3545324873824622)	(-7.5869948232404223, -3.1894597124624173)	1.0	z	0.75835
14	N	B	N	B	M	M	A	A	M	8	1	shapes	B	3	False	51	(0.27845508552633369, -2.489790777075144)	(-8.4028697347201877, 8.1383378461563609)	(-8.3604566035150789, -5.3342257798601977)	(3.7167923723499623, 0.33045039513671171)	1.0	z	1.84179
15	M	B	B	M	A	A	N	N	B	8	2	shapes	B	3	True	51	(4.6996646241245905, 1.4961310254562115)	(7.3636669399863379, 4.6774614488464898)	(4.540113561966578, -4.7360227451886869)	(-5.7403790745846655, 6.1090290950625405)	1.0	z	1.26533
16	M	A	M	N					M	4	0	shapes	M	3	True	51	(-5.421734774438999, 1.2270695862826404)	(-6.3836014487636472, -6.2781708732640187)	(1.0773370722932505, 3.3029702640589473)	(0.20826426513366592, -6.4179835292167402)	1.0	z	0.682281
17	N	B	M	B					M	4	2	shapes	M	3	True	51	(7.9613809807163349, 6.8935135298122123)	(4.9932104351935802, -0.31719302034169772)	(-7.7929043572036747, -5.0349881356028661)	(-1.377165080553393, 7.2826800686148339)	1.0	z	0.916772
18	N	B	A	M	M	A	B	N	N	8	4	shapes	M	3	False	51	(1.3297214844998315, 2.4087628765699947)	(-0.55220749214156761, 7.491774733810395)	(1.0867194579216992, -5.3973977977715855)	(-8.2864745999268425, -5.3493320277472849)	1.0	slash	0.864122
19	N	A	A	B	B	N	M	M	A	8	1	shapes	A	3	True	51	(-2.1486711249239763, -8.0770769890265566)	(0.36692536802280529, -1.6347439473058722)	(3.0203568823552907, -5.4905728188084213)	(-3.2826333073160843, -3.5151049495531286)	1.0	z	1.29608
20	N	A	M	N					M	4	2	shapes	M	3	True	51	(-6.4386847682221688, -4.5221564596373636)	(-8.3930542877242065, 1.548707801474837)	(5.4742869900861031, 1.751881359012339)	(2.148256940879655, -2.4010770389469558)	1.0	z	1.90163
21	N	A	A	B	B	N	M	M	A	8	2	shapes	A	3	True	51	(-7.4909261538389682, 2.17548071291551)	(7.2390382697251532, -2.3765696812672141)	(3.8483825126332238, 7.5852279064120012)	(-4.0112673745532064, -1.1931791067366113)	1.0	slash	0.863129
22	M	A	A	M	B	N	B	N	B	8	3	shapes	M	3	False	51	(-3.4030711215873533, -0.23417592996697145)	(-6.6584823861299878, -5.7403416940162071)	(4.8536532138276751, -3.6843482401222722)	(3.5887623030923717, 7.0124649924191367)	1.0	slash	0.980221
23	M	A	N	B	M	N	A	B	B	8	7	shapes	B	3	True	51	(-8.5372131674845342, 2.6599690256600255)	(5.2146252653671734, -4.6337099497167307)	(-8.3422130750890258, -4.4299063010660218)	(2.1291896327462556, -7.5696549103371122)	1.0	z	2.27385
24	N	B	B	M					B	4	2	shapes	B	3	True	51	(4.0382925409982775, -3.2902313816520783)	(1.2204181445937259, 7.8900653742645943)	(-2.0446453061088716, -2.3500624674478399)	(-7.1298020368113306, 5.1386017802359767)	1.0	slash	1.70131
25	M	A	N	M	N	B	B	A	A	8	3	shapes	M	3	False	51	(-3.1470501272715747, -6.589317059985623)	(3.2110131136452917, 7.5248185383811759)	(-0.67697243005063612, 3.2170896121808781)	(8.3821780958463243, -3.2812923588450671)	1.0	slash	1.095
26	N	A	A	M					N	4	3	shapes	M	3	False	51	(-3.9683370262924385, 0.33584480859018129)	(1.9242672918426305, 7.7348695699477332)	(2.6738793175976401, -0.53155599344913185)	(-2.4688640022947395, -5.3025493650341824)	1.0	z	0.781135
27	M	B	M	A	N	B	N	A	B	8	1	shapes	B	3	True	51	(3.6568826272309582, 4.7497346079961638)	(-4.819732382693001, -8.5654417082656433)	(8.5708776068598809, -4.1869454774641639)	(1.3939565201717361, -5.1600056209815115)	1.0	z	1.31016
28	M	B	A	N					N	4	1	shapes	B	3	False	51	(0.064070135512706017, -2.1342118860856854)	(4.3294065475607528, 0.71225897746606037)	(-4.8400759787372891, 8.57093282579293)	(-3.6993963214597443, -8.0948151088747178)	1.0	slash	2.19186
29	M	B	A	B					M	4	3	shapes	B	3	False	51	(-6.6901985726950679, -1.7254400796539118)	(-5.7966230610248761, 2.328837512778474)	(7.999004586417005, -7.4042520053056426)	(6.3728956701387656, 8.4632963228749389)	1.0	slash	0.892005
30	N	A	A	B					A	4	2	shapes	A	3	True	51	(4.5536505270098981, 3.3533116869815025)	(-4.5116193505711433, -4.889356463798241)	(-5.8307079895266547, 8.1064084257768378)	(1.3251829938564033, -0.67260007624416396)	1.0	z	0.675716
31	N	A	A	B					A	4	1	shapes	A	3	True	51	(3.968042385424754, -6.9567301129197645)	(-8.4243298280000136, -4.5610496175333406)	(4.0529575403411737, 1.877795782186384)	(-4.7732604728875092, 0.22028953982818678)	1.0	z	1.46072
32	N	B	A	M	B	M	A	N	A	8	3	shapes	M	3	False	51	(8.1402947581415077, 4.5456965039849191)	(-4.999323397931982, 0.54060664423036364)	(2.4793788419534231, 7.719924620777519)	(4.5035997733377151, -5.4302512029412)	1.0	slash	1.23698
1	N	A	N	B					A	4	1	shapes	A	4	True	51	(7.5844555175239456, 6.7454329264293449)	(-1.5864924105480549, 1.1657560460173251)	(2.5042896753874384, -4.0521741354763785)	(-7.5213244432524728, -6.7337755946380327)	1.0	z	0.555018
2	M	A	A	B					A	4	3	shapes	B	4	False	51	(-7.3744163252328248, 1.7104644460143437)	(-3.939724348399877, -2.9775276464420015)	(6.6820385238052715, 4.7216036411883682)	(1.6526855233756415, -0.3811835252576028)	1.0	z	0.614271
3	N	B	N	M	M	B	A	A	N	8	5	shapes	B	4	False	51	(-1.5969118480068749, -2.2084778703376724)	(-3.5306187246827685, 3.6377036148628488)	(2.1546114706267669, 3.9345610770964825)	(-0.019599567264068085, -6.6249888984827692)	1.0	slash	0.959974
4	M	B	N	A					M	4	0	shapes	M	4	True	51	(1.6078867200126385, -2.0293095685766325)	(-7.3392422981600847, -7.0755194728679447)	(7.1463546766674799, 4.5442873561209982)	(-0.76419771641638778, 2.5099964094341054)	1.0	z	0.545786
5	N	B	B	N					N	4	2	shapes	B	4	False	51	(1.6343210232465157, 1.7570288816992488)	(-0.82099260837521637, 8.2777900160779154)	(7.200165501636004, -1.2362014473743628)	(-0.9096804884336338, -8.3134030916898585)	1.0	slash	1.00938
6	N	B	N	A	A	B	M	M	M	8	0	shapes	N	4	False	51	(3.5162029653201472, -1.7446522088777918)	(-3.7896514532007508, 2.8451276364525384)	(4.7092117272685723, -7.0473766691597834)	(-6.2828454244141465, -2.2769191373809665)	1.0	slash	1.00046
7	M	B	A	B	N	A	N	M	N	8	5	shapes	A	4	False	51	(8.4585665800030192, 8.6212171135452635)	(-0.33514023025865036, -8.1557168460000096)	(-6.3173163887362271, -5.7974068442302693)	(-6.7208011593969079, 8.3348703771201258)	1.0	slash	0.788123
8	N	A	B	M	N	M	A	B	A	8	2	shapes	B	4	False	51	(3.0731527271594281, 4.4356475518433278)	(1.9427958070995306, -7.3274228398401133)	(7.7470543577412201, 0.56822547341644203)	(-2.5393243992591987, 5.3511526717335958)	1.0	z	1.19425
9	M	B	M	B	N	A	A	N	M	8	2	shapes	M	4	True	51	(-3.57543023473389, -0.24597426789696186)	(1.2764119756496264, -7.2181793724381027)	(5.3444156910970388, 4.1215132978182911)	(4.1444093465435508, -3.3478141484060329)	1.0	slash	0.967717
10	M	A	M	N	A	N	B	B	N	8	7	shapes	B	4	False	51	(-5.4964740912736874, 7.5080667633751723)	(5.6591647886635279, 1.3517707429390562)	(6.224291525488109, 7.0665252687172533)	(-0.26170748592779347, 0.00014999544216642846)	1.0	slash	0.894929
11	M	B	M	A	A	N	N	B	A	8	4	shapes	A	4	True	51	(-3.2406744597340404, -3.0517561959713664)	(0.69598574062198182, -3.9825040843877488)	(4.0099623752027824, 1.5008817509112369)	(-0.88783989005111152, 5.4676285197695442)	1.0	z	1.33441
12	M	B	B	M	A	N	N	A	N	8	7	shapes	A	4	False	51	(-1.5611154430272318, -3.1060600753279983)	(-7.1147336689806977, 4.0949917410126595)	(4.1619797586423939, 0.69627068598841291)	(4.1089139399595567, -7.1583666585851438)	1.0	slash	1.18846
13	M	A	B	N	M	B	N	A	N	8	6	shapes	N	4	True	51	(-0.76314877398812886, -2.9805874886801007)	(-5.0412461487628857, 0.18882369991701964)	(-6.7501700397408912, 5.927092397644083)	(0.5771985193863074, 3.4104686616134838)	1.0	z	1.22386
14	N	A	A	M					N	4	0	shapes	N	4	True	51	(6.9746735959411534, 0.72691896149951951)	(-3.19237087737518, 0.73724907732114353)	(2.5018985788109074, -5.2704635537630207)	(-6.9745900518898782, -6.5369459020548124)	1.0	z	0.995966
15	M	B	B	N					N	4	0	shapes	M	4	False	51	(-2.1247509250631262, -2.0410132079224024)	(-6.1633532848479184, 5.7439474288616701)	(4.2629608146932956, -0.21989648373535076)	(1.8567513605092003, 3.2265809161714287)	1.0	z	1.2447
16	N	A	A	B	N	B	M	M	M	8	7	shapes	M	4	True	51	(5.8697831312800979, -3.9900696790650478)	(7.3441045086645644, 0.57539591058776551)	(-8.1390755633760747, 6.7570205952730582)	(0.66176521918998965, -6.5964026683992341)	1.0	slash	0.879229
17	N	A	N	M	B	B	A	M	M	8	7	shapes	M	4	True	51	(0.40481364349482263, -2.2224439169971451)	(5.7146520795229012, 1.774751456575336)	(6.2437247069283544, -7.4082674364258665)	(-6.3583750473105773, 5.9155361583191688)	1.0	slash	1.47245
18	N	B	M	M	N	B	A	A	B	8	2	shapes	M	4	False	51	(1.8383672999627674, -7.0956714612560638)	(-7.3615913025006883, 0.59103686391725319)	(-3.9476006554594898, 8.5785954810806047)	(5.3260940662892438, -2.7263182497013378)	1.0	z	0.917775
19	M	B	A	N					M	4	1	shapes	B	4	False	51	(1.5549495721197335, 0.93012969452859373)	(7.5789650801580812, -3.3734271195990981)	(-4.9324885495223167, 2.0280922350278363)	(-7.777506277784779, -8.1105658708662105)	1.0	slash	1.20862
20	M	A	M	N	B	A	B	N	N	8	3	shapes	N	4	True	51	(0.10618402166654128, -5.3157830152321042)	(-6.6694101024143979, -1.9760098400749886)	(7.8366248781254058, 3.5657594771264112)	(-6.2132505410789189, 7.9005846018811781)	1.0	slash	1.11979
21	M	A	B	B					M	4	0	shapes	M	4	True	51	(-2.9868359979826788, -2.4505640282840515)	(3.4298878305495997, 6.8011002157619487)	(4.155880694304587, -7.4534968934853207)	(-3.4920862092592841, 6.9282549749246112)	1.0	z	0.438836
22	M	A	M	A	B	B	N	N	N	8	7	shapes	N	4	True	51	(1.1880297962627058, 0.76013127428267424)	(-5.1459394071793199, -7.872830666174421)	(6.6004205231186646, 3.7060229228283053)	(-5.4129829850694984, -2.0988601759159371)	1.0	z	1.09905
23	M	A	A	N					N	4	3	shapes	N	4	True	51	(-7.7720349300029072, -7.8700184762156331)	(1.6063741030474397, -8.7410836195432715)	(2.2764370573860422, 4.3682406173741821)	(-4.2613198632103497, 5.0061408322989145)	1.0	z	0.616022
24	N	A	A	N					A	4	0	shapes	N	4	False	51	(1.4088837944979158, -2.5534587967102489)	(-2.890382420761159, -3.6117901430256811)	(0.36048958821877797, 4.0064768242982076)	(-3.8499815386830285, 6.8051295104041003)	1.0	z	0.824324
25	M	A	B	B					B	4	3	shapes	B	4	True	51	(-3.3449361056413167, 7.2002090026475276)	(5.8894644629673092, 8.2089007231829214)	(6.7321822259576223, -8.2904792130130698)	(-8.4628493165018472, -1.0970255944625089)	1.0	z	0.773342
26	M	A	A	N					N	4	0	shapes	M	4	False	51	(6.7234175314911511, 6.3437961778197103)	(1.9754912181749873, -4.4809523518116734)	(-5.6459171120857263, 2.3124331370953151)	(-2.0309783636729835, -2.4548329703692611)	1.0	z	1.00962
27	N	B	M	M					B	4	3	shapes	M	4	False	51	(-4.2053356548872829, 8.56546910848013)	(3.9529355395920263, 2.6590760049163702)	(-6.0822025650085401, -5.2854301929473735)	(7.6105195010892501, -7.6424253923007281)	1.0	slash	0.769196
28	M	B	A	B					M	4	2	shapes	A	4	False	51	(-2.1181841908841408, -3.0149072154100631)	(2.7056493784917546, 0.92399743311669624)	(6.715125181369471, -0.54055006438426645)	(-0.020570332609855413, 5.2171757744938816)	1.0	slash	0.696461
29	N	B	B	M	N	M	A	A	N	8	7	shapes	A	4	False	51	(5.0151348534064955, -4.0525864338043958)	(6.4907635921201354, 7.0029563732512159)	(8.2214464426880838, -0.74953042520482072)	(-4.6687800443497931, -1.8576761921958314)	1.0	slash	1.99264
30	M	A	M	B					M	4	0	shapes	M	4	True	51	(5.2667872571661096, -7.3704238564312377)	(2.9304811234974171, 5.6120094896761241)	(-1.5094718625325036, 4.8774040371238581)	(-7.1996982384135784, -3.676396332219289)	1.0	z	0.665635
31	M	A	A	B					A	4	1	shapes	A	4	True	51	(-7.0880961255221209, -2.8932530281685223)	(3.1782750657713219, -2.4849722437064878)	(-5.2602560160910699, 2.1588719628589743)	(4.4016656592052605, 7.2356786999700766)	1.0	z	0.679297
32	N	A	A	B	N	M	M	B	A	8	2	shapes	A	4	True	51	(4.7197938113450348, -1.2990867911392474)	(2.3193565356360146, 2.430783755654371)	(7.660740242834823, 2.4128171964813454)	(-4.7696976358683187, 7.8832002226074351)	1.0	z	1.03606
1	N	A	M	B					B	4	3	shapes	B	5	True	51	(1.5423713652240849, -4.5288559845079472)	(-4.9025736069725827, -0.70285380015079113)	(0.74706005447770707, 4.9247311570312977)	(-4.3033320684684462, 5.139701768307452)	1.0	z	1.16901
2	M	A	B	A					M	4	1	shapes	A	5	False	51	(5.5600112480516568, -2.1476861097241269)	(1.532307360029213, 4.0460395172693104)	(-4.7902432837087652, -4.0000059129767358)	(-0.41989225040579115, 7.9547085737191345)	1.0	slash	0.91192
3	N	A	N	A	B	M	B	M	M	8	6	shapes	B	5	False	51	(1.3485973035193073, -5.573065620818566)	(-8.463947821742666, 8.5667798343147865)	(-0.611063814840902, 6.2638938725986915)	(-0.20210174791620794, -0.91847016270353876)	1.0	slash	0.518586
4	M	A	B	N					M	4	1	shapes	A	5	False	51	(1.1415387770765157, 8.5977817376717738)	(-0.65411436165975445, 0.42198695306331935)	(-3.8090336178009592, -5.4591650718844962)	(7.1484805729232193, -0.94446549585867956)	1.0	slash	0.559491
5	M	B	M	B					M	4	2	shapes	M	5	True	51	(6.098577476944758, -7.6659301523207315)	(-4.0161134832927408, -7.2546549860255176)	(5.0193915377479197, 4.1544450608159771)	(-0.82411238959641597, 3.4712588785869265)	1.0	z	0.841626
6	M	B	M	B					M	4	2	shapes	M	5	True	51	(7.9209294446051359, 0.67484343991578655)	(-8.5329825906576424, 1.6567996417637421)	(7.440630763770848, -8.4455032688241971)	(-2.1854310616312125, -5.6404621110162827)	1.0	z	0.848895
7	M	B	M	B	A	N	A	N	N	8	5	shapes	N	5	True	51	(-6.2904405991985204, -4.295611797457803)	(3.6855395704698388, -6.7365447662206703)	(8.4527945482725073, -2.0682972419075192)	(6.3589009215376109, 5.7036424178358178)	1.0	slash	0.874789
8	M	B	M	A	B	A	N	N	M	8	6	shapes	N	5	False	51	(-5.9079371646625329, 0.53122297693765752)	(7.5792976308839961, 2.8327332537760253)	(-4.003650366136867, -5.4485410422223923)	(1.4668652546608953, 1.3492053298984246)	1.0	slash	1.26217
9	M	B	N	B					N	4	2	shapes	N	5	True	51	(-3.4654047034285798, 3.8995303563798362)	(5.3957639734371554, -3.2605517969525577)	(-1.2571091288559018, -3.0289075685038389)	(0.6071379560131831, 5.6669438186333121)	1.0	z	0.729835
10	M	B	B	A	N	N	A	M	N	8	5	shapes	N	5	True	51	(-4.8720112129746074, 1.9721838964114973)	(5.1592890321099141, 0.70472380149961467)	(4.6062076520384192, 8.6708765335802589)	(3.145511692475031, -6.8387037138930795)	1.0	slash	1.2298
11	M	B	M	B					M	4	0	shapes	M	5	True	51	(5.9416655826794749, -2.7690851994157102)	(5.3214901408547863, 7.0505784106072049)	(-5.5006223094736155, -3.4553573843201235)	(-1.0470010900630253, 0.88677505815844171)	1.0	z	0.864974
12	M	A	B	M	A	N	N	B	B	8	5	shapes	N	5	False	51	(6.0560512562035012, -7.3409218293684146)	(-5.2363968829438168, -7.9594441424741245)	(3.3129100188063969, -0.22920201861989931)	(-7.2560699172322636, 5.4797064091743373)	1.0	slash	1.02272
13	M	B	M	A	B	A	N	N	N	8	6	shapes	N	5	True	51	(-2.7627185959113767, -7.7982661164079241)	(4.4336531381760675, 7.9831712459079398)	(0.93842393842651362, -2.0967585008990026)	(6.522856800592729, 4.0949275596154244)	1.0	z	1.01426
14	M	B	A	M					A	4	0	shapes	M	5	False	51	(-7.3057488554941603, -5.4912178853904541)	(1.5076026483955367, 7.6936135131490531)	(-0.63032960491788437, 3.3730429061545077)	(7.3183957056966484, -7.1446393403651012)	1.0	slash	0.89984
15	M	A	N	M					M	4	3	shapes	M	5	True	51	(0.89631007642444516, -4.4914858808684786)	(6.7316684017396362, 0.3535377630840344)	(-5.9883950417370917, -6.7263485519115438)	(-1.6868305771504621, 0.84084962824240428)	1.0	z	0.679325
16	M	B	A	A	M	B	N	N	N	8	4	shapes	M	5	False	51	(8.4311268814277156, 7.4507434516300322)	(-1.6672825650076559, -2.0750156495712888)	(0.31208455538223312, 5.869087726225942)	(8.568256192875932, -2.8301985569344161)	1.0	z	1.20328
17	N	B	M	B					N	4	3	shapes	B	5	False	51	(5.2724200092416371, -5.4268399362223567)	(2.4712259431103956, 8.2405987040145092)	(-1.7146640850633448, -7.4899389196464385)	(-0.2413510154259555, 4.1414011200139154)	1.0	slash	0.684816
18	M	B	A	M					A	4	2	shapes	A	5	True	51	(-0.9370918586174799, -1.0086365882778789)	(-6.1087657198793384, 6.7041797894792534)	(7.2928540668570498, 6.2369350468460496)	(8.3390336506268739, -7.9121386291533682)	1.0	z	0.703207
19	N	B	N	A	A	M	M	B	N	8	1	shapes	B	5	False	51	(-5.7665187792534782, -2.0724582495498352)	(-1.5464101714224832, -5.1297388939310977)	(6.0083111131788218, 7.7968181489783923)	(-1.0144001513230165, 5.7562942622133519)	1.0	slash	0.82067
20	N	B	B	M	A	M	N	A	N	8	0	shapes	N	5	True	51	(1.2649886203376575, 0.16795991106464747)	(-0.2618280807617186, -8.0154218388141967)	(-7.8446368916023097, 0.18307208321665236)	(-4.7252345862306226, 3.4576802059990346)	1.0	z	1.98582
21	M	B	M	N					A	4	3	shapes	N	5	False	51	(4.9468680158912193, -8.0838555642176964)	(-6.5207135277856487, 4.8278747319245401)	(3.4440662784687071, 3.3100347227802214)	(-3.1027692501641706, -4.6693225406216081)	1.0	slash	0.84544
22	N	A	B	N	M	M	B	A	M	8	5	shapes	M	5	True	51	(4.8242208483365729, -2.4940869231072771)	(-6.7441034261701498, 2.2352225963109742)	(-1.7731954482523271, 8.4898544301128496)	(5.8350176412320565, -7.4306280244529184)	1.0	z	0.680724
23	M	B	A	A	M	N	B	N	B	8	5	shapes	N	5	False	51	(-7.1704127011842385, 5.7283332354662608)	(7.2286347858449798, -3.6630677978382646)	(-3.4465459302890924, -7.7225307714079747)	(1.0119748902472825, 0.72605992382949758)	1.0	z	1.46537
24	M	B	B	A	N	N	A	M	A	8	1	shapes	B	5	False	51	(5.9270280901025654, -2.9857556645621601)	(-1.1692738667953515, -1.6517835537359042)	(1.0673393884782616, 1.8460744981189627)	(-5.8567174332022818, -4.0508077408110035)	1.0	z	0.900341
25	M	B	B	M	A	A	N	N	A	8	5	shapes	A	5	True	51	(-5.6250647502112257, -4.8169434290447697)	(-7.0342701848906586, 2.875880471858741)	(2.1770919264496378, -7.0911470498372582)	(2.8711983537082517, -2.4583447844947202)	1.0	slash	0.716458
26	N	A	M	B	M	N	A	B	B	8	2	shapes	M	5	False	51	(-0.016230922032253403, 6.8111418923405065)	(6.8637580922359831, -4.0348301617831357)	(5.0572646125375336, 0.85081360166535625)	(-7.6203838224512133, -7.9437499773589693)	1.0	slash	0.847445
27	M	B	B	N					M	4	1	shapes	B	5	False	51	(-3.8691048059804531, 1.2094395399248974)	(5.0508397518945571, 5.5084630593961315)	(6.7408263794712333, -4.2483566874374317)	(-5.5609124025568342, -2.6457975391627269)	1.0	slash	0.765326
28	N	A	M	M	A	N	B	B	M	8	2	shapes	M	5	True	51	(-0.95113970455661612, -8.0540525938296614)	(-4.4333051641820465, 8.5143280018571943)	(3.0356191732662428, -4.633810409007423)	(8.2245077697764017, 6.5153553822086572)	1.0	z	1.22881
29	N	A	N	M					A	4	3	shapes	M	5	False	51	(-7.2299758439913973, -0.59517799307644204)	(-4.7461179470873978, 5.5781186375969298)	(6.4880600076483876, 1.7093786371220023)	(6.4050411030345913, -3.8551272931297973)	1.0	slash	0.792509
30	M	B	A	M					B	4	2	shapes	A	5	False	51	(-5.9364795434851132, -0.46528427079437051)	(1.029534746904373, 0.1817492199542059)	(4.3302817191237484, -5.1300583006152127)	(-4.183606693104597, 5.4360124960991438)	1.0	z	0.668903
31	N	A	B	M					N	4	0	shapes	N	5	True	51	(5.7376036294774888, -7.670734679296034)	(-1.9029253590058604, -6.3271457464456953)	(-4.1613180070452147, 4.8384921354410757)	(4.3832129030550071, 3.4901151112040232)	1.0	z	0.903977
32	M	B	A	M	B	N	N	A	B	8	1	shapes	B	5	True	51	(5.2961630813394418, -3.5803881804294395)	(7.3671891208970273, 0.40451967933670119)	(-7.7463305530800133, -6.8687864188904983)	(0.6689396259022633, 7.2363159293018704)	1.0	slash	2.99145
1	N	B	M	M	B	A	N	A	B	8	5	shapes	A	6	False	51	(-1.1535780656156733, -1.2164163965454771)	(1.2493943203958455, -7.6269985654107977)	(-6.575873651525141, 5.7734352647290912)	(5.8546220652469554, -2.5985106750417719)	1.0	z	1.05096
2	M	A	A	M					N	4	2	shapes	A	6	False	51	(4.8514993926980292, -0.96650552428910608)	(-0.022676562637117925, -4.388368194541604)	(-1.0049909484075803, 7.4943808427944418)	(3.494979229819549, 5.8032819545929009)	1.0	slash	102.016
3	N	A	N	M	A	B	M	B	A	8	1	shapes	A	6	True	51	(3.5843441579022777, 4.0079485320341099)	(-5.4233916065709407, 5.150573399799617)	(-8.7272941583372265, 7.9810775519953765)	(-8.6100501154955538, -1.1380731969161397)	1.0	slash	0.669262
4	N	A	N	B					B	4	3	shapes	B	6	True	51	(-0.046281572746066146, 1.4627357813636213)	(7.8060752462606047, 7.6220635001940344)	(7.7869206573568839, -0.11141704483626391)	(-6.452097252310228, -3.1839768326030837)	1.0	z	0.848077
5	M	B	A	A	M	N	B	N	A	8	3	shapes	A	6	True	51	(-0.55396111090587752, -6.2985482070607786)	(6.1605297414893361, 6.2320063083761372)	(0.81398832494057416, -0.56613401358057835)	(-7.7027870342101874, 0.713793569514376)	1.0	z	1.06703
6	M	B	A	A	M	N	B	N	A	8	6	shapes	B	6	False	51	(5.2493632131228161, -4.0188042939655624)	(0.36078710061726227, -4.9743035699217177)	(3.2745904676181183, 0.36483007577325033)	(6.3857679843775355, 6.508870294350535)	1.0	z	0.957383
7	M	A	A	B	N	B	M	N	A	8	3	shapes	B	6	False	51	(-3.8690988286374539, 4.1082199907993076)	(4.6612855197302849, -1.1402954655325104)	(7.0785037744020141, -7.9681377000048794)	(-2.3053488907452522, -1.8703197520009001)	1.0	z	0.943289
8	M	A	A	B					B	4	0	shapes	M	6	False	51	(7.989085137316895, -4.7697365337726838)	(-5.626921354807183, -3.7018246911488433)	(-7.1962250916177961, 8.0796839555343247)	(4.7917139673657658, 8.0152306969958289)	1.0	slash	0.699278
9	N	A	A	M					N	4	0	shapes	N	6	True	51	(1.7982933328741684, -1.2363666664074273)	(-8.693451282546242, 2.2576339606852596)	(-0.26798977842187455, -5.7487000205602783)	(5.9946104264554787, 8.6586956871382768)	1.0	z	1.0682
10	N	A	A	N	B	B	M	M	M	8	5	shapes	B	6	False	51	(-0.30826790214551636, 5.6556785544209696)	(5.3869323917205527, 1.4985987696128262)	(3.9670446898353511, -4.2270069521195817)	(-4.3985627450603619, -0.68042891379358394)	1.0	slash	1.17794
11	M	A	A	M					N	4	1	shapes	A	6	False	51	(-4.3748265150088157, -5.2061731848043227)	(5.6466203609688534, -0.15428586127016608)	(1.285939416204652, 5.2111710513581144)	(-7.2793697368432042, 8.1900402089884601)	1.0	slash	0.55985
12	M	A	N	A	M	B	N	B	M	8	0	shapes	M	6	True	51	(0.11815401911161061, -3.7418336377848753)	(0.44160914194861611, 0.29111408118399318)	(7.8223997528176135, 6.4433021482951816)	(-7.5804160880799669, 8.2139225533311588)	1.0	z	1.23538
13	N	B	A	B	A	N	M	M	M	8	6	shapes	M	6	True	51	(-1.4753443486694602, 2.6766796204897663)	(6.5675895206951669, -1.9108300550244675)	(5.6397293460153595, 7.3521269646896918)	(3.7452881488602277, 3.390246078242571)	1.0	z	0.918943
14	M	B	M	A	N	A	B	N	B	8	6	shapes	B	6	True	51	(-7.2568860694691324, -5.1446526865860571)	(2.0148028385132086, 6.7115791699853826)	(-0.89760305869697099, -7.4759982947820331)	(8.514305074862591, 3.5476021522161449)	1.0	z	0.768595
15	M	A	A	M	B	B	N	N	N	8	6	shapes	N	6	True	51	(7.5943842731691902, -3.3110128294997017)	(1.5122015614810049, 2.1334116647922876)	(2.208307757136426, 6.4734224177334774)	(-8.66141480461736, 7.4411776211044121)	1.0	z	1.52087
16	N	B	M	A	B	N	M	A	B	8	5	shapes	N	6	False	51	(3.3263475708624402, -1.8194004806819706)	(1.9809991932094171, 6.7947908957873349)	(3.4187099990460776, -6.6087721514944793)	(-6.4807149059075151, -4.2747815270583462)	1.0	slash	0.658624
17	N	B	N	B					N	4	0	shapes	N	6	True	51	(4.3421087977437409, 7.5653821990725127)	(-0.31977405846915552, 3.7248852908347541)	(2.4156766561113781, -1.7188222055110147)	(-7.5321630460712328, -1.2292118776423369)	1.0	z	0.725634
18	N	B	A	M					A	4	3	shapes	M	6	False	51	(-4.5616313384374365, 0.40791497387093756)	(-7.8904125300305425, -8.0222572286128191)	(5.8430677491010865, -6.0338386687530132)	(3.3648687852011072, 0.33202887368208955)	1.0	slash	0.499205
19	N	A	N	M					M	4	0	shapes	N	6	False	51	(6.3752194419287669, -2.3477662222382243)	(-7.3326668037402598, -4.1638624793846963)	(6.7331444915612835, 5.8182924626184622)	(-3.3987308699386238, 5.7819900126904997)	1.0	slash	1.07294
20	N	B	B	N					M	4	1	shapes	B	6	False	51	(-8.6453531316446188, 1.4897729121278633)	(4.3020800636209273, 0.80349064430829387)	(-6.0063749086652134, -2.1391769920426214)	(1.0408018288462131, -5.1895668422448145)	1.0	slash	0.669058
21	M	B	B	M					B	4	2	shapes	B	6	True	51	(-0.68381902001450356, 2.1516727248942438)	(-5.0123964349614996, -3.3087030427754449)	(7.3926008643746144, 1.7595696876397451)	(6.5401295296313666, -6.8234324756215621)	1.0	slash	1.61623
22	M	B	A	B					A	4	2	shapes	A	6	True	51	(1.6354678586163107, 5.8842891254280953)	(6.6932374024617154, -6.5692267285329615)	(-2.3457546069653716, -8.1730470930603172)	(-2.9232374650827948, 1.639243488458888)	1.0	z	0.751923
23	M	A	A	B					B	4	0	shapes	M	6	False	51	(-1.8846948282598781, -2.1008437570125267)	(5.3598197380203718, -3.139872989554144)	(-7.3699910181653143, 5.7766311930462564)	(7.576046413740201, 4.0481989740674855)	1.0	slash	0.55611
24	M	B	N	M					M	4	3	shapes	M	6	True	51	(-7.0376570373903995, -0.85396123640661514)	(3.9055493437974285, 7.6687993783298261)	(-5.5626834485712351, 7.3559719370983707)	(2.054123587894745, -7.6439360822145961)	1.0	z	0.789241
25	N	A	B	A					A	4	2	shapes	B	6	False	51	(6.4310075270629365, 4.8230774904609337)	(3.9715730357254131, -7.3819254610093132)	(-1.9707321676656724, 5.781021993657852)	(-8.0912882226478757, -7.1746663275005389)	1.0	slash	1.35893
26	N	A	N	B	M	A	B	M	A	8	3	shapes	B	6	False	51	(5.2442680676987727, -3.1138810044959193)	(1.4162501588555543, 3.441349881897608)	(7.9309375689042874, 7.2233804254131151)	(-7.676657254357572, 4.3794895498112343)	1.0	z	0.762358
27	M	A	B	N					B	4	2	shapes	B	6	True	51	(3.055122606152386, -4.6610524148285908)	(-2.3820529931694212, -8.7384977694925912)	(-3.7759417088433667, 1.9745280312574263)	(2.232205035052516, 4.6145408065612692)	1.0	z	0.596018
28	M	A	M	A	N	N	B	B	B	8	7	shapes	B	6	True	51	(-8.6526453178882861, -3.3187662033479972)	(5.0495872221941447, -6.061226607156164)	(-7.2096160213943783, 2.2172493320894286)	(-6.949150627410976, -6.9506051069382249)	1.0	z	0.727678
29	M	A	B	M	A	N	B	N	B	8	7	shapes	N	6	False	51	(5.7855577912866671, 7.7847603487303196)	(-2.5162463708452858, 3.7575658047968705)	(3.6222824083009186, -1.8042775512349927)	(-2.5431976251219162, -3.6018858421873299)	1.0	z	1.04803
30	N	A	N	M	M	A	B	B	A	8	6	shapes	B	6	False	51	(-5.7638364867283567, -5.390147640870369)	(8.7335032933182788, -2.9846987326407861)	(3.3148153929707096, 4.3988518394090566)	(3.0465644266933936, -1.966445759443161)	1.0	z	0.905717
31	M	B	N	A	M	B	A	N	N	8	7	shapes	N	6	True	51	(0.1509755167872413, 1.2019043824609277)	(-5.6369504776684867, -4.3723262223327515)	(8.1845783209267857, -5.557198799421446)	(2.7096473296952031, 4.6271034760753391)	1.0	slash	1.01518
32	N	B	A	N					N	4	3	shapes	N	6	True	51	(-3.7423438613660078, 4.5452007177929765)	(4.6702023757055944, -8.1787600392706903)	(-7.9189242656554697, -7.9851890118500215)	(4.4833695538939153, 2.3633720196822559)	1.0	z	0.604281
1	N	B	M	B	A	M	N	A	M	8	0	shapes	N	7	False	51	(0.9798472211922995, -6.1023379453821054)	(-5.818538244479333, 3.1380408985624193)	(4.993566847248136, -3.7386565366758591)	(1.4924226505927631, 2.446430120858901)	1.0	slash	0.786433
2	N	A	A	M					N	4	0	shapes	N	7	True	51	(7.7366183260411994, 3.7384581208862855)	(1.3149408451917015, -3.3525464739886308)	(-3.662235472336473, 5.2981565840156062)	(-6.591674961870968, -4.0148411238985533)	1.0	z	0.565744
3	N	A	M	N	M	A	B	B	A	8	5	shapes	A	7	True	51	(-7.486474185605891, 3.3212035443125387)	(-7.6667260730858366, -6.0915207095135058)	(6.5491450495275885, 1.9753670887196666)	(5.5513144747950509, -8.7113892762020591)	1.0	z	0.679208
4	N	B	B	A	A	M	N	M	A	8	3	shapes	A	7	True	51	(-7.5324761130955551, 5.3397239477949352)	(-2.6744649063370272, 5.5136013015565322)	(8.1627984668335891, 7.6661366715443258)	(1.5715498381430741, 6.4134111937378933)	1.0	z	0.77707
5	N	B	B	A					N	4	3	shapes	A	7	False	51	(-1.0438297075845586, -1.3688971607158056)	(-3.0171957670922609, 3.2055991608311594)	(2.300807490711211, 5.1494133388177392)	(5.5661534791609704, -0.22522870096848813)	1.0	slash	0.620602
6	M	A	M	N	B	N	A	B	A	8	2	shapes	M	7	False	51	(-6.764816414520153, 5.511617473232489)	(-8.3219084584636818, -8.2414638416541592)	(-5.5801035782453638, -1.6260329219930441)	(3.3526081159512735, -1.3820189310367628)	1.0	slash	0.586872
7	M	A	M	B	A	N	N	B	M	8	6	shapes	N	7	False	51	(8.5722760655194783, -8.4623156190511164)	(-2.4142624173098, 1.4725049623719073)	(1.9425063106553058, -2.272087461453113)	(-5.805297927401714, -1.8238961377973766)	1.0	z	0.840007
8	N	A	N	A	M	M	B	B	A	8	3	shapes	A	7	True	51	(-0.70592952836293854, -6.9364663157070545)	(-6.5398032506667061, -3.7452871508549048)	(6.4010048677035449, -4.5360833601143513)	(-4.0486046840001277, 7.9602947114937237)	1.0	z	0.602173
9	M	A	N	A	N	B	B	M	M	8	0	shapes	M	7	True	51	(8.3777503283546757, 0.38219889701622023)	(6.635112103774425, -8.0121935154466186)	(-1.207707335138025, 6.8553253450967286)	(0.19591489872169099, -2.8754879120415477)	1.0	slash	0.827277
10	N	B	N	M					M	4	3	shapes	M	7	True	51	(-5.5461368148594596, 7.5026939397587178)	(8.7322434316770341, 7.4236101979855604)	(-2.8430697881000633, -3.6128741014496653)	(7.4876182268973572, -8.2745180209562221)	1.0	z	0.54302
11	M	A	N	A					M	4	0	shapes	M	7	True	51	(-3.2352810529213736, 5.6828111086384947)	(1.2058846585934884, 4.6117189067295747)	(8.4627921933196113, -0.71880436708608642)	(-2.9179748133313872, -5.8629329280504967)	1.0	z	0.570586
12	M	B	M	N					B	4	1	shapes	B	7	True	51	(4.9351096625181139, 7.623950595833243)	(-6.6738646254404346, -5.4557893326986209)	(0.90515000637050669, -5.1153302722601079)	(-4.2627797562762915, 3.5156881511585301)	1.0	z	1.52231
13	N	B	M	B					M	4	3	shapes	B	7	False	51	(-0.58182884067655394, 4.8724967187112576)	(-5.4630567826160661, -2.2756171842895085)	(7.3951988387923571, 0.81600027103255179)	(6.9562148036608171, -8.3327520625962439)	1.0	slash	0.715177
14	M	A	N	N					N	4	1	shapes	A	7	False	51	(7.5411420913792426, 7.2145596107982808)	(1.8811399043247459, -2.9276217349204234)	(-8.5790947305878387, -2.4396309966609806)	(-3.3745011687802515, 5.1213828903668794)	1.0	slash	0.813375
15	M	A	A	M	N	N	B	B	A	8	6	shapes	B	7	False	51	(-3.5658090768625739, 4.1344313141084701)	(7.6219772554392797, -8.5732460938212967)	(4.3567571067137134, 3.7403462000963827)	(-5.0861304503754727, -8.5662329644387754)	1.0	z	0.855108
16	M	B	B	A					B	4	2	shapes	B	7	True	51	(-0.43841958416345506, 2.0642866332661445)	(2.9997406131990587, 4.5087384991228241)	(-7.4841740307315616, -5.0616345602961204)	(2.1392320335813455, -6.9618516126881582)	1.0	z	0.844963
17	N	B	A	M					B	4	0	shapes	N	7	False	51	(5.714211856638002, -8.3993274343680877)	(-4.9640284444014453, 1.8120994230011434)	(5.7760760824317376, 1.043405753667848)	(-4.0797911719459581, -4.7828341010568991)	1.0	slash	0.692544
18	N	B	N	B	A	A	M	M	A	8	5	shapes	A	7	True	51	(7.455807298706457, 8.1079814497845533)	(5.475078345596085, 2.3381899556435783)	(-8.1797554475247019, -3.817148577248509)	(-4.2715103988234064, 5.2331844133073222)	1.0	z	0.748222
19	M	A	B	N	N	M	B	A	A	8	4	shapes	N	7	False	51	(2.2431998360142718, 6.9555097548842735)	(7.7936234806347713, 1.3623422342015825)	(-6.3208351301542862, 8.2798039621636477)	(-5.3193580095866393, 3.5918467403418557)	1.0	slash	0.857529
20	N	B	N	M	B	M	A	A	N	8	2	shapes	N	7	True	51	(-4.6420814220832058, -6.2311706050614291)	(-0.7054474148787051, 3.3209013375469691)	(0.4400355727393741, -4.2203559143866194)	(5.7083208996566697, 8.329109150335249)	1.0	slash	0.776256
21	N	A	A	B	N	M	B	M	B	8	0	shapes	N	7	False	51	(-3.5119067102663291, -5.2888107317293125)	(2.3490440258198699, -3.1170301207975148)	(-6.6643875087059214, -0.63656681252461311)	(7.3710646054798019, 4.8719497412016981)	1.0	slash	1.19757
22	M	A	A	B					N	4	0	shapes	M	7	False	51	(4.0417776327142576, -8.4558578828256543)	(-3.1041822158027275, -8.5473854246145713)	(4.9912207936618689, 3.2595610390010066)	(-1.5523086430785042, 4.7237119646504429)	1.0	z	0.780441
23	N	B	A	N					M	4	1	shapes	B	7	False	51	(5.2156457669389287, 7.2541551204479475)	(-1.8698675328198719, -8.4866102402392976)	(7.384321906547747, -7.689890205194188)	(-1.7830266225679523, 1.5546113386684226)	1.0	slash	0.714471
24	N	A	A	B	B	M	M	N	A	8	5	shapes	M	7	False	51	(8.3792609576748127, -2.586341555888672)	(7.1814404626473873, 1.9767528986695488)	(0.84926159853486105, -2.4906162584778535)	(-6.3121680602965338, 0.10346148122233778)	1.0	slash	0.662795
25	M	A	M	N					A	4	1	shapes	A	7	True	51	(-8.4205764379215982, 8.0264365448815731)	(6.0762567808119066, -7.2957147957031561)	(4.4654034679451335, 3.184852411850553)	(-0.63723588020006794, -0.11938342417997383)	1.0	z	0.697622
26	M	A	A	B	B	N	N	M	A	8	2	shapes	A	7	True	51	(0.19061168817346719, 7.0523713857048538)	(-6.3015827807804303, 5.1257734160457566)	(-0.38391482797688958, -3.853301644292257)	(0.77816047960468104, -8.2624964051532999)	1.0	z	0.84158
27	M	A	M	B					A	4	1	shapes	A	7	True	51	(4.8870595810894226, -7.5977844356248445)	(-1.5611541519459537, -5.4456756320248392)	(8.2044275777042692, 5.3323696819083839)	(-4.64228594603538, 6.7553587373326955)	1.0	z	0.554946
28	M	A	B	B					N	4	2	shapes	B	7	False	51	(7.3100955737723261, -6.2427967068671748)	(-4.221848553918786, 0.47287962836658792)	(7.5122342328675025, 5.9825477399289575)	(-5.7468513466148545, -5.5506405369917218)	1.0	slash	0.75077
29	M	A	A	M	N	N	B	B	M	8	7	shapes	B	7	False	51	(-4.9083540360999951, 5.904224281889265)	(7.0160705162500925, 0.038503736392028642)	(-5.5030973600465458, -8.1201285581120501)	(5.3803256874958354, -5.9408176584772274)	1.0	slash	0.782905
30	N	A	M	B	B	A	N	M	N	8	0	shapes	N	7	True	51	(-6.3668745051282407, -0.78668598113617527)	(-1.7525576791916411, 4.8658190380756761)	(-2.5741579365227665, -4.5123512121143206)	(0.94659424685242399, -1.945905906705983)	1.0	slash	0.900054
31	M	A	A	N					A	4	2	shapes	A	7	True	51	(-5.9722345650817852, -1.1543652143596974)	(-7.1359413404855996, 5.9396089846819624)	(0.049332679845631944, -8.5438253842141929)	(3.8138634386986734, 2.106440655779906)	1.0	slash	1.01567
32	N	A	M	A					N	4	1	shapes	A	7	False	51	(-3.7713287946367311, 1.0097706069689814)	(-0.45298905786968824, -6.405044389054245)	(8.4244320889614883, 4.0058494597091627)	(5.5344559563497278, -5.1248060575282031)	1.0	slash	0.991253
1	M	A	B	M	N	N	A	B	M	8	3	shapes	M	8	True	51	(5.1757607261563603, -1.6019204391740764)	(-1.3478861813639869, 6.2540052531799688)	(4.7545077654526455, 6.920558909517819)	(-2.8251648786791295, -0.94443858198701047)	1.0	z	0.589531
2	N	B	B	M	M	N	A	A	A	8	0	shapes	N	8	False	51	(2.1277278564409379, 6.3222963405213406)	(-2.041883806872911, 8.6027444892739489)	(6.2989450275450363, -7.9633431965994861)	(8.6738936094347352, -2.2518309413807049)	1.0	slash	1.25152
3	N	B	M	A	B	A	M	N	M	8	2	shapes	M	8	True	51	(-5.277756623428898, 7.1330030064051382)	(6.2413953435028731, 5.0634720968039151)	(-1.8967172651642858, -8.6955834811655457)	(-0.15094753255891113, 6.3656531728349961)	1.0	slash	1.08236
4	N	B	M	N					A	4	2	shapes	M	8	False	51	(-3.2874919657739534, -6.6939877257215326)	(1.3041759665609831, 2.2064149277675167)	(3.9720620471233463, -6.6242097583785391)	(-3.6542994708940864, 1.9849691352640377)	1.0	slash	0.781031
5	M	A	N	A					A	4	3	shapes	A	8	True	51	(7.2501990284793223, -2.9312781678578261)	(-6.2293924272525594, 6.0672799056290323)	(-4.208578085008015, -7.5115279211239896)	(5.9405934827787004, 2.010742485144533)	1.0	z	0.495587
6	N	B	B	N	M	M	A	A	M	8	2	shapes	B	8	False	51	(0.63088989580733035, -4.955796240641865)	(2.280275529373446, 8.0938014894197288)	(-0.98909832726462721, -0.42227563859382755)	(-7.2911958288562246, 8.5849384683114565)	1.0	slash	0.775755
7	N	B	B	A					A	4	3	shapes	A	8	True	51	(4.8128859901361274, -8.1285122975171493)	(2.2083666698510065, 5.907253950702648)	(-1.584265278807778, 8.5828930500621965)	(-2.9927044036658046, -4.4828807609218266)	1.0	z	0.634586
8	M	B	B	M	N	N	A	A	B	8	2	shapes	B	8	True	51	(0.71470983408249289, 8.0249898583335231)	(-1.254920192310454, 3.329752134368217)	(2.5942759062289333, 1.4654890578899753)	(-0.48820141598618605, -5.0926881545102383)	1.0	z	0.593784
9	N	B	B	A					A	4	3	shapes	A	8	True	51	(-4.150572643642044, 3.3102431801681611)	(8.2983440130614738, -7.6527944158965475)	(-8.4136012058176401, -5.8176158559746529)	(5.1949811628090785, 0.94974345923844439)	1.0	z	0.874307
10	M	B	B	M	A	N	N	A	B	8	3	shapes	M	8	False	51	(7.9240861544234313, -5.3749115959928142)	(-6.3884162031705607, 3.0839487452448466)	(-2.8831758163619146, 8.0220551871571288)	(5.0821366726972421, 6.9869685832061155)	1.0	slash	0.533877
11	N	B	B	A	M	M	A	N	B	8	2	shapes	B	8	True	51	(-6.7395628171224686, -2.5645104570715755)	(6.8191079751003514, -4.1000512575776558)	(-1.114796372856321, 3.2975429683977264)	(-7.4691722394515567, 8.0964576575169005)	1.0	slash	1.31202
12	M	A	A	M	B	B	N	N	M	8	3	shapes	M	8	True	51	(-5.2968482445118408, 4.5912801807614283)	(-2.7442592126017482, -1.8437778032656897)	(-4.3045568056387014, -6.327727457969095)	(7.955992106448555, 5.93138875)	1.0	z	1.27701
13	M	B	M	A	N	A	B	N	B	8	3	shapes	A	8	False	51	(5.6468012252856923, 5.9022792928217118)	(6.0232945544895831, -1.0352986016517738)	(-1.2457027128450147, -0.57239339513963472)	(-4.5017896084391111, -3.0622118134374183)	1.0	z	0.761069
14	M	B	M	N					B	4	3	shapes	N	8	False	51	(-5.4945630109588333, -5.8059797948140286)	(5.8214223521246868, 2.1680214393063224)	(5.7286333059986081, -7.8705798636737647)	(-1.0682446888382868, 7.178966701736071)	1.0	slash	0.602305
15	M	A	N	M					M	4	0	shapes	M	8	True	51	(1.610469704024883, 4.2761390242529025)	(-3.8161449765664575, -2.604568978730283)	(-7.3164183511474903, 6.675160128404622)	(7.8589342663957318, -8.2427336451267355)	1.0	z	0.666618
16	N	B	M	M					N	4	0	shapes	N	8	True	51	(4.7429455463587882, 8.2955460671625616)	(5.1402519268479558, -0.32223189763368687)	(-7.7270321169278029, 7.9225596467386943)	(-6.4169816287388386, -0.9817963951386357)	1.0	slash	1.38167
17	N	B	N	M					A	4	1	shapes	B	8	False	51	(-4.1341992041818134, 4.0172883970985431)	(7.8973847796449377, -6.7030501609362885)	(0.44255695736389988, 4.2756168314145953)	(-6.2186336676344149, -0.38431631691735291)	1.0	z	0.747294
18	M	A	M	A					N	4	1	shapes	A	8	False	51	(2.0092940688633636, 0.47945036685421805)	(-5.2455452846994941, 4.1175544432509312)	(-0.82421120063686359, -5.1514068532328716)	(7.4749349923317894, -2.4868526374438389)	1.0	slash	0.652824
19	M	B	M	A					M	4	2	shapes	M	8	True	51	(-5.2986291471645055, 6.4847509158280374)	(5.8994090549759886, -0.53083284914702666)	(0.3093735305448746, 6.2609143123159559)	(-7.3279379341651065, -7.9940206683180035)	1.0	slash	0.619289
20	M	A	N	M	N	B	B	A	M	8	4	shapes	N	8	False	51	(0.20477868866055893, 5.0184743532248319)	(2.8514541772015569, -5.7493859294004555)	(7.2561010027500821, -3.3315535878520341)	(6.6391412552733016, 3.2607296993054948)	1.0	slash	0.802233
21	M	B	B	M					N	4	3	shapes	M	8	False	51	(5.3992356185145773, 8.3507935557395143)	(6.2950503778655698, -5.9740610511421366)	(-6.9220054162824063, 7.6051563757267573)	(-1.3898489735237476, -1.7868695765557749)	1.0	slash	0.755952
22	N	B	N	M	M	B	A	A	A	8	4	shapes	M	8	False	51	(1.5240003647862608, -7.7011714963826208)	(-2.9237600386759395, -2.1329472217114809)	(-6.4515694521932447, 3.8527363382933206)	(-1.7784486550337713, 7.0233855881153708)	1.0	slash	0.83422
23	N	B	B	A	N	A	M	M	N	8	3	shapes	A	8	False	51	(-2.8459140095117395, -8.2187899105396767)	(5.7565203922935186, -7.3217244927208114)	(6.1540903482870934, 6.9225632445384289)	(-5.685753144343261, -3.4279228529612409)	1.0	slash	3.22937
24	M	B	M	N					B	4	0	shapes	M	8	False	51	(6.016626949351279, 0.30887025313047545)	(-2.8112105721252538, 1.8213103729725919)	(3.6903703472024176, -6.5578258611386406)	(-0.14749803806722817, -1.2059742024000251)	1.0	slash	0.648624
25	N	A	M	B	N	B	A	M	M	8	2	shapes	M	8	True	51	(-7.5362222359243471, -4.1193826401975286)	(-6.1410851490390543, 4.9697810982740407)	(6.1208046085850434, 0.88856329198528705)	(0.90333757148168736, -5.9520801748245589)	1.0	z	0.994955
26	M	A	A	B					M	4	0	shapes	M	8	True	51	(6.5725637323096588, 1.9492763240561413)	(2.2391000219215194, -0.28957314161970338)	(-2.1867770820654169, 7.6785160554213547)	(-4.8602538799071064, -1.8207152774707822)	1.0	slash	1.49175
27	M	A	N	N	B	M	B	A	B	8	5	shapes	M	8	False	51	(4.6505421221410117, 6.4817823891278934)	(-3.9899033089191622, 4.1728329143382048)	(-4.7635122368565561, -1.6892408969111896)	(6.8658065467913065, 0.55390054740899863)	1.0	slash	0.787643
28	M	A	M	A					A	4	2	shapes	M	8	False	51	(-2.5739886816889346, -2.6979071475421303)	(2.5328677302437939, 7.0393369262410665)	(-7.0288088354488014, 0.27145671517320302)	(4.0695336086768847, -3.3795049159510331)	1.0	slash	0.997127
29	N	A	B	N	B	M	A	M	N	8	3	shapes	N	8	True	51	(-3.7740672451001531, -6.8820633247122664)	(0.89886302108158667, 2.4728418089509798)	(-7.7961165558903796, 5.6115991887852559)	(5.4711842951762311, 3.8983621754731157)	1.0	slash	1.2658
30	N	B	A	N					B	4	1	shapes	B	8	True	51	(-1.3385884753140305, 6.5881947882537499)	(0.94625195440581855, -2.760649168532634)	(-1.1879855519920204, -7.0995790212802383)	(7.0949187223453158, 2.3888215490521674)	1.0	z	0.668705
31	M	A	M	B	B	A	N	N	B	8	3	shapes	B	8	True	51	(-6.0332394938868497, -8.0547003985024386)	(-3.1070257451498708, -0.89025997691446523)	(4.608773737103494, 7.815402898356929)	(-4.7738735130158076, 2.8092503709832517)	1.0	slash	0.770103
32	N	B	N	A					B	4	2	shapes	N	8	False	51	(2.0929769724448306, 1.5934097725027154)	(-5.9714525721694951, -4.4098993066545535)	(5.0931356124643656, -8.1786378361461232)	(-3.6838815895844075, 1.4972210471601191)	1.0	slash	0.679755
