TrialNumber	stim0	stim1	stim2	stim3	stim4	stim5	stim6	stim7	stim.probe	ttl.stims	corr.num	trial.type	stim.corr	block	match	Subject	stim.pos0	stim.pos1	stim.pos2	stim.pos3	ran	resp	RT
1	M	A	A	M					A	4	1	shapes	A	Practice	True	52	(0.20433836188523102, 3.5402260520137041)	(-0.05887163306617893, -5.0741402056732223)	(-4.7572808146625825, 5.4924326844088665)	(3.8279559667724108, -3.8928924243539527)	1.0	z	5.66643
2	M	B	N	A	N	B	M	A	M	8	6	shapes	M	Practice	True	52	(-5.0482225896985753, 4.4059418182022689)	(-6.9560586092520289, -4.223702206713412)	(2.866606436161371, 3.5519076254636452)	(3.7424542268208381, -4.938427957693035)	1.0	slash	5.62177
3	M	B	B	A					B	4	3	shapes	A	Practice	False	52	(6.1817895897056907, 5.7730801821303057)	(4.9782560759240759, -1.8291570649215689)	(-2.8350468701535672, 1.518498711720687)	(-1.6396758709766113, -7.8237805760083852)	1.0	slash	6.56302
4	M	A	B	M	A	B	N	N	A	8	1	shapes	A	Practice	True	52	(3.3673179440424956, -3.0667450766605198)	(-0.37018827255834275, 6.3333955831721607)	(6.0950476860713341, 8.5567541362412953)	(-7.2606661607279683, -5.1463765893249498)	1.0	z	2.4358
5	M	A	A	M	N	N	B	B	B	8	2	shapes	A	Practice	False	52	(-6.8526002486462891, -5.9022068169798363)	(4.7163529720871331, 5.9586815262994257)	(-6.0013534453404001, 3.4326792819867666)	(7.2683976894669016, 2.4843751531405953)	1.0	slash	2.79939
6	M	A	M	A					N	4	3	shapes	A	Practice	False	52	(4.1841427636556467, 4.636100502675788)	(-0.56982256629998496, 4.1668606993261541)	(4.3648037887125319, -1.5924651027316887)	(-6.98494114883575, -0.9225490241928771)	1.0	slash	2.63931
7	M	B	N	A					B	4	1	shapes	B	Practice	True	52	(7.2207638519505313, -3.8901820298954215)	(2.0230486830568299, 3.3900149700359492)	(-3.3962292363908411, 8.3101762482572319)	(-1.3523325781948206, -1.9662418394542014)	1.0	z	2.09694
8	M	A	B	A	M	N	N	B	N	8	4	shapes	M	Practice	False	52	(-2.0926177583329375, -5.5083068356406812)	(5.3390783195571476, -3.9332251805351532)	(-7.0680308608664957, -8.6477310775498442)	(1.2377604347162645, 7.2900764535466251)	1.0	slash	2.09568
1	M	A	B	N					N	4	2	shapes	B	0	False	52	(-8.1131927071496222, 3.8079203452965871)	(0.51685590562548533, -6.9255149692202798)	(4.7573921129360972, 4.1719947710548393)	(-5.4510919623593033, -1.5119557209904277)	1.0	slash	1.80073
2	M	A	N	A					A	4	1	shapes	A	0	True	52	(7.7822891254945503, 2.6426805642116928)	(-4.9774079738602088, 2.9628179428703607)	(-4.2984445222659735, -5.6385674808415551)	(6.9361620626867495, -2.1848115659991247)	1.0	z	1.2187
3	M	B	M	B					A	4	2	shapes	M	0	False	52	(6.0989266165399947, 2.8411542094936237)	(-8.686135295208679, 1.2228156849924989)	(5.4790881764990473, -1.307416358881528)	(-1.2691055068399741, -1.7758920389703992)	1.0	slash	2.25646
4	N	A	M	B	N	M	B	A	B	8	0	shapes	N	0	False	52	(6.0325972293710901, 7.2286729115614374)	(0.42819719568865899, -3.0374547848701567)	(-7.9878983272614565, -5.1190715461286525)	(-6.1558089819435526, 3.4513399076300235)	1.0	slash	0.761952
5	M	A	M	B	N	N	B	A	B	8	2	shapes	M	0	False	52	(-4.5949857939869352, -1.6292203006885577)	(2.96876314703138, -0.040127499298412417)	(-7.0755122459789064, -7.1726645083456075)	(8.3008676385037852, -1.5253197427149301)	1.0	slash	1.25963
6	M	A	N	M					A	4	0	shapes	M	0	False	52	(7.1117863241944086, 8.7232408787827467)	(-3.1546175434402963, 6.4437106249374292)	(-4.3612379543847268, -4.7921804774365331)	(1.3680731414822453, -7.1628229913231785)	1.0	slash	0.631151
7	N	A	N	A	M	B	B	M	N	8	2	shapes	N	0	True	52	(7.9806437643725907, 1.5696874510791581)	(-3.6766820792056238, -3.4015590123099697)	(8.4469695870716848, -5.8396814236872885)	(-5.9336730873120231, 5.4826838871744421)	1.0	slash	0.9424
8	N	B	M	B	N	M	A	A	M	8	1	shapes	B	0	False	52	(-6.8259915592706166, 6.3113554976583135)	(-7.2784933164295902, 1.5679364516163456)	(6.3897450949314862, -1.0535889207078402)	(0.85528727738164001, -3.7551879761178562)	1.0	slash	0.892013
9	N	B	A	N					N	4	0	shapes	N	0	True	52	(-1.844675273750588, 3.8983447383577907)	(-3.4530486864677972, -0.10602493752478104)	(6.6466097017231842, -5.9882349924480014)	(7.0278724072797072, 3.624611072829925)	1.0	z	0.836237
10	M	B	A	N	A	M	B	N	A	8	2	shapes	A	0	True	52	(2.1553396648344503, 3.774152735850139)	(6.9507873802278866, 8.2196544263207585)	(-3.026855185013658, 7.913433751796255)	(7.9164233189466877, -3.8329978707052321)	1.0	z	0.889315
11	N	B	A	N	A	B	M	M	A	8	2	shapes	A	0	True	52	(-3.4735705825739212, 8.4725896712826376)	(-7.3951281406150127, 3.7232110370950853)	(-5.3450084363390591, -1.7669531985214588)	(3.1842956206547104, 3.8870201067971024)	1.0	z	1.1088
12	N	A	B	A	B	N	M	M	B	8	4	shapes	B	0	True	52	(-7.2085388450205841, -1.993610630370009)	(-2.2964463580137595, -4.0304043899609105)	(-6.0865969366656385, 5.6004739691581076)	(3.9045526597435529, -1.6662043945440805)	1.0	z	1.94124
13	M	B	A	A					A	4	2	shapes	A	0	True	52	(-5.2934068948376467, -8.3857646107571373)	(8.1318734226527596, -0.51848119519826952)	(-6.9653571870782782, 6.6480417660131792)	(6.5150007972699129, 5.4825102814976905)	1.0	z	0.816748
14	N	A	A	N					B	4	0	shapes	N	0	False	52	(-6.758748465472971, -5.8260787201942748)	(4.128192338087068, -7.0344916278444876)	(-2.2747779075079286, 8.5264118512438678)	(2.7554741556332818, 0.28268996632590948)	1.0	slash	0.688388
15	M	B	A	N					B	4	1	shapes	B	0	True	52	(0.19027628830768073, 7.2667072750143973)	(-5.4355338489806595, 3.7746815553739914)	(-6.9830653427686542, -5.5888696119005239)	(8.5483322237093731, -1.3480835615917952)	1.0	z	0.727916
16	M	A	A	M	N	N	B	B	A	8	2	shapes	A	0	True	52	(2.0969712178601494, -1.0842530080014479)	(6.3688122862081311, 6.4482783564721746)	(-1.7878631581459095, 0.31778907059957007)	(1.1060804318738597, 7.1362797200130217)	1.0	z	0.761123
17	M	A	B	A	M	B	N	N	N	8	5	shapes	B	0	False	52	(7.4851596997648926, 5.9832991739320089)	(-3.4203502846397305, 5.1804555767488001)	(7.8438845673543014, -1.7556578595351287)	(-1.0122639640386097, -3.6643467897355295)	1.0	z	1.21882
18	M	A	A	M					A	4	1	shapes	A	0	True	52	(-6.883683281518878, -7.9716621661587554)	(5.344029974139449, 3.8677889794327704)	(-2.9894081747970311, 1.0385898702837988)	(2.8660061734772864, -0.3885860922532558)	1.0	z	1.49465
19	N	B	A	M					M	4	2	shapes	A	0	False	52	(0.27827651332667536, 6.4034000638358268)	(-1.5094709025359254, 2.4875297447752001)	(-0.62703061716146635, -3.8003379933321231)	(8.1626947785777766, -5.0445542090933362)	1.0	z	1.03864
20	M	B	B	N	N	A	A	M	M	8	2	shapes	B	0	False	52	(-6.0238134013363078, 8.3522555276955295)	(0.82200457048996256, -3.345757444221487)	(-7.7238636666312619, 0.86925129758505726)	(5.4476738084088741, 5.1853985198805006)	1.0	z	1.91412
21	M	A	B	N					A	4	0	shapes	M	0	False	52	(-7.389248765843929, 5.7332764986212812)	(3.1822267833752793, -4.9818739488454522)	(-4.0175894700598169, -4.9205143031638077)	(8.4553675910643058, 0.1717203287989566)	1.0	slash	1.21319
22	N	B	B	A					N	4	0	shapes	N	0	True	52	(-7.4320165641093503, -8.3758159245386583)	(8.0044723049805064, -1.7199969076999677)	(-8.1262816384585737, 0.53162057669215201)	(5.6024529609379883, 5.3654686343604627)	1.0	z	1.11745
23	N	B	M	M					M	4	2	shapes	M	0	True	52	(-3.0469375200033602, 8.0171468967550261)	(-4.3566910950154023, -5.9184378014587349)	(7.8647519341113856, -0.59338622915573502)	(3.288049101564912, 4.8524916300948817)	1.0	z	1.50483
24	M	A	N	N	B	A	M	B	N	8	3	shapes	N	0	True	52	(-6.487666408607593, 6.8941297822872638)	(-6.1593244736219299, -2.7850783881192775)	(6.7482620397504114, -5.592934141908553)	(7.1528201284778152, 0.56513677126785744)	1.0	slash	1.2779
25	M	A	M	A	N	N	B	B	A	8	0	shapes	M	0	False	52	(-8.6529418528125408, -5.1593032351076307)	(-5.1569003579422388, 7.7571355129664177)	(0.42803504677558912, -1.558327572561609)	(-6.0812629982634814, 2.6951754308482538)	1.0	slash	1.7858
26	N	A	M	N	B	B	M	A	B	8	4	shapes	B	0	True	52	(-6.351638847015769, -5.9696310416052949)	(5.0472717715103634, 2.1812676748457953)	(-4.1802335270390349, 2.7846887467079302)	(0.59809022215084973, 5.4124056645802696)	1.0	z	1.1536
27	N	A	N	B	A	M	M	B	A	8	0	shapes	N	0	False	52	(-8.4617059672529464, -5.8372039535640861)	(1.4336301026547549, 2.4403313288965442)	(6.962941434632631, 0.8329404799292206)	(3.0215292822377027, -5.0263088691203803)	1.0	slash	1.09502
28	N	A	A	M					M	4	1	shapes	A	0	False	52	(2.0585595291616858, -4.8832903177489602)	(-5.675709630906816, 0.0052695629781265296)	(2.818647716197944, 8.093267718873296)	(-1.9398564512438501, -4.5301784692909592)	1.0	slash	0.940953
29	M	A	A	M					A	4	2	shapes	A	0	True	52	(2.7007605111206132, 2.6996680179979737)	(-8.1053175461474307, -4.0006549920315697)	(6.1792630387344598, -0.98889350199443893)	(-4.5656900201070343, 1.195876411463157)	1.0	z	1.17852
30	M	A	N	M	A	B	N	B	B	8	5	shapes	B	0	True	52	(-3.8898302560048936, -2.0817836852007439)	(0.087521064037659357, -0.1956004371341713)	(2.0144577855380117, 8.2028566191909427)	(5.237804346355647, 2.4865547343710244)	1.0	slash	1.12234
31	N	B	M	A					N	4	1	shapes	B	0	False	52	(-8.1065975705827498, -5.9155959965239227)	(-8.6224664354140241, 4.3020712022709908)	(5.978997191034324, 6.5948382488342752)	(2.8184283193559736, -3.7821688817196195)	1.0	slash	1.32177
32	N	A	N	B	A	M	B	M	M	8	2	shapes	N	0	False	52	(7.4331228659412538, -3.9775330583736075)	(2.8804812306316396, 2.5656354152592176)	(3.2016746201112625, -7.4390269003271161)	(-3.1678206399239173, 1.0200693266217264)	1.0	slash	0.677742
1	N	A	A	N					M	4	0	shapes	N	1	False	52	(7.1415860366841262, 4.9427907324538634)	(-1.7980089995246811, 7.0734633114388661)	(7.1858343824501212, -7.5552941245552896)	(-8.5782572003619606, -0.95244154466310071)	1.0	slash	0.898742
2	M	B	N	B	M	A	N	A	B	8	4	shapes	M	1	False	52	(-3.5052103855201597, 7.739821666704529)	(4.3542204096228954, -1.9323833144756728)	(-0.51818982292236804, -8.4332608448863535)	(-7.478379795734142, -7.2377406056573079)	1.0	z	1.23237
3	M	A	N	M	A	B	B	N	A	8	0	shapes	M	1	False	52	(-2.9564119826880431, -4.6870886463841526)	(6.1672389935935374, -6.6763709307238734)	(-3.2646526030087415, -0.40156684261458864)	(-5.7676362675065924, 7.7701252305512654)	1.0	slash	1.92395
4	N	B	B	N	M	A	M	A	N	8	2	shapes	B	1	False	52	(-2.819457039782101, 5.6109652660497833)	(7.0230294170296705, 2.8827977121995563)	(-1.4739021750926353, -5.8102147778250348)	(-7.783778946812884, 6.0397850339812464)	1.0	slash	1.11925
5	M	B	A	N					B	4	2	shapes	A	1	False	52	(6.8077250476323865, -2.8118057532283416)	(-0.71021999175138895, 7.3785331240118275)	(-4.2770738499771372, -2.3080658805034791)	(8.334466073065677, 3.9606067745688769)	1.0	z	2.03315
6	M	B	A	B					N	4	0	shapes	M	1	False	52	(3.9474792909146359, 3.4557057546272514)	(-7.9600210151016828, 2.5450798672214034)	(-0.5336597542172381, -5.8441378257072643)	(2.611273079879096, -2.9483045172603122)	1.0	slash	1.80539
7	N	A	N	M					A	4	1	shapes	A	1	True	52	(2.1540910964737474, -2.0338329850168275)	(-2.6979735209589482, -4.0491702810013868)	(8.2754745580308082, 6.3028940898627308)	(-1.8028381595788341, 4.9709500562434972)	1.0	z	1.14065
8	M	B	M	B	N	A	N	A	A	8	7	shapes	A	1	True	52	(8.4441291777866745, -1.843053453838678)	(-5.3607696536366447, -3.4488328612998256)	(0.17075520190706328, 8.0368147132457501)	(6.0529112507144927, -5.7414382792229492)	1.0	z	1.0533
9	M	A	N	A					N	4	0	shapes	M	1	False	52	(-1.6126560872726774, -6.7676679776842441)	(-3.2904182268410471, 6.8215705410901428)	(0.1250037121208063, -1.7467757454980655)	(5.8533145973355918, 4.2507129877693117)	1.0	slash	0.596059
10	M	A	N	M					B	4	3	shapes	M	1	False	52	(-4.4046338166535222, 6.1696975043186963)	(1.9520100360229264, -2.6282647878686021)	(5.1728529994939088, 1.1638641076405438)	(-2.2400687398468797, -5.9459966548782814)	1.0	slash	1.47102
11	M	A	B	A	B	M	N	N	B	8	2	shapes	B	1	True	52	(-4.860453644060633, 1.0063490128677124)	(-1.304939586371141, -3.6145733691068287)	(-4.150900135957599, 7.6160678433229734)	(8.421910201992528, 1.6889480505807093)	1.0	slash	0.986824
12	N	B	M	A	B	A	N	M	N	8	6	shapes	N	1	True	52	(5.2148587735772214, 0.35180121998259217)	(-5.4701623814986551, 0.099019672844651296)	(-4.316087694217531, -4.4323768840086935)	(-1.467281535517535, 5.3365482086252847)	1.0	z	1.22642
13	M	A	N	M					A	4	1	shapes	A	1	True	52	(-1.7216827958127769, -4.0532833072279981)	(1.4854836227043435, 7.4244090926967345)	(-8.735414487428887, 0.12463450558048095)	(3.3081062508902974, -3.2188020468328906)	1.0	z	1.1744
14	N	A	M	N					N	4	3	shapes	N	1	True	52	(3.9170274938289307, 3.1670866431581484)	(-7.4669094803178373, 2.9718190934987785)	(6.652414773662132, -1.5787210405132486)	(-1.4338884285682196, -7.1449808994003483)	1.0	z	0.950232
15	N	A	M	A					A	4	3	shapes	A	1	True	52	(-2.4251057615190303, -3.3561804034984295)	(7.236348294487108, -6.6768224078855125)	(-2.4132470909340871, 5.0246081822562303)	(5.6249458461603918, 4.9981809770187553)	1.0	z	1.04123
16	M	A	N	N	M	A	B	B	B	8	6	shapes	B	1	True	52	(-3.6266656201833873, -2.5179644619583144)	(6.3229144093894529, -2.892716183119254)	(4.2976621614328128, 7.3401631195867942)	(-1.4862214176454813, -7.9011775837361053)	1.0	z	0.58681
17	M	B	N	B	M	N	A	A	M	8	4	shapes	M	1	True	52	(-8.446756396152967, -3.4767169804214442)	(3.3428347692716045, 7.9516393990364165)	(0.7809476724565485, -1.4370355394606733)	(-6.0349611521359527, -7.657496697956395)	1.0	slash	0.672702
18	M	B	B	N	N	M	A	A	M	8	2	shapes	B	1	False	52	(5.5155124480263531, -0.74575216458167759)	(-5.3972574835218143, 5.1835268006693447)	(2.4147344527335228, -4.4713532874852193)	(0.40024244837061218, 3.4503062002874323)	1.0	slash	1.34831
19	N	B	N	M	A	M	B	A	N	8	0	shapes	N	1	True	52	(4.3412217512905436, 3.1914072209382152)	(-5.1101151888911307, 5.0403688720379787)	(6.4613219461404459, -4.6839221414775851)	(2.1633762525109308, 8.4492041972813894)	1.0	z	0.883912
20	M	B	M	N					M	4	2	shapes	M	1	True	52	(-5.4190652279422817, -6.7467751588598404)	(6.5732546358545498, 8.0830392591280784)	(-0.14164281075031937, 7.6041929314343903)	(2.6612823787800046, -1.4348524023482616)	1.0	z	0.893558
21	N	B	A	M	M	B	N	A	B	8	3	shapes	M	1	False	52	(0.54759906474560793, 0.34558108969471846)	(-2.449552183772699, -8.6750206024649152)	(-1.4810613134627282, 4.1790026961897819)	(-7.2284866282108373, -4.6619703743544445)	1.0	slash	0.949286
22	M	A	N	M	B	B	A	N	B	8	1	shapes	A	1	False	52	(-0.43697725761501971, -0.067216350449552209)	(5.5284223204105594, -1.9219450327865237)	(-3.1093101540320491, 6.9211236244652738)	(7.2362039835254919, 1.750711325414402)	1.0	z	1.01349
23	N	A	B	A					M	4	1	shapes	A	1	False	52	(-7.12061451377647, -3.4288084802668877)	(6.5383497866364628, 0.27143737349862107)	(-4.4328321233509813, 1.095697758842304)	(1.9907860934635107, -7.443432877925102)	1.0	slash	1.05239
24	M	B	N	A					M	4	1	shapes	B	1	False	52	(2.3021522861253896, -3.9217810189063478)	(-3.0498376281956121, 6.957837920339216)	(-4.9567519510032021, -5.5312316457473241)	(3.5966584948768769, 3.8391861243518655)	1.0	slash	0.787784
25	M	B	M	A					M	4	0	shapes	M	1	True	52	(6.7916229075528154, -3.2507185456274037)	(-1.2919406553445558, -8.397032389207066)	(1.071543121608725, 6.996332896029088)	(-4.7932917018152503, 3.6360092761448826)	1.0	z	0.864073
26	M	B	A	B	A	N	N	M	B	8	3	shapes	B	1	True	52	(-2.1151325817279085, 4.3623538085360831)	(-0.23995204873369858, -0.61692906658581137)	(-6.0094252827895627, 8.1280041428212648)	(0.66410248972269414, -7.2033411501295079)	1.0	z	0.67759
27	M	A	M	N	B	B	N	A	N	8	7	shapes	A	1	False	52	(3.091827564799253, 8.6314088284833979)	(-3.0826735721663248, 7.1855301136793752)	(-8.4425535449331708, -1.0136638874375228)	(5.7585398540084363, -1.4434092427640399)	1.0	slash	1.48098
28	M	B	M	B					M	4	2	shapes	M	1	True	52	(-4.569507481266168, -4.660712979963364)	(-1.9561431042731732, 1.3136346692814573)	(3.4549249605569727, 3.8855490608590451)	(6.1454649233817271, -2.6831580070569805)	1.0	slash	0.699231
29	M	A	A	N					M	4	1	shapes	A	1	False	52	(3.1681011435031703, -8.0832790183985903)	(-2.9734254229295285, -0.2784709216559289)	(-8.282551227597871, 4.7337350353402528)	(6.0784270375837277, 8.7488143048864799)	1.0	slash	1.0887
30	M	B	A	M	N	A	N	B	M	8	2	shapes	A	1	False	52	(6.7316542077946551, -6.2949121487045083)	(-6.6550067707533564, -6.1494038835480413)	(-4.8606743635224818, 3.0115342226968718)	(1.2652258162579031, -2.0042670322560729)	1.0	slash	1.22595
31	M	B	B	N	M	N	A	A	M	8	4	shapes	M	1	True	52	(-6.1811846955435898, -7.667172069116619)	(5.8296735641317028, 6.6038189744434987)	(-6.0803571073090765, 8.3752277402042488)	(6.6617310059954509, -4.7637111017137101)	1.0	slash	0.813329
32	N	B	B	M					B	4	1	shapes	B	1	True	52	(7.2274073393310854, 8.5516722335870448)	(1.0188628689374628, -0.45974350332095426)	(-4.7201901506182731, 8.0470151653958588)	(-5.9928265897931023, -7.579198792808695)	1.0	z	1.06953
1	N	B	A	M	A	B	N	M	N	8	0	shapes	N	2	True	52	(-8.2139939021860116, -1.0630375593612156)	(-0.97609571271735973, -6.7107970836190303)	(1.0984620477775362, 0.593676441206199)	(0.16667168124836174, 6.6338485128317011)	1.0	z	1.5069
2	N	A	B	B	N	A	M	M	A	8	6	shapes	M	2	False	52	(0.44214806970519227, 1.9381251649359079)	(-8.5769069404491134, 2.6579085746357105)	(-5.4544179727677751, -3.1613762397101954)	(-6.8619890567845188, 7.2235575047167142)	1.0	slash	0.824406
3	N	A	N	M	A	M	B	B	M	8	3	shapes	M	2	True	52	(6.3227054566632699, 5.2245428228090702)	(-5.7545271394802926, -4.7285857786646215)	(-1.5465417090196123, 4.7400873389142255)	(3.2119079663784724, -3.3347160272402609)	1.0	z	0.990074
4	N	B	M	M					B	4	1	shapes	B	2	True	52	(2.4856235111403642, 0.60400558744785116)	(-7.7883817166881872, -4.2837033157272826)	(-1.7683443311922318, 2.0510540211221944)	(3.4032729864630245, -8.2675232276988435)	1.0	z	0.928138
5	N	B	A	B	A	M	M	N	N	8	2	shapes	A	2	False	52	(4.2917071681078589, 5.7982152359756647)	(1.9795365480352327, 1.0719486134703811)	(-3.5978121398999585, 4.6009181717619416)	(-4.4912816971199483, -5.9767349631431159)	1.0	slash	0.796093
6	N	B	N	M					N	4	2	shapes	N	2	True	52	(-7.4571646943655212, 6.6142702853354862)	(4.3769057380311054, -6.3808731730152104)	(5.8417581822336615, 8.0269660814633674)	(-3.3755548911309674, -5.3823500446363504)	1.0	z	0.799547
7	N	A	A	M					M	4	3	shapes	M	2	True	52	(-3.8107909451009494, 3.1485162497443344)	(-4.0955269121190696, -8.3887011724210119)	(2.1210191563562564, -0.21728685731173414)	(3.1825410393730316, 5.8136645342113464)	1.0	z	0.721429
8	M	B	N	B					A	4	0	shapes	M	2	False	52	(5.7490168174476377, -7.2269589395374467)	(-0.70204031444750825, -8.3095774779904499)	(3.3003714938154047, 7.4128289940706296)	(-8.7461268320840588, 7.7399089259543246)	1.0	slash	0.739003
9	N	B	B	M	A	A	M	N	M	8	0	shapes	N	2	False	52	(8.477445328694845, 1.4609497481352349)	(-3.8646491245863013, -5.000380479548058)	(-0.39122075837868842, 4.4107244055313739)	(3.8350766486824526, 7.156810540949488)	1.0	z	0.874672
10	N	B	N	B					B	4	3	shapes	B	2	True	52	(-7.1152583746136866, 0.028846858916732998)	(-0.85375668614412348, -1.7432126808167361)	(4.9596305053784029, -7.0834336784360525)	(3.6898948414564359, 3.1587043226017606)	1.0	z	0.741759
11	M	B	N	M	B	A	N	A	A	8	7	shapes	A	2	True	52	(1.3804968153851931, 3.8919059232137059)	(-6.7578095874425577, -3.0367823053553202)	(0.57454840951823094, -2.4617021690054708)	(-3.9234134987299809, 3.601277790307666)	1.0	z	0.595352
12	N	B	B	M	M	N	A	A	A	8	6	shapes	A	2	True	52	(2.493978426870374, 6.054497185444367)	(5.2522179807427474, -2.1669147438654575)	(-0.13502814399679686, -7.0255277119160535)	(6.6350404642704106, -6.9472306064791436)	1.0	slash	0.823025
13	M	B	N	B					M	4	3	shapes	B	2	False	52	(-8.5681585822811233, -1.530517028084514)	(-4.9920087576251602, 1.5029980105851717)	(1.777828478089198, -1.0428994275440564)	(0.1573866466978302, 2.8989005202991542)	1.0	slash	0.995261
14	N	A	M	B	N	B	A	M	M	8	0	shapes	N	2	False	52	(6.9016564101496165, 5.9070493741384045)	(-3.3626246615385913, 3.2282413199848108)	(-5.9666318644334915, -1.7058620064617411)	(3.5440656405988644, -1.4282851060699482)	1.0	z	0.934289
15	M	B	N	B					M	4	0	shapes	M	2	True	52	(6.5349440872451154, 6.0982442917535096)	(5.3695169825298343, -2.0106774867649397)	(-7.5833205598518054, 1.1969422403674717)	(-2.5402135998255986, -3.790703271318935)	1.0	z	0.772404
16	M	B	B	M					B	4	2	shapes	B	2	True	52	(0.86738441611331929, -3.4816191651143615)	(-7.2501044696190915, 1.146788354825123)	(7.7934203716553156, 5.8812229042265844)	(-1.4147914301747848, -7.798368055907984)	1.0	z	0.483978
17	M	A	A	N	N	M	B	B	M	8	2	shapes	A	2	False	52	(-0.24102606201774179, -3.6816179453886502)	(-2.1919946982671838, 2.9098842790565342)	(2.4217204317958494, 2.5805055371876122)	(8.4112124801902723, 7.6394647769480351)	1.0	slash	0.84536
18	N	A	B	N	B	M	M	A	M	8	0	shapes	N	2	False	52	(1.2622433466040484, 7.8840935785264925)	(-7.3738357863897779, -6.4605534279779206)	(-1.1086665109007106, 1.4526422353152633)	(-5.4113514672958543, -1.6508567887076424)	1.0	z	0.785387
19	N	B	A	A					B	4	3	shapes	A	2	False	52	(6.625239505273175, -0.72903719896612174)	(-3.3623984163382206, -6.6424643110964769)	(-2.5491456700656157, 3.5390295541722807)	(6.4060567153702799, 4.6497566669234551)	1.0	slash	0.853082
20	N	A	M	M					M	4	0	shapes	N	2	False	52	(-3.5066691485095385, 4.9110572307103251)	(4.3336984615550556, -5.5316313377678608)	(-0.69017311765619205, -6.1768618227859138)	(6.3998736636991165, 5.8119365834371859)	1.0	z	0.588209
21	N	B	B	N	A	M	M	A	A	8	2	shapes	B	2	False	52	(-4.2482900275811915, 2.441995680206027)	(2.3182354068456998, -0.65948046618223266)	(2.8147981079394384, 4.4116371261045053)	(-0.77797721216850668, 6.8657135072703692)	1.0	slash	0.824644
22	N	B	N	M					B	4	0	shapes	N	2	False	52	(-2.3724033677715202, -5.7828045252432263)	(3.8866419967603481, -7.1296626805862413)	(-6.1153805826627963, 6.0181420111279262)	(1.2820871541080017, 5.6510843099927666)	1.0	slash	0.612101
23	M	A	N	M	A	N	B	B	A	8	4	shapes	A	2	True	52	(-2.307815104744031, 8.3983054205731626)	(0.73052641497453585, -5.2252720695717336)	(-6.3834923236903993, -5.6524188649544858)	(-8.1588690921422682, 0.44962051363093458)	1.0	z	0.81138
24	N	A	B	A	N	B	M	M	B	8	5	shapes	B	2	True	52	(2.2273515244360897, 8.3247325225149851)	(-4.0004759173540165, 0.75203056725756312)	(3.6743202137213427, 0.033848610617626562)	(6.8398270603410154, -8.3993503774839997)	1.0	z	1.25995
25	N	B	M	A					B	4	2	shapes	M	2	False	52	(-3.4853236732711235, 2.6564423671143711)	(0.22167612391181279, -4.1636046165716323)	(2.9662548233476969, 4.6282869336348913)	(-4.2362628823027171, -8.0049592462047929)	1.0	slash	0.704964
26	M	B	M	N					N	4	3	shapes	N	2	True	52	(-2.3991221475142011, -6.0294715965497154)	(-7.6252711646482378, 7.3228917036063876)	(1.4114873508542161, -4.717577807067908)	(8.1798366288659246, 2.7500950470775134)	1.0	z	0.886072
27	M	B	B	N	A	A	N	M	A	8	4	shapes	A	2	True	52	(-8.3238441864471877, -1.0715831620403558)	(0.19898359076781702, 5.8801700022272421)	(-7.5674035375578059, 8.4044977679788637)	(5.8206540074969446, 7.9955999285969206)	1.0	slash	0.903633
28	N	B	B	M					B	4	1	shapes	B	2	True	52	(-3.5233068682280386, -6.6752846565366095)	(-4.6922503777215985, 7.0310575604769916)	(3.6471616870279249, 7.8708835267866988)	(7.0602211208065082, -4.6377116051925569)	1.0	slash	0.875858
29	N	B	B	A					M	4	2	shapes	B	2	False	52	(8.2446939919786431, 1.0985203754443837)	(-1.9842423823325746, 4.9299908143281694)	(0.84683551447138505, -6.7358248066224986)	(-7.6602686505661435, -6.0320647636508706)	1.0	slash	0.630944
30	N	B	M	A					A	4	1	shapes	B	2	False	52	(1.8102603997688895, -3.7835396986022998)	(-2.2563229052742297, -2.3168535099873928)	(-7.4566848404730592, 3.7018180856974823)	(5.8656155041015037, 3.8021750871286084)	1.0	z	0.64326
31	N	B	N	B	M	A	M	A	N	8	5	shapes	A	2	False	52	(7.909301540142792, 0.064305865618070612)	(3.5900353898871415, 6.2913472658509839)	(-7.18012580699253, -5.242675775336064)	(-0.096711618484135897, 0.6870344827170598)	1.0	slash	0.796213
32	M	B	A	N	N	A	B	M	M	8	7	shapes	M	2	True	52	(-7.2701156201988884, -5.7739585896347556)	(-7.7952069667399888, 0.7708530138421299)	(1.8030016275421428, 3.129325409840634)	(5.1340724094701464, -2.3916558022013925)	1.0	z	0.784378
1	M	A	N	N					M	4	1	shapes	A	3	False	52	(5.787168142952174, 3.3228711367566586)	(-0.76192960860074699, 3.3973531869808227)	(4.2348029401743759, -5.6853602111725063)	(-0.97276869109032216, -0.88447644985216733)	1.0	slash	0.630433
2	N	A	N	A					M	4	1	shapes	A	3	False	52	(0.61611953602332115, 1.1303909580736811)	(5.9191926761280236, -3.8982247142239217)	(-2.6656530902361482, -3.4346155419372035)	(-6.1569385481672896, 8.6833354498882969)	1.0	slash	0.681458
3	M	A	B	B					N	4	2	shapes	B	3	False	52	(8.3703511201515859, -1.3559522532830233)	(-5.6884753672748172, -6.5108429935659533)	(1.6617834185986453, 7.9481779601955438)	(-6.7897196617647388, 2.7908239337334155)	1.0	slash	0.571531
4	N	B	M	N					N	4	3	shapes	N	3	True	52	(0.68230358725387319, -3.4340383028355363)	(-0.45318532258058042, -7.7608402971337087)	(-3.6247976605580199, 2.9227151675881515)	(3.0161382205699478, 1.3427888963789183)	1.0	z	0.619326
5	N	B	N	A	B	A	M	M	A	8	3	shapes	A	3	True	52	(7.9459040048745884, -5.5264763470809051)	(0.91192783830125634, 1.3061593696969833)	(-4.0746253901937717, -8.6603574660369258)	(6.8758256484541995, 6.7210278366306344)	1.0	z	0.718395
6	N	B	M	N					M	4	2	shapes	M	3	True	52	(-6.570149620093674, -8.7290370588043746)	(1.9676241933463139, 5.9841823519750044)	(-3.916027073090115, 0.071093352989418435)	(4.5565150155101808, -6.1381765973057298)	1.0	z	0.70062
7	N	B	N	A	M	B	A	M	A	8	0	shapes	N	3	False	52	(-4.4416325546394164, -6.8959567738341363)	(-2.922100736741819, 5.0590177557521621)	(4.1760654676140092, -6.7582987769195757)	(1.3569553477175145, 1.2379394982217189)	1.0	slash	0.758165
8	N	A	A	N	B	M	B	M	B	8	1	shapes	A	3	False	52	(8.4499886351726126, -5.7083233271363643)	(-0.068197439003204963, 2.2339361061144665)	(-8.1813731944308277, -1.3200175270719789)	(2.5239050074060536, -3.8468337304584805)	1.0	slash	0.875388
9	N	B	N	A					M	4	2	shapes	N	3	False	52	(-2.9297045387657299, 1.1028095489435294)	(8.4364565065394963, -6.9351992143569401)	(-4.5106036959083413, -8.6269068218309251)	(0.32745708225372638, 3.9946404962600681)	1.0	z	0.725468
10	M	A	A	B	B	N	M	N	M	8	4	shapes	B	3	False	52	(2.3661052054900065, -3.1522869401593754)	(5.0461014208918762, 7.8884707680990651)	(8.3199729479800979, -1.598415898772183)	(-2.9581961723795587, -0.70124104495496731)	1.0	z	1.09452
11	N	B	N	M	A	B	A	M	B	8	5	shapes	B	3	True	52	(2.6574959086234724, 5.0862829834376573)	(-6.0909208997609099, -8.2937189966917213)	(-0.19509482998470062, -0.43898365732794353)	(8.3850111634053697, 5.838345903819727)	1.0	z	0.606122
12	M	A	M	A	B	B	N	N	B	8	5	shapes	B	3	True	52	(3.2636663744780154, -4.1706207270578721)	(-0.6447154647543023, 7.5161250755832576)	(-6.1458525930263344, 4.5155455362811932)	(-3.5770892181483385, -6.5131353151586859)	1.0	z	0.686672
13	N	B	B	M	N	M	A	A	M	8	3	shapes	M	3	True	52	(2.8194560139639346, 4.2988647033848206)	(-4.9146311225280686, 7.2818198766819755)	(1.7283383592448995, -0.25244050173167309)	(-2.3307320991159219, 2.5809941503810254)	1.0	slash	1.32172
14	M	B	A	B	M	N	A	N	M	8	1	shapes	B	3	False	52	(-7.1436452281003273, 7.5068082583744342)	(3.2483641083879977, -7.4504055363553281)	(5.1361327445774254, 0.016980586971733658)	(-5.9885794324623802, -6.7498586172964874)	1.0	slash	1.01793
15	M	B	B	N	M	A	N	A	N	8	3	shapes	N	3	True	52	(-8.5856747065497085, -2.4636023223473869)	(-7.5660650842203099, 8.4517061550451409)	(-6.8611794253916827, 3.6433521324488911)	(5.4640842101828664, -2.3165071047737147)	1.0	slash	0.90753
16	N	A	B	B					B	4	2	shapes	B	3	True	52	(2.7789367541954881, -7.6412243019521338)	(4.0172680571317354, 4.0734966752875792)	(-3.3060796596149276, 8.6557462692538607)	(-1.804707793105309, -5.1667876432742599)	1.0	z	0.679147
17	N	A	B	A					A	4	3	shapes	A	3	True	52	(-0.060566354481460749, 6.7271897442659512)	(1.739166993550203, -3.2145226554019564)	(4.708865690526423, 0.07030144336021138)	(-5.5613162188328369, -7.7337724099331826)	1.0	z	0.600574
18	M	B	N	N					B	4	0	shapes	M	3	False	52	(-1.9884437003027475, 6.9539011063316174)	(-6.1311679231180491, -3.8401878178391833)	(0.54342985828189683, -7.8969579612138592)	(8.5224886316956656, 4.9806816957058615)	1.0	slash	1.18583
19	N	A	N	B	M	A	B	M	M	8	2	shapes	N	3	False	52	(-1.8774308563077158, 3.1650035711589375)	(-0.32821821856186695, -3.044473148308497)	(-7.1689603247776015, -6.2123650516712807)	(4.0169343706154752, -8.0608433193111875)	1.0	z	1.40988
20	M	A	B	B					B	4	2	shapes	B	3	True	52	(1.1177378043923571, 2.0516270906582292)	(6.1338213214482664, -5.0574077365660397)	(-6.3238426079558945, -1.5845148568818397)	(-5.1088893466098817, 5.4198776559614057)	1.0	z	0.679588
21	M	A	M	B	N	B	A	N	M	8	6	shapes	A	3	False	52	(8.0795324659762642, -7.848388116276257)	(-4.90620400959574, 4.3836662970065419)	(1.2102749766417631, -6.0983254465930257)	(5.616552684053536, 6.1289202008803674)	1.0	slash	0.97081
22	N	B	A	N					B	4	0	shapes	N	3	False	52	(-2.0305587574883468, -5.3847569082058957)	(7.8823653700310636, 3.5362402580157433)	(-1.482563453756728, 0.069874452744727478)	(4.8871189635875663, -8.3624141853005405)	1.0	slash	1.06672
23	N	B	M	N					B	4	1	shapes	B	3	True	52	(5.6995027322481224, 3.933329271078021)	(4.8388213307993997, -3.3689204889797608)	(-7.1896136842101441, 0.28291963429451528)	(-1.5410811749446456, -0.11286571130355583)	1.0	z	0.800468
24	N	A	M	N					A	4	1	shapes	A	3	True	52	(-2.4409766201573078, 1.0621682321717252)	(0.21497863327899047, -4.1524704886462684)	(-7.7353213875098605, -8.0374635441701461)	(1.9106808595719862, 7.3156591697496793)	1.0	z	0.922271
25	M	A	A	N	B	B	N	M	M	8	7	shapes	M	3	True	52	(2.3018305238080163, 1.5817381697307447)	(-4.5498059632664214, 7.9303422337736791)	(-5.8987804023773478, -4.1123427218340893)	(-0.81145334703845062, -3.0499951674088761)	1.0	z	0.827204
26	M	A	M	N					B	4	0	shapes	M	3	False	52	(8.2161080110714408, -6.0317064034768046)	(-4.6140630831792091, 4.7100391855713308)	(7.0791886801974258, 6.9876863165479328)	(-2.8974998702681134, -1.6373741482358026)	1.0	slash	0.969605
27	M	B	M	B					N	4	3	shapes	B	3	False	52	(2.2237475558115651, -2.2759129004184802)	(-5.6882672440427537, -1.102275900561307)	(7.5956256478217377, 2.6313650561718873)	(-3.2227494997567439, 5.6497519738998836)	1.0	z	1.70505
28	M	A	B	M	N	B	N	A	A	8	7	shapes	A	3	True	52	(8.3119655323032546, 4.7133236533062721)	(2.1390355468783753, 4.6366817184594211)	(-0.38353951595786384, 0.32148968032993963)	(6.9737363661559861, -1.1651497540192803)	1.0	z	0.90226
29	M	B	M	A	A	B	N	N	B	8	7	shapes	N	3	False	52	(0.72126870359631745, -2.8321591231327528)	(5.8378319665811542, -2.0871985266212363)	(-0.41887199094674266, 4.9562952281361383)	(-3.7214183391222964, 0.69135792268936669)	1.0	z	1.54763
30	M	A	N	A	M	B	N	B	B	8	1	shapes	A	3	False	52	(0.91237097006375478, -4.3546576734085249)	(0.30398503177235803, 8.5185304545014944)	(1.164963214752774, 0.51942045990011643)	(-7.6589591277782159, 8.1607230634005283)	1.0	z	0.977444
31	N	B	A	M					B	4	1	shapes	B	3	True	52	(-1.7775779067366368, 1.7615939442347059)	(1.150184555860692, 6.2119370719992517)	(4.8539029676408187, -6.3913462107885497)	(-1.8097334347062128, -4.5101277442803989)	1.0	z	0.873717
32	N	A	N	M	A	M	B	B	B	8	6	shapes	B	3	True	52	(7.6405294264816739, -0.051993976133349662)	(-2.8288886763158212, -6.071393316139857)	(-2.8173198986467733, 4.1204615413158905)	(-5.9901158269706025, 8.5164570360294043)	1.0	z	0.556635
1	M	B	B	N					M	4	2	shapes	B	4	False	52	(2.1252858097932972, -1.1749310477136357)	(-4.9189870883428206, -4.5190989231874621)	(4.8610382712613358, 2.8145805144830618)	(-6.1340756621720693, 7.2704700273722196)	1.0	slash	1.03493
2	N	B	M	N					M	4	1	shapes	B	4	False	52	(-7.4295599838416431, 3.2502571436869019)	(4.3395510076205941, 0.44833912723329483)	(-7.8242785662403511, -2.972139687850019)	(4.0352705500569037, -4.1831846172174636)	1.0	slash	0.830617
3	N	A	B	A	N	M	B	M	B	8	6	shapes	B	4	True	52	(8.2608240657672063, -8.5769254754043249)	(7.1509886686949731, 2.9847426394457877)	(0.85969420677281505, -6.5949703502525505)	(-5.1946401843477359, 1.6753702986524743)	1.0	z	0.651876
4	M	A	B	A					M	4	0	shapes	M	4	True	52	(-7.4532801444091437, -1.1795188104683261)	(1.017930375714915, 2.9789443834476916)	(-6.0050161456576365, 6.4034762640794654)	(4.3170033442896063, -7.7013150837821609)	1.0	z	1.24184
5	M	B	N	M					B	4	2	shapes	N	4	False	52	(8.6277307542788222, -1.600664495751202)	(-1.5777039441571228, 6.3027531889719715)	(6.7448890406540478, 5.9713210391237475)	(-0.66385996274149406, -7.6159781593416813)	1.0	slash	1.0095
6	N	A	M	N					M	4	2	shapes	M	4	True	52	(6.7278932224339094, -4.415379726918923)	(-7.210957880304087, -2.1102887080231145)	(-3.0109340360213848, 3.9069930368038861)	(0.4815491952802855, 6.5941211855855464)	1.0	z	0.809239
7	M	B	B	A	A	M	N	N	A	8	1	shapes	B	4	False	52	(-5.3297842496216319, 1.9187956419460992)	(-0.55523496756693547, 6.0889815908660889)	(-5.7570362894858516, -3.6315129827019232)	(5.974432410480075, 5.6742076020112684)	1.0	z	0.684931
8	N	B	N	M					M	4	3	shapes	M	4	True	52	(0.97316700810252854, 0.46867796085730618)	(-0.23818713997802554, -4.3754189445467642)	(-3.6202427940074582, 8.5765800296840631)	(7.5740666900336571, -8.6148979822134866)	1.0	z	0.900593
9	N	B	M	N					B	4	1	shapes	B	4	True	52	(3.958833335009496, -0.26405871304825723)	(3.2663494988144777, 5.1078831019730373)	(-0.41551378205985579, -5.2246615520074524)	(-4.4686407434833191, 0.36521996309633664)	1.0	z	0.481581
10	M	B	A	M	N	B	N	A	M	8	0	shapes	M	4	True	52	(5.2317052341694925, 3.2723527214436512)	(-2.3117927222890096, -7.6068927115660934)	(-1.0814912789367224, 1.3649024156160152)	(-1.8796795509539823, -3.5985338666436384)	1.0	z	0.787397
11	M	A	B	M					N	4	1	shapes	A	4	False	52	(-7.2128784857473462, -7.513265223059622)	(0.83226446851534064, -3.4716113748728201)	(6.4589202069750158, 3.421848706012895)	(-2.852802031682474, 1.345616502495778)	1.0	slash	1.05346
12	M	A	N	B	N	A	M	B	B	8	3	shapes	B	4	True	52	(-4.7355714627991823, -4.0445820651104363)	(2.7244946685785951, -4.7716110751538983)	(-3.3352235220336288, 0.89496051377123287)	(8.0643942277840281, -5.3027150712098363)	1.0	z	0.796822
13	M	A	M	N	B	N	B	A	M	8	1	shapes	A	4	False	52	(5.6276279258220292, 4.8857669583509171)	(-8.2239327145995809, -6.0993197794014362)	(-1.1947390992583804, 7.0740245606229344)	(-0.42508386559835998, -2.0281847707620804)	1.0	slash	0.848361
14	M	B	A	A	N	M	N	B	M	8	0	shapes	M	4	True	52	(-7.2704769656379531, 1.8049882125931873)	(2.3583414416414037, -1.7733879499545395)	(-0.28235235382033608, 8.2984654351294829)	(6.1169587423523772, -7.5214407310047884)	1.0	z	1.48983
15	N	A	A	M					M	4	3	shapes	M	4	True	52	(-3.1706655851291501, -1.4354184711490126)	(2.3865691742879367, -1.4652345168276808)	(4.6127326033001435, 5.31256769528534)	(-1.7643163099005772, 7.2212792215400246)	1.0	z	0.713881
16	N	B	B	M					N	4	1	shapes	B	4	False	52	(7.5213094418742124, 0.16934630013715868)	(-0.9316415892052694, -5.4307839486735787)	(1.4954946621931988, -1.6833999083759021)	(-3.6413279964258312, 7.1421285358467799)	1.0	slash	1.20556
17	N	A	A	M					A	4	2	shapes	A	4	True	52	(-1.7116300649389045, 8.4087477684015894)	(0.93211069377877465, -8.5480581397672779)	(4.7210213985733809, 8.243356178260175)	(-5.8267888094808038, -3.6309596561683772)	1.0	z	1.17523
18	M	B	A	M	B	N	N	A	M	8	0	shapes	M	4	True	52	(-2.6141773320602661, 6.7870071269550678)	(-0.92986776617078704, 2.477109407845699)	(2.3044000303817747, -4.2991758942415119)	(-7.8823513880938636, -6.2046535118328521)	1.0	z	0.815214
19	N	B	M	M	B	A	N	A	N	8	7	shapes	A	4	False	52	(-8.5864634452608559, 8.2742048609866252)	(-0.35082088199004247, -4.8856957674604899)	(6.1511294481751833, 6.5570257095975695)	(2.1237145392341734, 7.9876842279217222)	1.0	slash	0.78401
20	N	A	A	N	M	M	B	B	B	8	0	shapes	N	4	False	52	(-3.7190358275074971, 1.5623033578295633)	(5.2895741657421116, 4.4663597246719764)	(0.56424063546444714, 4.4378080160738289)	(5.1351517961528881, -6.2232399410607933)	1.0	slash	1.01546
21	N	A	N	M	M	B	B	A	B	8	6	shapes	B	4	True	52	(3.6521720968300677, -0.016102620229778708)	(7.015200664271763, -2.1947822612388457)	(-8.3776450199043424, 0.82704105219943003)	(-6.4407171002638126, -3.4426164348279009)	1.0	slash	0.871352
22	N	B	A	N					B	4	2	shapes	A	4	False	52	(6.8080336454664714, -8.5375956772966699)	(1.7137485330628159, 7.000810409757138)	(-6.5899730937020937, -7.5153486468081558)	(-2.787664283947425, 7.7200354455301614)	1.0	slash	0.497528
23	N	B	A	A	M	N	B	M	M	8	1	shapes	B	4	False	52	(-5.4631351349816253, 0.8040224123434232)	(2.87525424534034, 6.5263217712872752)	(0.52084440756439676, -3.0861658314645135)	(-4.3784855606465989, -3.5914723055754783)	1.0	slash	0.904669
24	M	A	N	B					B	4	1	shapes	A	4	False	52	(8.6371407245305392, 1.3811319932740869)	(-7.7960675073058958, -1.6263043025439012)	(4.3347677058685328, -7.3024541177273647)	(-5.253006778852952, 5.9590468521939268)	1.0	z	1.10018
25	N	B	M	B	M	N	A	A	A	8	5	shapes	N	4	False	52	(0.042572246776789058, -3.2027628057573381)	(1.779080958193676, 0.95344652992781498)	(7.5939815268911879, -5.6830238659585923)	(3.1796990515546657, 5.9864437043489609)	1.0	slash	0.644493
26	N	A	M	A					N	4	0	shapes	N	4	True	52	(2.9081446759471685, 2.3309709754846057)	(0.025678175062921582, -6.235391514711571)	(-1.1441319342170297, 1.2806111781610401)	(-5.4391571608395095, -5.906017868573997)	1.0	slash	0.637684
27	N	B	N	B					B	4	1	shapes	B	4	True	52	(-2.9517320605788528, -5.7598562782235678)	(6.0133987293592561, -4.5421289176526534)	(-5.0994906385081098, 7.1611308789834656)	(8.3279341953483055, 7.6578335796895693)	1.0	z	0.639855
28	M	A	M	N	N	B	B	A	A	8	5	shapes	B	4	False	52	(1.7492729881601896, 5.5154231675672243)	(-3.7459398468836085, 1.1735231984556815)	(2.76219543396601, -8.2910101420355815)	(-1.1888686471696808, -2.2912623283910003)	1.0	slash	0.69092
29	N	B	B	M					A	4	2	shapes	B	4	False	52	(-0.46651252076880212, 2.8311356563598302)	(0.56945506558351511, -4.4444171135161961)	(-3.7879148203076127, -0.04105426653237032)	(6.6172325219346799, 2.1769652541925808)	1.0	z	0.704919
30	N	B	M	A	N	A	B	M	A	8	6	shapes	B	4	False	52	(2.7490472906322321, 2.2857228936593526)	(3.3143668693257453, 6.7620996262646429)	(-1.7760764248794301, 7.8222616472333613)	(6.3948518622818664, -4.3963260227199479)	1.0	slash	0.640155
31	M	A	A	B	B	N	M	N	B	8	3	shapes	B	4	True	52	(-2.1898040681116715, -7.2573106508695195)	(-8.4898238641268335, -0.48333562461971447)	(-7.1895056726557263, 6.2610491051552515)	(0.85841500651657299, -4.5839677014260678)	1.0	z	0.707669
32	M	B	M	B	N	N	A	A	N	8	5	shapes	N	4	True	52	(3.8805698449873081, -7.8524215287369747)	(-1.0766579662906022, -1.1748165048073709)	(5.9355572459489814, -0.43598211837008627)	(-7.1186264926123535, 5.1262564606699037)	1.0	z	0.84958
1	N	B	A	M					M	4	0	shapes	N	5	False	52	(3.2977157613291972, 7.2643181378131914)	(-6.9127298870280853, 3.8240056620791627)	(-5.6425613199781095, -0.88469187892634515)	(3.0988372748483819, -1.9238794174037865)	1.0	slash	0.739658
2	N	A	A	M	M	B	N	B	M	8	4	shapes	M	5	True	52	(-4.4137976355515782, 8.5945800142274926)	(-1.7768566476475582, -1.3668506558106825)	(2.7080182678263647, -3.7019702823263687)	(3.5545620421852178, 7.9202587031159943)	1.0	z	0.722786
3	M	B	N	A					A	4	3	shapes	A	5	True	52	(-1.4817626263134205, -7.9417430029512897)	(4.9543344631201212, -4.5263570597383476)	(-7.1428350715416622, 0.5200521388910655)	(4.6738259277879415, 1.3034587938902256)	1.0	z	0.733232
4	N	A	B	A					N	4	3	shapes	A	5	False	52	(8.5087083381137987, -0.075591750086578813)	(-6.0712417997537829, 2.8093440426027136)	(8.3234659005810627, 7.2614317923560137)	(-3.7114517859643241, -8.6367430340535236)	1.0	slash	0.746624
5	M	A	M	B	B	N	A	N	N	8	5	shapes	N	5	True	52	(-5.9364325437647718, 8.0757548862258091)	(4.3589987507361823, -7.0347293323386504)	(-2.5512598415960479, 2.4855912739552757)	(5.6901077445506871, 2.6664887979118621)	1.0	z	0.784572
6	N	B	A	N					N	4	3	shapes	N	5	True	52	(-0.2556127317393635, -8.2946989506043742)	(-1.6260673235412746, 8.0688100108501359)	(5.4891830196571156, 5.2375611949758483)	(4.7372899867360019, -6.3279965349036731)	1.0	z	0.798076
7	N	A	B	B					N	4	1	shapes	A	5	False	52	(-6.594547477619555, -4.5343423639046732)	(8.5730758462443184, -8.1199278368083458)	(-4.462694036088811, 3.0582573831745634)	(8.6051317822270867, 7.4791738297391746)	1.0	slash	0.807038
8	M	B	N	B	A	A	M	N	B	8	3	shapes	B	5	True	52	(-7.6267600015806973, 3.5094973883715852)	(6.8670366812894486, -2.1523710681216661)	(7.3942244934510164, -6.9224151522274751)	(-8.0460821607889166, -7.949412129892945)	1.0	z	1.1295
9	M	B	A	B					B	4	3	shapes	B	5	True	52	(4.6778537648440537, 8.5011677331999032)	(-0.78289539140996833, -1.2492431114721061)	(5.7540394969579811, -6.5430754043108896)	(-7.158330281366057, 7.0194820694444626)	1.0	z	0.648101
10	M	B	B	N					M	4	3	shapes	N	5	False	52	(-8.0353039494488918, -8.701868670250855)	(5.6374789744017875, 1.7217597874199075)	(-0.42054394725527189, 8.374665822025257)	(4.4584700575485634, -7.8707490895109302)	1.0	z	0.742581
11	N	A	B	B	M	A	M	N	M	8	6	shapes	M	5	True	52	(-3.4384248709574683, -1.7218864942722023)	(-2.572229076679184, -6.7316459750995001)	(8.3783220500219002, -6.5232819891244107)	(2.6573813778658355, 8.6573867981485364)	1.0	z	0.81975
12	M	B	M	A	B	N	N	A	B	8	0	shapes	M	5	False	52	(-0.76477922136920906, 2.4967415106990618)	(-5.4980138044851365, -0.69783907116190314)	(0.34907658014705412, 6.8591536230391394)	(7.962646544251399, -2.2927941798495102)	1.0	slash	0.69155
13	N	B	B	A	M	M	N	A	A	8	2	shapes	B	5	False	52	(-4.7541729372536929, -2.4850930774759385)	(6.9340702259920519, -0.33383065797404576)	(-4.9607665613938057, 7.2555427037302387)	(4.8407061490253689, -7.5572100471672528)	1.0	z	0.901672
14	M	A	A	N					A	4	1	shapes	A	5	True	52	(-5.1743767999487709, 5.1211311483857269)	(-2.8792301243668108, -8.4795669102002993)	(6.7385912596662614, 6.7084977526586691)	(8.1434628701447451, -0.42472441258425953)	1.0	z	0.611316
15	M	A	B	A	B	N	N	M	B	8	2	shapes	B	5	True	52	(5.2094014022428947, 0.31818172173364268)	(-7.2415228943012915, 7.043594373794873)	(5.4561926008396551, 5.2813539870594628)	(8.1516244241669362, -3.6641473199030923)	1.0	z	0.596719
16	N	A	B	M	N	A	M	B	B	8	1	shapes	A	5	False	52	(-0.26934521164351288, 8.1717907961549372)	(-7.3067442566124834, -2.6055161548746648)	(5.1243719179918283, -7.7266736340907904)	(3.6172835757922606, -2.8631974998275593)	1.0	z	0.680672
17	M	A	B	B					A	4	2	shapes	B	5	False	52	(-2.3650718168928488, -6.9147228037435688)	(8.6603589471146769, -3.0119702395059864)	(2.6855948635642175, 3.4184139905962763)	(-1.8786830169024142, 8.2762194649450542)	1.0	slash	0.608343
18	N	B	A	N					N	4	0	shapes	N	5	True	52	(-2.0497506779039538, -5.4516303130613171)	(3.708567109351149, 4.1266427972667241)	(-1.6694559181423587, 6.3701263002110498)	(5.2881229769634768, -5.3000453052148035)	1.0	z	0.695869
19	M	B	N	B	M	N	A	A	M	8	2	shapes	N	5	False	52	(-8.1900447504026559, -1.1576091402909237)	(5.3188977633053707, -1.1977995193573179)	(7.7316397072791254, -5.9713035880019047)	(4.8866853746032195, 3.6157013024444602)	1.0	z	0.81716
20	M	A	B	N	M	A	B	N	B	8	7	shapes	N	5	False	52	(1.759109752632261, 6.0547743936550606)	(-7.0917951311629359, 4.0934689030218472)	(-3.0287563063528298, 4.2468308014492031)	(7.8783728827287867, 7.4772638581200788)	1.0	slash	0.834814
21	N	B	B	N					B	4	2	shapes	B	5	True	52	(-4.4565646787829483, 5.0104348447716109)	(2.589541565237413, -3.2801379770872776)	(-7.7997854373188815, -2.7932081064560617)	(0.60532681360540863, 3.0986929128370004)	1.0	z	0.796217
22	N	A	M	N	B	A	B	M	A	8	2	shapes	M	5	False	52	(0.64046493940205984, -0.85542038144911636)	(-0.35815123150337769, 4.0084691688213994)	(7.340281567401032, -4.7976545912370447)	(-7.9795642621966643, -1.7651266977113425)	1.0	slash	1.01601
23	M	A	N	M	B	N	A	B	A	8	1	shapes	A	5	True	52	(-7.8396020432387115, -8.5125239360391536)	(-5.1234030464619797, 0.49830205978525122)	(4.5491488482465261, -7.7389692076048071)	(-0.47416434622521919, -2.2165964231523674)	1.0	z	0.6181
24	M	B	M	N	A	B	A	N	N	8	2	shapes	M	5	False	52	(2.441024495168497, -8.2395475787743315)	(8.1029298278059301, -2.117682217535612)	(-1.4464698635648139, 5.0968754317072182)	(-8.0099360630568004, -8.6411600320348469)	1.0	slash	1.47941
25	N	B	B	N					N	4	0	shapes	N	5	True	52	(1.9214698901337357, 8.7271912974718653)	(-3.0468491348306808, 1.3916462393260698)	(-7.6215681939153432, -2.8694341547011444)	(6.9938307434186537, -1.039956369147121)	1.0	slash	0.59149
26	M	B	A	N					M	4	3	shapes	N	5	False	52	(0.26789012593595452, 4.69248535717389)	(-4.9865496034356607, -3.4332013050069552)	(5.7306319186000678, -7.2972409433636702)	(-7.6850309993676182, 5.3383234578480696)	1.0	slash	1.03458
27	N	B	B	A					M	4	2	shapes	B	5	False	52	(7.314704378695712, -8.0892931631933855)	(-4.7539702405606885, 0.73220391798289697)	(8.0583267683230595, 8.0693453241297277)	(-1.8508765408939727, -4.9450566774683811)	1.0	slash	2.23877
28	N	A	M	N	M	B	B	A	M	8	2	shapes	M	5	True	52	(0.075898213262423297, 5.4525073950186389)	(-3.2020242165692796, -3.7076519912534316)	(3.9324745762514617, -5.9762645699659416)	(-1.4343705209653255, 1.743880883403957)	1.0	z	1.38575
29	M	A	A	M					A	4	0	shapes	M	5	False	52	(-6.8389606777773082, -1.418515806538295)	(1.9736018590896993, 6.8425214611205813)	(-4.8861243057346453, 4.5687317884419159)	(4.2989395563365917, -2.4630574994775269)	1.0	slash	2.11778
30	M	A	A	B					A	4	1	shapes	A	5	True	52	(6.3701784777376513, 5.4402043695155591)	(-1.902523769307698, 0.20488027165069767)	(7.1398383872224951, -1.6091535698715171)	(-7.4984340295324854, -1.9704857851680266)	1.0	z	1.19153
31	M	B	B	A	M	N	N	A	A	8	4	shapes	M	5	False	52	(-5.5522337513514071, -3.7000550016133253)	(-4.1797206437407981, 1.8404066963211765)	(-0.032996827649039773, 3.7508270478772854)	(8.5712721066841944, -2.8002319012170718)	1.0	slash	1.8026
32	N	B	N	B	A	M	M	A	B	8	1	shapes	B	5	True	52	(-4.0605834849789222, 3.715481934321657)	(-7.3879782505907619, 1.4625955461012445)	(5.53358975785439, 1.2733297979712557)	(3.338801202402701, -5.3120607944446938)	1.0	z	1.6367
1	M	B	A	B	M	N	A	N	A	8	0	shapes	M	6	False	52	(8.5169462031705976, -2.5290870540069514)	(-8.0790508234187115, -6.2095223125566816)	(-3.6224906195355819, 7.8423515257206162)	(-0.87841380174784423, -7.2621590284996991)	1.0	slash	1.00378
2	N	B	N	B	A	M	A	M	A	8	5	shapes	M	6	False	52	(-4.6135627111694681, 0.33862900213085467)	(7.6432444155499546, -7.2106391080287517)	(-2.8751800274263601, -6.710374617097246)	(1.1625121911011984, 8.0385283821725402)	1.0	slash	0.965377
3	M	A	M	N					N	4	3	shapes	N	6	True	52	(-7.6195343809191654, 3.9449512956645343)	(2.6546212737340191, -0.89629743889252111)	(-0.5621172409938282, -4.0769932085034206)	(2.6443815610843799, 5.1356795690538259)	1.0	z	1.34939
4	M	A	N	M					M	4	2	shapes	N	6	False	52	(-4.8500120974754406, 8.0532093033040226)	(4.4561959687766368, -4.3181822821478262)	(-6.4995672621288083, -4.9947128699488479)	(2.9411886548005857, 7.4143457397700914)	1.0	z	0.513108
5	N	B	B	M	M	A	A	N	M	8	3	shapes	M	6	True	52	(-4.8263571870870088, 5.1697049888883218)	(-6.3810335566412881, -1.1003666722472643)	(-0.3932832159428532, -5.3016370159877866)	(5.6142593074276199, 1.7276878549431007)	1.0	z	0.644404
6	N	A	N	A	B	B	M	M	A	8	3	shapes	A	6	True	52	(0.88544635008384631, 5.5748493367494198)	(-0.68816858549357462, 1.3085112743877385)	(-5.761269422884614, 0.0099493965579409149)	(6.4154091863505389, 2.9972938059583143)	1.0	z	0.598004
7	N	B	B	N					B	4	1	shapes	B	6	True	52	(7.1912030403744396, 0.17528231761912849)	(-3.6079500497336516, -3.9454542062981917)	(7.7618855916563767, -4.7975497618688863)	(-6.4120019991396902, 3.4496946883341923)	1.0	z	0.608241
8	N	A	N	A					M	4	1	shapes	A	6	False	52	(-4.8952236292858498, -6.3348852050087281)	(0.42816114141824002, -7.0137131580303018)	(5.6285444688155319, 2.8271382746885898)	(-6.2374545076872856, 8.2544976214093708)	1.0	slash	1.09571
9	N	A	N	M					M	4	3	shapes	M	6	True	52	(-1.5989845872513131, -8.3066031522557164)	(-8.2915540834189354, 8.5916593584038132)	(2.5895758095968091, -5.5164359759749537)	(1.3073602993077316, 3.2979125195132823)	1.0	slash	1.14187
10	M	A	B	N					A	4	1	shapes	A	6	True	52	(-6.0034331081828496, 0.87658234807544844)	(1.8847020418974338, 1.6825814042009331)	(6.8114291280034003, -3.3194340794293637)	(-5.2607532791203955, -3.2008890457010404)	1.0	z	0.906609
11	M	B	M	B	A	N	N	A	N	8	6	shapes	N	6	True	52	(1.3933431261814739, 8.1068148472570343)	(0.72745812198617443, -3.310528009962975)	(-4.9425899085783387, -3.2117729652298044)	(6.6552729463844589, -3.8436447292019027)	1.0	z	1.08069
12	M	A	N	N	A	B	M	B	N	8	3	shapes	N	6	True	52	(-7.8840127247191099, 3.0662801211499353)	(2.6779409266029379, -4.0939081644352857)	(-1.9587684206147085, 0.43648870643480109)	(3.9904884300216779, 0.81423582293903785)	1.0	z	1.15455
13	N	B	M	M					M	4	2	shapes	M	6	True	52	(6.8301292413146832, 0.72765394878610579)	(-5.7767908772914307, -7.1602115060686877)	(-1.63714625712353, 1.6146408708980609)	(7.6538375018930509, -7.1975382932476135)	1.0	z	0.76599
14	N	A	B	A					B	4	2	shapes	B	6	True	52	(5.5933459097246416, 0.50581957772987352)	(-1.1637637566082795, -7.4708764774328733)	(3.741185750532205, -6.1981900754587924)	(-0.15378822845088358, 7.8316944317408534)	1.0	z	0.909542
15	N	B	A	B	A	N	M	M	B	8	7	shapes	M	6	False	52	(-3.7734187029639488, 0.069488197582533218)	(6.9524723971807703, 5.0135018288176276)	(4.1600813279852851, -7.9634468878589626)	(-8.4770670223517772, -4.1585387888098486)	1.0	slash	0.661405
16	M	B	A	N					A	4	2	shapes	A	6	True	52	(2.3016780049747627, -8.1804519286456863)	(-0.9975149342807379, 2.0995010509927532)	(7.3084785391606744, 5.2855819245620879)	(-7.1137604864731392, -7.838985608615606)	1.0	z	0.6669
17	N	A	A	B	M	N	M	B	N	8	3	shapes	B	6	False	52	(2.7784339067128254, -2.4474372456408506)	(-4.1010609188016973, -5.1757229641815083)	(-2.2895432245953939, 1.015239325519607)	(-7.7978666497014562, -0.17781131931979388)	1.0	slash	0.648013
18	N	B	B	M					A	4	0	shapes	N	6	False	52	(-5.4864130646428642, -6.4019990793433355)	(3.1965418951057245, -0.59518131714622058)	(1.1494942605262963, 5.0238682100718215)	(-2.6637744808532684, 1.5277547407801997)	1.0	slash	1.55027
19	M	B	N	N	B	A	A	M	M	8	5	shapes	A	6	False	52	(-8.6516173661657216, -7.2370335294189054)	(-3.3231878219343409, 0.07344315175167182)	(6.9844585244051576, -3.908842869414161)	(1.6912451395629837, 1.9819860847709023)	1.0	slash	2.53903
20	M	A	B	N					B	4	2	shapes	B	6	True	52	(-7.3015938348116016, -0.43875593802836477)	(7.0841014864412202, 8.2294755487992219)	(-2.4634064870921693, 0.13833980694670167)	(3.5402801408518254, -3.1056556203417234)	1.0	z	1.37524
21	N	B	M	M	A	A	B	N	A	8	1	shapes	B	6	False	52	(6.3274715848082153, -1.5088134218171607)	(-4.6548739686291203, -5.4406786387910948)	(-6.7038477143842137, 8.2585440315641492)	(3.0862925790349003, 1.5932024154250843)	1.0	slash	1.30388
22	N	A	B	A	B	N	M	M	M	8	7	shapes	M	6	True	52	(-2.5305393502788709, 1.2379669133136222)	(1.0480837983425335, 4.7137393356674853)	(-6.723480013196018, -7.0865115829221725)	(7.9906827020194982, 0.57899740347880524)	1.0	slash	1.4279
23	N	A	A	M	B	M	B	N	M	8	3	shapes	M	6	True	52	(-6.565012857289263, 0.26807083874154891)	(5.3078858662558268, -8.3854385462976921)	(1.0100099327622818, 3.7884229557366709)	(-5.440313739330664, -7.2637310038800429)	1.0	z	1.29629
24	N	A	N	B					B	4	0	shapes	N	6	False	52	(4.4356750389951412, -8.2880325070353695)	(-1.5537860696449677, -4.5122431023163037)	(-7.4037108638447142, 7.6333302934073508)	(3.8912144128445956, 5.4581592548169446)	1.0	slash	1.59182
25	N	A	B	M					M	4	2	shapes	B	6	False	52	(-4.4842671484021128, 7.0906094070222192)	(-1.315975032541373, -3.2735043562208848)	(0.23411405086076442, 1.5699015576772286)	(5.3600305888246744, -2.5393870625490464)	1.0	slash	0.68371
26	N	A	M	B					A	4	3	shapes	B	6	False	52	(4.4331002955470513, 5.7348597990197785)	(2.7339201420837487, -0.57733606604034016)	(-2.5552887204628298, 7.0118602677735478)	(-4.402135362815133, -3.8535745773309724)	1.0	slash	0.837162
27	N	B	N	B	A	A	M	M	N	8	3	shapes	B	6	False	52	(2.5677242591678091, -8.6952215178118308)	(-6.5045438345509901, -8.556692594964062)	(-2.5936184104815778, 7.9127715949838056)	(7.9247718690683548, -5.8633965991302048)	1.0	slash	1.15279
28	N	A	A	M	N	M	B	B	N	8	5	shapes	M	6	False	52	(-1.9872863434799823, 3.8528457266051142)	(1.8765005042756631, -5.9062424410534273)	(-2.8974849794799979, -3.7692261942067509)	(-4.229605173668368, 7.5748282341207585)	1.0	z	1.32479
29	N	A	M	M	N	A	B	B	B	8	6	shapes	B	6	True	52	(8.3921285913856423, -2.3580487946001307)	(-8.6638533094437005, -2.7086882109671322)	(8.0690795925081495, -6.8377402840757888)	(-0.66682202054297157, 3.4227617487826745)	1.0	z	0.605595
30	M	A	M	A					B	4	3	shapes	A	6	False	52	(-3.5724313577147759, 6.546855091955166)	(7.1704095818938036, 4.7471583563621103)	(5.8773145268303981, -5.2143834800015121)	(-4.5394401232594603, -0.95679407127483529)	1.0	slash	1.31759
31	N	A	A	M					A	4	3	shapes	M	6	False	52	(2.9934461346852075, -4.9617538922628466)	(-4.7452156457282531, 5.1904627931615313)	(3.3463406279604975, 5.5544485668654655)	(-3.756505878929004, -3.6142515747336876)	1.0	slash	1.10915
32	N	B	A	N	A	M	M	B	M	8	6	shapes	M	6	True	52	(-3.4559563265298259, 6.3650268524189606)	(8.3234688807207071, -2.8596439624335614)	(1.2614939487398011, -3.1260980756063939)	(-2.5029697058317097, 0.021776568803909768)	1.0	z	1.41211
1	M	B	A	M	B	A	N	N	A	8	4	shapes	B	7	False	52	(-2.0874215766609945, 4.7164526250707475)	(3.146307516372282, -3.1811381361809419)	(3.5582490109912772, 2.0193522682524598)	(-1.2178390718035139, -6.9341930078020786)	1.0	z	1.82584
2	N	B	N	A	A	B	M	M	M	8	6	shapes	M	7	True	52	(8.4476617205878242, 3.9060929122842794)	(5.6525933814790363, -0.53515823479663105)	(-2.7364459479192522, -2.9581000923477516)	(1.6508262602203825, 3.6946947783572028)	1.0	slash	0.975469
3	M	A	B	A					B	4	1	shapes	A	7	False	52	(-7.7117027083363361, 0.94803275935353781)	(-2.3521428369188522, -4.3708444053277447)	(7.4098692747434818, -8.7153356916365183)	(0.68391235207509204, 2.4196783322126958)	1.0	slash	1.06174
4	N	A	B	A	N	M	B	M	A	8	2	shapes	B	7	False	52	(2.6592997889300189, -4.7811691342480698)	(-0.12426470400205503, 4.0667736283804938)	(0.16282942222068897, 0.0020615226715250401)	(-4.1381602335089864, 0.19576141484566989)	1.0	z	1.46684
5	M	B	M	N	A	N	A	B	M	8	2	shapes	M	7	True	52	(-4.3231270477204999, 8.6646102680612351)	(7.6215335711978298, 1.584570165870872)	(2.0616195691836712, 0.54068862068073642)	(3.5754449601571636, -8.3234479356180753)	1.0	z	5.11114
6	M	A	B	M					A	4	0	shapes	M	7	False	52	(7.3502255663751264, 3.7112550931126229)	(-3.1982359603919557, 3.4992740402743987)	(-5.7385848818149796, -4.7337719908884557)	(7.3368137798262154, -1.3469744159928059)	1.0	slash	1.28179
7	M	B	M	N					M	4	0	shapes	M	7	True	52	(-8.0673919890397379, 3.6045200075465118)	(-6.0486946733464251, -1.3534250722970027)	(5.6206407945254746, -6.1206479857114555)	(0.94539452659861389, 4.0419032832007034)	1.0	slash	0.643365
8	N	B	A	N					N	4	3	shapes	N	7	True	52	(7.9008326913091338, -3.7335291512128341)	(-2.0785696980580806, -2.6509544230031139)	(-2.3775990223195729, 2.4459209823514385)	(5.1726041185359151, 0.96830230041558707)	1.0	z	1.72551
9	N	A	N	B					B	4	1	shapes	A	7	False	52	(-1.0880015449280043, 1.9987997649936702)	(3.9323577811030752, -8.0142727612699396)	(-0.73575998673330822, -3.5224590431483378)	(1.9716215822569811, 6.9211430766001616)	1.0	slash	3.2925
10	M	B	M	B					B	4	2	shapes	M	7	False	52	(2.954283128603608, -2.1939427538865841)	(-5.9199468580603121, -3.32257347742493)	(-2.7139592644135604, 6.8619596269295169)	(0.004026226840357694, 2.6603555906183516)	1.0	z	8.54634
11	M	B	A	M	N	B	A	N	M	8	3	shapes	M	7	True	52	(3.3142881912857689, 5.5453706020123086)	(8.3886651357426878, -7.8253743430579012)	(-3.4559693283043567, -5.2494376997188867)	(4.2338467413276142, -7.6163176885083814)	1.0	slash	3.11948
12	M	B	N	N	M	A	A	B	B	8	3	shapes	N	7	False	52	(-1.0948516228128398, -7.1334964490064028)	(2.4441790480811765, -2.0745123684790858)	(4.7338163113425598, 1.8362273627058077)	(8.440341707803924, -6.1120053142388677)	1.0	slash	1.57043
13	M	A	N	M	N	B	B	A	N	8	0	shapes	M	7	False	52	(0.39344952387257237, -5.0814981500494216)	(-1.7319375567050157, 2.2318192338377596)	(-5.8950542845679923, 6.2380320465691721)	(-5.5537699739813906, -6.5217029972585712)	1.0	slash	2.85803
14	N	A	M	A					A	4	0	shapes	N	7	False	52	(-6.0121376132638051, -6.8225371098259098)	(-7.5457349612438538, 3.0289119900101245)	(8.6191314357606288, -3.7821836859896489)	(8.4390116427288859, 8.014625246484659)	1.0	slash	0.934256
15	N	A	B	M	M	B	A	N	N	8	0	shapes	N	7	True	52	(8.1590900246114906, 6.2842812813646614)	(-8.1600614511123499, -2.63979258673894)	(1.3115097972365533, 6.8780830436370852)	(5.9803659842909003, -4.9080322369466121)	1.0	slash	0.62319
16	N	A	M	B	N	B	M	A	N	8	3	shapes	B	7	False	52	(6.5935892738327606, -2.0273604327278996)	(-5.8460779917200769, 7.8750145047104567)	(-7.7550711396308003, 3.9804196526517366)	(-2.086184278548262, -1.2602889415230649)	1.0	slash	1.37303
17	N	A	M	M					M	4	2	shapes	M	7	True	52	(-2.6199586003857762, 6.5038711761489552)	(2.3744821294856173, 2.8599457719846395)	(-8.529408648928861, -6.1087979244586403)	(0.92605085508765761, -6.8263211245219706)	1.0	z	1.67661
18	M	B	B	N					A	4	1	shapes	B	7	False	52	(-0.73340093378482152, -8.5872025919076975)	(4.4891326224246324, 5.9070569697417437)	(-8.5421191792292408, 1.2206636109156968)	(3.445214282256309, -1.5997441163313919)	1.0	z	0.536709
19	N	A	M	B	N	A	B	M	M	8	3	shapes	B	7	False	52	(0.56410414946674337, 1.5022987908572514)	(2.4234939385982255, 8.1987334415497735)	(-0.84595985250815797, -6.969215524581629)	(-5.8391261252899032, -4.254757071263338)	1.0	z	0.623945
20	M	B	B	A					A	4	3	shapes	A	7	True	52	(1.4251618052288499, -5.3333413681318884)	(7.9691619130997076, 3.7284087150823133)	(-5.4932229591981869, -2.3802713259197645)	(-2.6873724243879611, 4.9303060991111085)	1.0	z	0.460119
21	N	A	B	N	A	M	B	M	M	8	5	shapes	M	7	True	52	(-7.3997979150052418, -2.4233906455687118)	(-5.7391126711674829, 8.4246277426394478)	(7.9681627384736409, -5.979153291240106)	(2.4753018626928487, -4.3138902181159606)	1.0	z	0.795375
22	N	A	B	N	M	A	M	B	M	8	0	shapes	N	7	False	52	(7.4228752581039039, -1.6446413118732162)	(0.36126697909185879, -5.1096892509858254)	(-3.2214882323547211, 6.2125599477420064)	(-5.2332332773380825, -5.5832647124704673)	1.0	z	0.815355
23	N	A	N	M	M	B	A	B	B	8	7	shapes	B	7	True	52	(-3.9889328027800097, -7.8773985015651027)	(-2.9726296536297498, -0.85990393489492956)	(0.44865870450085055, 4.3791241114467798)	(2.0424543683725478, 0.23035191121071463)	1.0	z	0.422446
24	M	A	A	B					B	4	0	shapes	M	7	False	52	(-0.62778420068118024, 4.5627448530920702)	(-4.0373554429445679, -2.8265739264293819)	(3.8025437755268925, 1.7183053323446558)	(3.1755746453197897, -2.3046178136040272)	1.0	slash	1.31389
25	N	A	A	B					A	4	1	shapes	A	7	True	52	(3.5825400298598549, 3.191472171559731)	(-3.0012153218458781, 6.451884140403207)	(1.4060104634567541, -4.290534032849723)	(-0.17464288000205386, -8.0396862655831711)	1.0	z	2.94741
26	N	A	N	A	B	M	B	M	N	8	2	shapes	N	7	True	52	(-7.6627325453214032, -2.9450835556893677)	(0.44158335509725255, -6.1164227773317617)	(-3.933650556097815, -7.9871059650419429)	(8.2861017297745541, 3.850046646366108)	1.0	slash	1.34513
27	N	B	N	A					N	4	0	shapes	N	7	True	52	(6.9237842366073394, -3.3040359544695495)	(6.7737434780934418, 6.3929074452809918)	(-1.7446096314021338, -7.4169197017012412)	(-0.72158315777642201, 1.5361954893992404)	1.0	z	1.35142
28	M	A	N	M	A	B	N	B	M	8	6	shapes	N	7	False	52	(6.970393643878257, 0.053838052889446431)	(4.0864731264516951, -3.3962336474480841)	(0.0098833878943942466, -3.8428015591718214)	(-7.9400117307890117, -3.5589863719781736)	1.0	slash	1.36236
29	M	B	A	B					M	4	0	shapes	M	7	True	52	(5.3363456427034155, 2.7333951742284999)	(1.6373542154662051, -6.0906859600296874)	(-1.0954768393897245, 5.4700379036106739)	(-7.2646181684786519, -2.9332973666613178)	1.0	z	1.01864
30	M	A	A	B	B	M	N	N	N	8	6	shapes	N	7	True	52	(-4.5063806100727613, -4.7808567564631002)	(-0.12064694969326695, -2.9271663617128683)	(5.6696230962370251, 3.8369765191567389)	(-2.2029516125764923, 6.7560941361875742)	1.0	z	0.771797
31	M	A	N	N					A	4	0	shapes	M	7	False	52	(6.1720461228464529, -1.3661818169859004)	(3.4739183356307333, 3.6170741464883651)	(-7.8777241708271575, -8.1933057159605092)	(-4.744365980013951, 7.0042106074917427)	1.0	slash	1.30778
32	M	A	A	M					A	4	2	shapes	A	7	True	52	(1.0957271476735357, 4.0388804747473728)	(6.2938674960912593, -3.2518010936748976)	(-7.5752466254294806, 5.6601233718799282)	(-7.8341633980376901, -5.6614069759018797)	1.0	z	1.55744
1	M	A	N	A					M	4	2	shapes	N	8	False	52	(-5.9452541159176544, 4.931370655029955)	(1.7173421521080723, 0.77969167155054819)	(-2.4244698939636855, -3.2037301656321482)	(4.0163401738558324, -7.6064033825548467)	1.0	z	0.633006
2	N	A	M	A					A	4	1	shapes	A	8	True	52	(-1.0364244164109637, 4.0090476020895167)	(-5.4930320099581866, -1.9285598085717046)	(7.1751025444488832, 3.5936417900625361)	(5.1988887422886663, -0.59854282455002483)	1.0	z	1.02073
3	M	A	N	M	B	N	A	B	A	8	1	shapes	A	8	True	52	(-3.0080813706585783, -3.4752389445294307)	(3.1823767117544381, 2.0441482658993646)	(-1.0248751701142247, 5.5431757238151196)	(-6.6574034471313288, 1.1422189564139398)	1.0	z	0.891952
4	M	A	N	B	A	N	B	M	M	8	5	shapes	N	8	False	52	(-5.7414811566326343, 7.7978459952375587)	(1.0645032404017236, 5.8829526497171614)	(2.337769489060614, -2.1421613992018118)	(-6.632076352648717, -8.3493846493625909)	1.0	slash	1.48606
5	N	A	M	N	M	A	B	B	A	8	4	shapes	M	8	False	52	(-5.4321069907401185, -3.5098452243987994)	(-8.5210172158779862, 7.4913766680415961)	(1.5829592951595455, 6.4867438311445476)	(-3.0248186106776931, 5.5822904895276348)	1.0	slash	2.06516
6	N	B	N	A	A	M	B	M	M	8	7	shapes	M	8	True	52	(-4.1715638115870242, 2.0530301956657215)	(4.2066490384949198, 2.6161395007716148)	(8.0373021799128033, -5.5218259322004073)	(2.2687009684570274, -7.0645461445655195)	1.0	z	1.11861
7	N	B	B	M					N	4	1	shapes	B	8	False	52	(-7.3724529228016022, 8.0905829998672658)	(-8.2402551140681748, -3.6176611954252191)	(7.5009634338735971, 1.8201653317091147)	(5.9340881257231075, -4.7848844942331041)	1.0	slash	2.12073
8	M	B	M	A					A	4	2	shapes	M	8	False	52	(-5.4783919579709615, 3.0328337994704544)	(5.6497774314606577, 5.0595799490076665)	(5.3924296072847682, -7.2403626058375217)	(-4.6858192324796111, -7.7271294055844004)	1.0	slash	1.4903
9	M	A	M	A	N	N	B	B	A	8	1	shapes	A	8	True	52	(-3.3554736403626979, 1.7915613138025765)	(8.09691501062537, 0.52184577493077988)	(-2.0756443177580275, 6.1854170026491602)	(4.6826164698184325, -4.9952864089230946)	1.0	z	2.10955
10	N	B	N	B	M	M	A	A	M	8	0	shapes	N	8	False	52	(6.0469187068062968, -7.0463270860067606)	(8.0652439505792728, -2.0026587537912279)	(-5.7699820523740799, 4.2799799075154201)	(7.4884138842342054, 4.8550453202441037)	1.0	z	1.37299
11	M	B	B	A					B	4	3	shapes	A	8	False	52	(0.51769854752661004, -5.1614081514620977)	(-4.9743652210684903, 1.9403927101915723)	(0.71193929048227211, 6.633200084828518)	(-3.5203442098411184, -2.0151387242900709)	1.0	slash	1.85272
12	N	A	M	M					M	4	3	shapes	M	8	True	52	(-1.1193967020660924, -2.9095710766255651)	(6.0352318183749265, 4.015757155767476)	(-8.5271712456946869, 2.5974289850942327)	(6.4254473503559542, -1.0853743693584601)	1.0	z	1.79677
13	M	B	B	A	N	A	M	N	B	8	2	shapes	B	8	True	52	(-1.7750040882395872, 1.8938077788592302)	(-8.7189655335445178, 5.1005376562548363)	(6.5845538270519715, -8.6060794155527809)	(-7.7932020721782482, -6.3919232251737856)	1.0	z	1.30373
14	N	B	B	N					B	4	1	shapes	B	8	True	52	(-5.4537932379512686, -5.856064285242204)	(4.9583096044371935, 6.957169007002495)	(4.1337445783803446, -5.9593918655013951)	(-4.9485218354585347, 2.8212619646035701)	1.0	z	0.901783
15	N	B	B	A					A	4	3	shapes	A	8	True	52	(2.7614113530168769, -0.95180702924483818)	(-3.6334981841278919, -0.2448559881408805)	(-0.1087515950255824, 6.4371087475785682)	(4.51649953394897, 6.3982352978036925)	1.0	z	0.657834
16	M	A	B	N	M	A	B	N	B	8	5	shapes	A	8	False	52	(6.8121098626804297, -4.1498292507628678)	(-7.7496507122420946, 2.2096149970169225)	(-1.9543797854996843, 8.252664648093905)	(2.6696253951479001, -3.3859684452937397)	1.0	z	0.715341
17	N	A	M	N					N	4	3	shapes	N	8	True	52	(4.6937372166436653, -7.9939578870216819)	(-5.1608555092746222, -3.6552265693302619)	(-6.744437662587826, 1.902710086856418)	(1.7407434246511766, 0.83224601647220986)	1.0	z	0.750433
18	M	A	A	M					A	4	1	shapes	A	8	True	52	(-4.559702602416885, -6.5735439949844601)	(5.2958217788312361, -1.9029353025500972)	(-5.3215041559144858, 6.7122227317837968)	(3.10375555835029, 7.4506914623257821)	1.0	z	0.738452
19	M	B	M	A					A	4	3	shapes	A	8	True	52	(-0.32424828302185738, 7.6777315957561996)	(3.2709208227414628, -3.8283780748647107)	(6.275293542849381, 6.3660430175401306)	(-6.9348709468520759, -4.6302364128787472)	1.0	z	0.560245
20	M	A	N	A					M	4	2	shapes	N	8	False	52	(7.9657834379398906, -3.0142109598856095)	(-4.0027341046537721, -8.6454308993781108)	(5.6777010663186633, 3.9327576213954654)	(-7.5001592762396641, 3.7149515102223951)	1.0	z	0.697447
21	M	A	A	M	N	N	B	B	A	8	4	shapes	N	8	False	52	(-5.7811581597152797, -4.0960777899091987)	(6.463653962121608, 8.4286178269081091)	(0.27767924779297459, -3.7119209988165824)	(-8.359694028902581, 3.4981868290952924)	1.0	slash	1.44912
22	N	B	N	A					B	4	3	shapes	A	8	False	52	(7.0938553827649056, 6.1908756124757716)	(-3.4585840823973433, -1.5896760442394271)	(-6.4319041874877652, 7.5071263322198831)	(0.61044461192615884, -8.0090734488597466)	1.0	slash	1.51225
23	N	B	N	B	M	M	A	A	N	8	2	shapes	N	8	True	52	(-4.4229530268129995, -6.4812352207320529)	(-8.6062575321918757, 7.3593486480319577)	(-2.7709720136389899, 8.2822363005970274)	(1.7559084860745795, -2.6493151196542239)	1.0	slash	1.07625
24	M	B	A	A	B	N	N	M	N	8	5	shapes	N	8	True	52	(-4.7248571399820323, 3.1114883654757453)	(6.2612116220626408, 2.5046597463618934)	(-8.4579987976921736, -7.5720458521528)	(3.2469287274799914, 7.028908897803829)	1.0	z	1.46683
25	M	B	B	M	N	A	N	A	B	8	1	shapes	B	8	True	52	(4.9080798002450479, 7.5348612562662289)	(-7.5860510170639603, -6.1103891613039654)	(-4.7973303009729289, -1.7213549014138376)	(0.68648949953663063, -5.1051748766367977)	1.0	z	0.863812
26	M	A	A	B	B	M	N	N	A	8	4	shapes	B	8	False	52	(1.1319197637200293, 3.8433184438654404)	(6.4053631542365288, -0.84626727434411286)	(2.7800931466542789, -7.9816749595520156)	(-8.5063365200697003, 1.5009858712145725)	1.0	slash	1.23695
27	N	A	B	B	N	A	M	M	N	8	6	shapes	M	8	False	52	(-3.0532032986374569, 6.7025707612959771)	(-7.3371903358783692, -0.60448562726137034)	(2.6299574403100312, 4.2950753102983903)	(-0.12310156198055289, -7.1079308380436945)	1.0	z	1.20933
28	M	B	N	B					N	4	2	shapes	N	8	True	52	(-5.725028932113271, 7.0890035603953709)	(-7.5559321208985821, -8.1714522995665924)	(3.5337350587350986, -7.7639506770640176)	(1.7868735281984431, 3.1661984165022918)	1.0	z	0.824693
29	M	A	A	N	B	B	N	M	N	8	3	shapes	N	8	True	52	(1.3356898894224063, -8.1108566772988198)	(-3.7162065495889838, -0.39039835455414718)	(-8.0626488139676109, 7.58331816691204)	(7.4046208525868948, -3.0787473449824754)	1.0	z	0.736643
30	N	B	B	A	N	M	M	A	A	8	4	shapes	N	8	False	52	(0.28346413153761851, 0.65217326414860111)	(3.6536653465572861, -1.7579625518558384)	(7.381265647018683, 7.3043344818545819)	(-7.5392703916183335, -2.5291693595300853)	1.0	slash	1.39147
31	N	A	M	M					B	4	3	shapes	M	8	False	52	(-6.7093737637356705, -4.609619666076143)	(1.8440346410705075, -4.4610044452155764)	(3.602300134250763, 1.4060048251479937)	(-1.2022308166865425, 3.4294189140632909)	1.0	slash	0.739255
32	N	A	A	B					A	4	3	shapes	B	8	False	52	(8.3686605949674231, -4.1210265556710031)	(8.5478852755173413, 8.4879777180329299)	(-6.0990353990842063, -7.5331109482666134)	(-6.797073533895702, 7.1944693159836408)	1.0	z	1.11958
