TrialNumber	stim0	stim1	stim2	stim3	stim4	stim5	stim6	stim7	stim.probe	ttl.stims	corr.num	trial.type	stim.corr	block	match	Subject	stim.pos0	stim.pos1	stim.pos2	stim.pos3	ran	resp	RT
1	N	B	M	B	M	A	A	N	M	8	5	shapes	A	Practice	False	53	(5.9806849612484534, 7.9777814847206159)	(3.5810560879492872, 1.8680483181800209)	(-1.2236762872975353, 8.3478233262787391)	(0.97264362019469175, -2.0680838896345568)	1.0	z	5.38495
2	M	B	B	A	M	N	A	N	A	8	3	shapes	A	Practice	True	53	(4.2368150895505643, -4.8806332315027987)	(8.6775507887174896, 0.34372537296224515)	(-6.0436334205087734, -3.5872963127735673)	(-1.3058072859887293, 6.8318156484882397)	1.0	z	4.31225
3	M	A	M	B					M	4	2	shapes	M	Practice	True	53	(-8.1294698437572368, -8.2221316598217129)	(-7.1055658710451812, 4.0482950413504053)	(3.4318205238250741, 1.6647414490554571)	(5.0653202170521237, -5.3341460102689897)	1.0	slash	3.33958
4	M	A	B	B					N	4	1	shapes	A	Practice	False	53	(-1.1012862225508062, -7.0587598065750097)	(5.1837429753115103, 2.8588060463652063)	(-4.2422618056867751, 1.3607122546170789)	(4.8137657670337468, -4.9837144632965522)	1.0	slash	2.473
5	N	A	A	B					B	4	2	shapes	A	Practice	False	53	(6.0779939456700944, 6.3015747299183644)	(-3.4749548456550885, -3.4038815354611565)	(-4.322277303388951, 6.327932137416564)	(6.7284277672154555, -0.20916569259597395)	1.0	z	2.47479
6	M	B	N	M					M	4	0	shapes	M	Practice	True	53	(3.716009901700188, -6.9626509621632575)	(0.077745853136812926, 6.3602048461067913)	(-3.7673539474003848, 5.184185586853598)	(-3.6023896328603717, -7.013545238415805)	1.0	slash	2.70208
7	M	A	M	A	N	B	B	N	A	8	0	shapes	M	Practice	False	53	(-0.21698933256125486, -3.5462837787700678)	(-5.5310109687479674, 5.6287419827030387)	(0.37864680698523934, 3.835202071630853)	(4.4011601972312953, -3.6386468212536993)	1.0	slash	2.21936
8	N	B	N	B	A	M	A	M	M	8	7	shapes	M	Practice	True	53	(5.0566618003814714, 5.9469188841184515)	(1.615150574076738, 3.706597115597658)	(-2.9594854270699829, -0.88965969598103989)	(1.1843438489212446, -2.6151092460551357)	1.0	slash	3.72493
1	M	B	N	B	A	M	A	N	A	8	5	shapes	M	0	False	53	(-4.2972354185889614, -7.5990439354623973)	(3.9069947105162868, -2.8764575706094142)	(-8.3876111608989472, 4.7560985330804151)	(0.0034890951911403789, 3.5854272483238638)	1.0	slash	1.91472
2	M	A	N	A	M	B	B	N	N	8	2	shapes	N	0	True	53	(-4.7165046318799986, 8.0291050110498681)	(8.7482839302679665, 8.3156998485611666)	(-2.1993552568738028, -4.5119963012514246)	(-4.3748133179325661, 0.11422530137382481)	1.0	slash	3.43803
3	M	B	M	B					B	4	3	shapes	B	0	True	53	(7.6729821033743448, 7.6308239564974691)	(-6.2594970040073408, -8.0875180137334901)	(2.7807732364020126, -0.41399184116789556)	(-0.10263944751373266, 8.2282693113014211)	1.0	slash	1.66376
4	M	A	N	B	A	B	M	N	M	8	5	shapes	B	0	False	53	(-2.2754233234682504, -0.038528593679332701)	(0.65419019519502442, 3.0148786867062061)	(-1.3195059007861412, -7.0857576077890672)	(3.3173300258736784, 8.1426042070878246)	1.0	slash	1.68507
5	N	B	B	N					N	4	3	shapes	N	0	True	53	(-7.883248207088319, -8.0990051489902335)	(-5.5082125549001049, 3.70834306203969)	(4.8670918764844533, -0.23550248060985624)	(8.6754321704574764, 3.7844295464549642)	1.0	slash	1.78072
6	N	B	B	A					N	4	0	shapes	N	0	True	53	(1.9401240206445944, -8.4587269005248942)	(-2.6236714087812443, 0.45059999487282454)	(6.0482278225993316, 6.6992604612767792)	(-6.3487197220849581, -5.9390126353611619)	1.0	slash	2.53836
7	N	A	N	A	B	B	M	M	N	8	2	shapes	N	0	True	53	(5.0865130860072583, 0.02388184820334871)	(-6.324573632717664, 7.9828383485584276)	(0.6645528609185174, -4.0162163058298725)	(-4.1609886536629599, -2.6095837788176963)	1.0	slash	1.42596
8	N	B	M	A					A	4	3	shapes	A	0	True	53	(-0.056629427997615167, 1.4385286081234039)	(0.79150672820061629, -4.9274122438429071)	(2.9542432178183926, 6.7347092465370668)	(-2.2276791161530189, -8.7432995346219577)	1.0	z	1.55962
9	M	B	N	B					N	4	1	shapes	B	0	False	53	(0.61517818540514924, 0.83294620753891557)	(-0.92463049112836426, -7.631683131322192)	(-5.1208990029575192, 3.8613007397061239)	(8.6659237266249249, -0.77387250305932564)	1.0	slash	1.56119
10	M	B	A	A					M	4	2	shapes	A	0	False	53	(-0.90028273508244361, -2.2709560620479454)	(1.3816887784565282, 2.5979940725462409)	(5.7823183028062974, -6.9296432017878828)	(-8.1205242836987193, 6.3467028333631124)	1.0	slash	1.291
11	M	A	B	A					A	4	1	shapes	A	0	True	53	(6.2341327038876226, -5.2984552848901272)	(-5.0276301890089092, 6.1862078236793376)	(3.6808033395927495, 8.4154318085280693)	(-5.4240240405221671, -5.7641369694027542)	1.0	z	1.26635
12	N	B	M	A	B	N	A	M	M	8	5	shapes	N	0	False	53	(-2.975456146005433, 0.16581448396314613)	(2.9683116272442689, 6.0565072044282875)	(-6.2275966888337475, 4.4559077531431051)	(3.3456660512801548, -3.8376716441857255)	1.0	slash	1.552
13	M	B	M	B					N	4	3	shapes	B	0	False	53	(5.2704555334640624, -2.1032809154157661)	(0.47818547744152085, 3.6658438759528735)	(-7.9959468467194812, 5.6067811861322845)	(-1.8833419205042334, -0.44095916929934731)	1.0	slash	1.55549
14	M	A	M	N	B	B	N	A	B	8	5	shapes	B	0	True	53	(-4.8252364465610142, 7.583183048746605)	(7.8707242173808218, -1.2798280157164514)	(2.9369711325567014, -8.5269259840234888)	(-0.42608601054685558, -5.1500217802464956)	1.0	slash	1.89516
15	M	B	N	M					A	4	3	shapes	M	0	False	53	(-5.1060131729269411, -4.779318135975247)	(4.1472174378397124, 1.6327475576971704)	(0.50146782451991179, -7.6193086745566472)	(-6.8202923171163556, 7.250086785815153)	1.0	slash	1.28672
16	M	A	A	B	B	N	N	M	B	8	4	shapes	B	0	True	53	(7.2494443007288787, 0.12677267780575896)	(-5.5496570249568107, 7.8399154529509048)	(-7.3891562680880707, 2.479967154228051)	(6.309678485608444, 4.4183507673587901)	1.0	z	2.69055
17	M	B	N	N					N	4	1	shapes	B	0	False	53	(-5.2161441576516268, 5.7024975857144327)	(0.3580970764214495, -6.7756483423450042)	(8.5016112916894109, 1.3805511455888677)	(-5.268168144007185, -1.2151290016037155)	1.0	z	1.51393
18	M	A	N	N					B	4	3	shapes	N	0	False	53	(-7.2998277052706433, 0.0029340065610590216)	(0.68769772292240816, 7.6130260489829347)	(0.25656539025999159, -4.3552926462419492)	(-4.0628166515360737, -2.8718145122410474)	1.0	slash	1.45354
19	M	A	N	M	N	A	B	B	B	8	0	shapes	M	0	False	53	(3.5798019410516435, -8.6142529091945086)	(6.7387893686567537, -5.6243982589963863)	(1.2976957859224001, 3.95816177928989)	(-6.3842007756927961, 6.8043208946680789)	1.0	z	1.28495
20	M	A	M	N					N	4	2	shapes	M	0	False	53	(-7.7589781213755309, 8.6871526436742492)	(6.2600665975213552, 5.977327902299626)	(-0.6185027369924363, -1.8271966747391666)	(4.4236026401530779, -1.62060418869478)	1.0	slash	1.21462
21	N	B	N	M	B	M	A	A	A	8	7	shapes	A	0	True	53	(-5.8369169352385288, -4.7427006987547351)	(3.254237729707679, -4.6224835946296983)	(-6.0029479793276028, 3.6671493552070764)	(4.1443164154977179, 4.3396719691855008)	1.0	z	1.29431
22	N	B	N	A					N	4	2	shapes	N	0	True	53	(-3.1158417370552822, -1.4020606922556773)	(5.8248750439878272, 5.7502285467950447)	(5.3521168628627862, -1.9945813657935929)	(-6.7093988006597902, 8.5703642912112059)	1.0	z	1.12593
23	M	A	N	B	A	B	M	N	A	8	5	shapes	B	0	False	53	(5.7380228299687399, -3.3767143779224176)	(-3.6880992309092981, -8.3092942371576797)	(-1.6809812916005589, 0.10987800978923623)	(2.6927374886084792, 7.8208685838349652)	1.0	z	2.66557
24	M	A	A	N					B	4	2	shapes	A	0	False	53	(8.6082660253189438, -3.0661170621834097)	(2.5227408525551169, 8.4528922605976469)	(-3.0852208708060136, 8.2075599414930807)	(-8.5865200733969615, -8.6115428867449051)	1.0	slash	1.23113
25	M	A	A	B	M	B	N	N	N	8	3	shapes	B	0	False	53	(-4.4005498037668316, 5.305623178418573)	(5.2582752203776995, 4.9135971023693834)	(2.6971937657881018, -1.2064568314470669)	(6.6477096268444331, -7.0101637389802134)	1.0	z	1.11011
26	M	A	M	B	A	N	N	B	B	8	0	shapes	M	0	False	53	(7.7352356451139919, 5.5462640219443013)	(-0.60451220034155995, -5.6391291205302743)	(-0.045839451010181165, 3.1037785557091482)	(-6.8326195221507717, 5.5433749243956605)	1.0	z	1.1103
27	M	B	N	B	N	M	A	A	A	8	7	shapes	A	0	True	53	(6.7744951349480313, -7.2463093092537916)	(-0.36407440851362161, 1.8501280180966972)	(7.59646928376619, -0.63284203155284935)	(-1.0292118700427517, -4.2401654403063018)	1.0	z	2.34813
28	N	B	B	M					N	4	0	shapes	N	0	True	53	(-3.2654824138650458, 3.2034241625098101)	(1.5383888342731442, 4.6370283671805961)	(-6.5158673292678246, -4.1584257314781174)	(1.5609387635220919, -4.6298720948920886)	1.0	slash	1.27136
29	N	A	M	N	A	M	B	B	N	8	3	shapes	N	0	True	53	(8.4908795713270671, -4.1040009497481105)	(4.2087763810793621, 7.5340519227173068)	(-2.0956941033023355, 2.9091920070124342)	(-8.6360636445336976, -4.3925872364378939)	1.0	z	1.43655
30	M	A	N	N	M	B	A	B	N	8	0	shapes	M	0	False	53	(4.0168570542333004, 7.6201254354045851)	(-3.6376074561113629, 4.8217681900395704)	(-2.1590905834713627, -3.0796185439668742)	(-6.5774415752724096, -2.4355776984333293)	1.0	z	1.21675
31	N	A	B	A					B	4	2	shapes	B	0	True	53	(7.85258969800811, -2.8665602579143057)	(-5.169925672534708, 7.0940619679951187)	(0.12617980616622937, 2.8502465871159064)	(-5.0601414903226258, -5.1885108760883263)	1.0	z	1.32018
32	M	A	B	M	B	A	N	N	B	8	4	shapes	B	0	True	53	(-3.6939516564933674, 8.3541810075466572)	(-7.5295152284852556, 4.5413897561864278)	(-8.3495344618618432, -2.721936055629441)	(-1.095575305759878, -3.8715279734893837)	1.0	slash	2.92544
1	M	A	B	M					A	4	0	shapes	M	1	False	53	(-0.9095379983059857, -0.075089322539714232)	(-1.4247531404199689, 6.3012841811881692)	(1.9456452065021779, -8.5531078316980533)	(4.2519295109979041, 0.7003375204623179)	1.0	slash	1.14741
2	N	A	N	A	B	M	M	B	N	8	2	shapes	N	1	True	53	(-1.3850572841021558, -1.8281693970914343)	(-5.8107684782225419, 8.3784335195250677)	(7.2762961440890486, -5.4053467648075006)	(5.4041679183448714, 3.9116208021434495)	1.0	z	1.86616
3	N	B	M	N					N	4	3	shapes	N	1	True	53	(-5.8368830374625729, -4.9183843281891519)	(4.7746567014099099, -7.3993962977494707)	(-7.6119245193317688, 8.2117671874124127)	(0.20381645903622925, 7.8249981177024672)	1.0	z	1.16198
4	N	A	N	M	B	A	B	M	B	8	7	shapes	M	1	False	53	(-1.7827934893027564, -6.5931335130824387)	(0.93553461756570222, 1.076651813635209)	(6.3310695794269414, 5.7145475943603703)	(6.7451369209941774, -8.3051617606329717)	1.0	slash	2.93027
5	M	A	A	N	M	B	B	N	N	8	5	shapes	B	1	False	53	(0.10590787419179826, -8.0897914826528936)	(-7.4537435097325568, -5.2621566932082091)	(2.9616661190195845, 8.6525727459821802)	(-2.809768535296989, 5.7871878539556061)	1.0	slash	4.42725
6	N	A	B	A	N	B	M	M	B	8	2	shapes	B	1	True	53	(-4.3638821821436551, 3.6344480415466336)	(3.379677827687221, -7.3327626357204814)	(5.9454196550021372, -0.052643316299274545)	(-5.0848026179364672, -7.4474360446870413)	1.0	slash	3.01702
7	M	B	A	N					M	4	1	shapes	B	1	False	53	(8.4643434994636912, 2.6606851804213161)	(-2.095022063419659, -6.6333854337892406)	(8.3134687590399174, -6.606021921609619)	(-0.35620114271192982, 1.8571976774193111)	1.0	slash	1.87858
8	M	A	M	A					N	4	2	shapes	M	1	False	53	(-8.7306032927263733, -4.5824814530174027)	(6.7429259989601729, 1.9794122608760656)	(-1.9614658750836051, 4.4607058366010648)	(5.4826048728237318, -6.3133378057486675)	1.0	slash	1.49608
9	N	A	B	A					B	4	2	shapes	B	1	True	53	(8.1498637275451244, 1.854546252180624)	(-7.5361004048578479, 3.9060865910063391)	(-8.3752452767238363, -7.6026524364999384)	(0.37741093880833176, -2.4393279947835289)	1.0	slash	2.34172
10	M	A	A	N					B	4	3	shapes	N	1	False	53	(0.52026142150027077, 1.3683240493334523)	(2.5020246040151299, -6.0559449400098675)	(-4.7507472273906384, 6.4776549381960855)	(-4.8708156025670331, -2.0430985336991663)	1.0	slash	2.16326
11	M	A	M	A					N	4	1	shapes	A	1	False	53	(-3.0374102331571065, -0.24430793011869412)	(-5.7786382595927721, 4.2605950372518144)	(3.7649912199885076, 0.79589306316665365)	(5.8297252600190692, -6.2550985396902359)	1.0	slash	1.04481
12	N	B	A	N	B	A	M	M	B	8	6	shapes	M	1	False	53	(-6.092926765875986, 6.0658909248931145)	(-2.7630192123356068, -1.1085685936092249)	(0.60044000137699349, 8.0159842563017598)	(2.5619148927854383, -4.7539980655414862)	1.0	slash	1.41645
13	N	B	A	B	N	A	M	M	M	8	6	shapes	M	1	True	53	(7.9810938371067159, 2.7273536342413376)	(2.1091396302666556, -6.6238045859496051)	(8.2568174839371373, -5.8147820752139117)	(-0.21123854836481293, 8.5722013895241567)	1.0	z	1.26421
14	N	B	A	B	M	M	A	N	M	8	5	shapes	M	1	True	53	(-1.5472350345250474, -2.0252436182208733)	(-5.1779490339558834, 0.5637829790826494)	(3.420306300779405, -5.64587571119168)	(-6.0592450020030322, -8.0788096080250469)	1.0	z	1.13566
15	M	B	A	N	A	B	M	N	M	8	6	shapes	M	1	True	53	(-8.7323391080837531, -6.9872939165049353)	(-6.5275182849493376, -0.94279368904269578)	(-5.5944891028042001, 4.1712368925682384)	(1.2117211489382704, -8.0023332696784308)	1.0	slash	1.95925
16	M	B	N	N	M	B	A	A	B	8	1	shapes	B	1	True	53	(-7.888605778716693, -2.7300917746057154)	(4.5824268326564912, 1.7945287504282863)	(-2.1934636725576739, 4.551701937655146)	(7.5276260059339215, 5.4087701115812141)	1.0	z	2.18696
17	M	A	A	N	M	B	B	N	M	8	7	shapes	N	1	False	53	(-4.0848394659104521, 5.8738851518617654)	(-0.84837197035709178, -2.3234617280741139)	(3.5211867222723257, -8.5879435753189188)	(7.8746337137954541, -7.2339446683678421)	1.0	slash	1.36037
18	N	B	M	B					N	4	1	shapes	B	1	False	53	(2.3441352760358534, -7.1669789724188053)	(-1.3706200026253033, -4.7126455549201385)	(0.43544155327216494, 6.7614631689684987)	(-7.0468645995986314, 2.3486102439724323)	1.0	slash	1.09802
19	M	B	M	B					A	4	1	shapes	B	1	False	53	(-7.5327225739714923, -0.025583519238674413)	(-3.8420965485602538, 1.8369539388219884)	(2.3976693306920165, -1.6962023311854821)	(8.4828646470594116, 6.0591105814530088)	1.0	z	3.54359
20	M	B	M	A	B	A	N	N	M	8	1	shapes	B	1	False	53	(0.27793208728018826, -5.0567241711843991)	(-4.87659376241057, 8.5680225318826899)	(1.7694624849563123, -1.0325277962370834)	(2.717708214467347, 2.8824424535790918)	1.0	slash	1.16712
21	N	A	A	B					A	4	1	shapes	A	1	True	53	(8.3472597465286249, 3.5958947418349609)	(6.729759621786739, -3.5922028428389137)	(-5.8235507472563199, 2.6502544426493007)	(-7.8908711775345317, -6.2754703883808522)	1.0	slash	1.96016
22	M	A	M	N	B	B	N	A	M	8	0	shapes	M	1	True	53	(-4.578152646076215, 5.1337952244870007)	(2.2240515160709755, 8.3564296585021793)	(-4.4980792620465184, -8.5391328143328185)	(7.0425599600856152, -6.9668258449340996)	1.0	slash	1.24636
23	M	B	M	B					M	4	0	shapes	M	1	True	53	(-4.0877449111449655, -8.083624841253787)	(-6.0220773145289552, 2.0172048594180527)	(7.3644202413421702, -8.2454450253956058)	(8.1825221983737428, 8.2249656273473342)	1.0	slash	1.52804
24	N	B	N	B	A	A	M	M	B	8	0	shapes	N	1	False	53	(6.4984508615419028, -2.0405135681527655)	(-7.8139534695711905, 3.5149202542891107)	(-7.0722718257314154, -0.82859730218934136)	(-2.7557151394444066, -0.84611390868925618)	1.0	z	1.60139
25	M	B	B	M	N	A	N	A	N	8	7	shapes	A	1	False	53	(8.6701765192045102, -2.4311377816894657)	(7.2844657598992946, -7.8805835647460318)	(-3.7713850309541526, 3.8577391121078861)	(-3.3308948461816135, -8.6534018215804203)	1.0	slash	2.74906
26	M	A	M	A	N	B	N	B	N	8	4	shapes	N	1	True	53	(7.1854677998679861, -4.6026296890267888)	(2.9737731727542851, 6.0508448761933167)	(2.6918876878394986, -3.02094378332212)	(-3.7907052672234149, 5.3627673009382573)	1.0	slash	1.49222
27	N	B	B	N					B	4	2	shapes	B	1	True	53	(0.57825175633284687, -7.5888746535498584)	(-5.3806643529114533, -2.4601880176879156)	(0.92463993004653666, 8.5909318748993684)	(-6.6142366427499528, 5.9103712208996484)	1.0	slash	2.29193
28	M	B	B	M					B	4	3	shapes	M	1	False	53	(-3.2582133319131001, 4.3041733780373033)	(-3.560399129554761, -1.4719865281019704)	(0.41572430244536029, -2.0843938836842426)	(0.41956900630419369, 8.1266287901686205)	1.0	z	1.26754
29	N	B	A	B	A	N	M	M	N	8	7	shapes	M	1	False	53	(-0.85417107122251945, 2.0756970818227298)	(6.0021919662835774, 3.6763428955202819)	(-6.473377068992189, -2.9629929645571895)	(-7.3986884260297696, 3.592075830071451)	1.0	z	1.72943
30	N	A	M	N					M	4	2	shapes	M	1	True	53	(-3.4970823409908975, 5.8381210390156681)	(2.4069145494160349, 7.3123130545170447)	(5.3629240623489025, -7.0698143851035349)	(-3.310664329308155, -0.70923085891861604)	1.0	z	1.84684
31	M	A	M	N					M	4	0	shapes	M	1	True	53	(-2.6485592072864286, -1.5627327863921403)	(-2.5767262737964174, 7.1647191344508183)	(6.3733433559373207, -7.6342275548783007)	(2.6724425749799412, 3.7518399862327527)	1.0	z	1.28849
32	N	A	A	N					N	4	3	shapes	N	1	True	53	(1.5032768862047803, -8.7136373013181121)	(-2.7647257178206397, 7.8963493752354772)	(-7.5376361979108584, -0.57874140885142467)	(5.5008299440624278, 2.8575515136445642)	1.0	z	3.58398
1	M	A	A	N	M	N	B	B	M	8	4	shapes	M	2	True	53	(-3.8352235553125027, 2.8264802646856175)	(1.7098007857226882, 0.83417348435767558)	(3.0836372253012012, -6.0951635359938159)	(-4.3187642927139889, -5.9786281101710248)	1.0	z	1.66765
2	N	A	A	N	M	M	B	B	A	8	0	shapes	N	2	False	53	(-7.8716936573310949, 3.4347211908348179)	(-1.1811936345178422, -0.43022676261057136)	(-0.10764798531747211, -7.3219846439524741)	(3.6443273719941924, 0.94725483911181385)	1.0	slash	2.6731
3	N	A	A	M					A	4	1	shapes	A	2	True	53	(-0.062654602302483653, 0.3833045191549953)	(6.9372205024602973, 2.091354443510669)	(-0.10443135659762426, -6.552188795748398)	(7.9272748344430575, -6.996337231809088)	1.0	z	1.82866
4	M	A	B	A					A	4	1	shapes	A	2	True	53	(-2.1228386055646551, 4.915190265665256)	(1.189975971415171, -7.110808940363663)	(4.3371908593410069, 5.8010945078153444)	(-3.2828756253425864, -8.393308347077463)	1.0	z	1.86377
5	M	A	M	A					A	4	0	shapes	M	2	False	53	(2.9555565867219684, 0.86455697010338106)	(-6.9557910349670014, 6.3759482626826376)	(-0.37920559739661996, -6.5563474283746324)	(8.2973987113666894, -0.27583248597858478)	1.0	z	1.44581
6	N	A	B	B					M	4	0	shapes	N	2	False	53	(-4.2280695470359291, 0.53792499424149298)	(8.7317331759665322, -2.1193366057679581)	(0.60475656641779807, 1.1671465927320419)	(-5.3497576968910501, -8.3943463193809329)	1.0	slash	1.52742
7	N	B	N	A	M	B	M	A	A	8	3	shapes	A	2	True	53	(-4.0146939198387477, -4.8423430007699988)	(6.9815912754052523, -6.5775991775325373)	(-3.9396102159889557, 1.7536076347653875)	(5.3413807255122947, 2.8180260786827844)	1.0	z	1.8425
8	N	B	A	M					N	4	0	shapes	N	2	True	53	(-3.2095290822998193, 1.3375235290848728)	(6.7607686593568381, -6.3199475429365091)	(4.7843894730786936, 2.8851807586055553)	(-0.55221107634566025, -4.294928294054368)	1.0	slash	1.98874
9	M	B	B	N					M	4	0	shapes	M	2	True	53	(5.6465210447584226, 1.0283840527408827)	(-5.6358394616822789, -4.1290374807885346)	(-8.5499847561507742, 6.4852487636207758)	(3.5620653676827008, -5.7732456085926849)	1.0	slash	1.39213
10	N	B	M	A	M	A	B	N	N	8	1	shapes	B	2	False	53	(4.9903390196455071, -4.7814681217574417)	(3.6039083517750736, 7.5238513048943716)	(-8.3643918882250521, 4.3657877356420052)	(5.8501722426004896, 1.9766433792431055)	1.0	slash	1.29174
11	N	B	N	M	B	M	A	A	M	8	3	shapes	M	2	True	53	(-2.903020148968861, -7.2418103014288278)	(-8.0728027765867516, -7.7433854794633676)	(7.9443950994334642, -2.5298272951727698)	(3.1367688027201126, -1.2999266498609474)	1.0	z	2.41265
12	N	B	A	M					M	4	3	shapes	M	2	True	53	(1.5431405577674688, 8.134723138275767)	(3.5129465187810567, -7.9256381154602664)	(-3.5028677336937877, 2.1618131552125011)	(-6.4446887368374171, -6.3487197933002264)	1.0	z	1.29873
13	M	A	B	A					B	4	2	shapes	B	2	True	53	(5.0574378455583453, 8.4144280233426656)	(-2.1110576430446244, 4.6396788249158032)	(-2.7179328203793265, -4.9228459590721281)	(6.4871734633321196, -7.9456771217957307)	1.0	slash	1.11045
14	N	A	B	N					B	4	3	shapes	N	2	False	53	(6.605754896952174, 3.2372826987000245)	(-8.6973724416388638, 2.5295493553991673)	(8.6577471374184682, -6.0607807745722599)	(-3.2651393241768227, -1.572613748669804)	1.0	slash	1.002
15	M	B	A	M	N	A	B	N	B	8	6	shapes	B	2	True	53	(0.67637310672429329, -3.1861806580316356)	(3.6271186444627439, 6.6567947506987029)	(-7.4380486544891529, 5.2868297569273235)	(-3.7137565607003573, 0.30229042965673081)	1.0	z	2.58119
16	M	A	B	N	B	N	M	A	B	8	6	shapes	M	2	False	53	(5.3538450904699886, 7.9439334845609153)	(0.98095443299528817, -5.9898246080512081)	(8.1121287220903717, -2.1127943613667703)	(-0.42397364662891412, 5.7418589687923358)	1.0	slash	1.29126
17	N	A	M	N	B	A	B	M	N	8	4	shapes	B	2	False	53	(-2.6561581509414838, 7.5318661644528362)	(1.1804121736688451, -1.7991660503261215)	(-5.0879518661850849, -3.9861990916508789)	(8.4561691073042162, 6.7238066990057792)	1.0	slash	0.818933
18	M	B	M	B	N	N	A	A	B	8	2	shapes	M	2	False	53	(4.4495184867160038, -7.9877461826456164)	(-2.6045489792318275, 3.2594613510691648)	(0.37531958345186389, 6.6198681559182369)	(8.6965638056217536, -4.3960744026517471)	1.0	slash	0.874546
19	M	A	N	A	M	B	B	N	M	8	0	shapes	M	2	True	53	(-1.7970321112394592, -1.6024518118522986)	(-2.4709962578180757, 5.0655045079758931)	(-6.5807549102109233, 4.7932023598934101)	(7.1137837072461192, 7.7539604481473425)	1.0	slash	1.1641
20	N	B	A	A					A	4	1	shapes	B	2	False	53	(-4.1502363516121807, -8.5763912701770231)	(7.3584922019059071, -0.53528598798726357)	(2.782339238360187, 3.5185683827326955)	(-4.0454560102433099, 2.1492214309977857)	1.0	z	1.89393
21	N	B	N	M					A	4	2	shapes	N	2	False	53	(4.2905649067449652, -6.3069060429183201)	(-7.0897051022772501, 3.6276582387084169)	(-7.2206962351035697, -8.2676778121151582)	(2.6028487374859672, 3.9056789297079941)	1.0	z	2.17339
22	N	B	B	A					A	4	3	shapes	A	2	True	53	(7.6969455674350939, 3.7595717648656404)	(5.4024989794396827, -6.027003904247862)	(-1.1773014080644515, -0.12712724870064918)	(-4.1166201409768632, 2.6959353090618396)	1.0	z	0.95694
23	N	A	M	B					M	4	2	shapes	M	2	True	53	(7.0205065544360554, 8.6254130510686657)	(-3.4900325317937053, -5.1697805653171329)	(4.2708704132948423, -0.45038934707079292)	(-3.8780155081731955, 7.2133790508510582)	1.0	slash	1.40053
24	M	B	M	A					B	4	0	shapes	M	2	False	53	(7.2824980915745492, 3.2031545278658928)	(3.7527645074113902, -0.22515491943348387)	(-4.7025293437316291, 3.5948360515514182)	(-5.7489065082620758, -8.3233575005382914)	1.0	slash	1.55419
25	N	B	A	B	N	A	M	M	A	8	5	shapes	A	2	True	53	(-1.6077715275763422, -7.7054027845162212)	(7.3088002981232947, 1.1541111284035477)	(-6.6015427538004392, 6.3598052862792418)	(-2.3272058008179135, -3.0828958647551534)	1.0	slash	0.991976
26	N	B	N	B	A	M	A	M	B	8	7	shapes	M	2	False	53	(-7.3174279275839815, 4.2521335258352551)	(4.604143236751689, -3.7980814676353649)	(1.7625226225516037, -8.3211848664488013)	(4.0918901246432995, 2.2350704196604543)	1.0	z	1.66087
27	M	B	N	B					A	4	0	shapes	M	2	False	53	(5.3510841623926169, -1.9267159353504653)	(-5.3354370896527943, -7.0123650066959815)	(3.4805489179993181, 8.6563761935200851)	(-2.1301759638415758, 1.3475111091051133)	1.0	slash	1.41884
28	M	B	M	N	N	A	B	A	M	8	3	shapes	N	2	False	53	(0.9694555119216588, 2.2552762246632554)	(-5.6867677803076369, -5.1114437984121226)	(7.304139574708433, -3.1640606405714902)	(7.7678625698931825, 5.218958664589076)	1.0	slash	1.46674
29	N	B	M	A	N	A	B	M	M	8	2	shapes	M	2	True	53	(-6.9465461655891598, -2.0858025193795555)	(3.3908671846280392, -2.5587083265958803)	(0.32319324467999699, 5.6555306567290362)	(-3.1749140615000879, 0.37665557404699967)	1.0	z	1.7303
30	M	A	B	N	M	N	B	A	B	8	5	shapes	N	2	False	53	(-5.8166717978545233, 6.657365584748554)	(-7.5843698743296519, -7.5078425086318941)	(-7.1118696109412962, -3.1889252071986247)	(1.4342255240157051, 0.10146577092931075)	1.0	slash	1.29986
31	M	B	A	A	N	B	N	M	B	8	1	shapes	B	2	True	53	(4.7853249198229424, -4.6314207107412786)	(-8.1293465777752285, 6.405274107189836)	(5.8253560534205864, 5.2503906437506451)	(-2.7023367638079128, 2.2411619772935634)	1.0	slash	1.76522
32	M	B	A	M					N	4	1	shapes	B	2	False	53	(-1.8319706020380062, -6.5530187517214697)	(8.3589015630737045, 1.3577731955801831)	(-2.8385197858746531, 4.02638526206748)	(2.5602595483937023, -8.0273827625192737)	1.0	slash	1.32682
1	N	A	A	N					N	4	3	shapes	N	3	True	53	(-3.8254412303017347, 4.8317818170727325)	(-2.221050313444783, -2.9374588884821264)	(5.2536799161554395, -7.6779779807848438)	(4.3620041772106166, 5.2940909145100807)	1.0	z	1.23067
2	M	A	A	M					B	4	0	shapes	M	3	False	53	(-5.8623749442582334, 3.0620684981645017)	(1.418857192873638, 5.2213036049240706)	(6.6719103614094006, -2.1759508749071053)	(-1.0738589274914814, -0.38807420249172075)	1.0	slash	1.08989
3	M	A	A	N	B	B	M	N	M	8	1	shapes	A	3	False	53	(4.8061022761394163, 2.5119513489126728)	(1.0713384496353111, 5.3565659961870686)	(-5.6055934664407907, -3.642775861164993)	(-0.42761405789273255, -7.5066798314782108)	1.0	slash	0.851863
4	M	B	M	A	N	A	N	B	B	8	7	shapes	B	3	True	53	(5.2110707353149586, 1.4226496182822803)	(-3.5487260829154756, -1.4193928917329952)	(-0.24772910972911433, -6.1020324120133589)	(-0.05063870843836149, 4.6804643039381038)	1.0	slash	1.20547
5	N	B	M	N					M	4	1	shapes	B	3	False	53	(-6.871611013023486, -1.0146675824240363)	(0.042298221480542963, 6.1402081730106879)	(-4.2937881039924113, 4.4614093571111315)	(3.3072381173405407, -5.3290607716993854)	1.0	slash	1.00512
6	N	A	B	M					A	4	1	shapes	A	3	True	53	(-7.9867866940681091, 6.7389442339431547)	(5.2710300996933519, -4.5893792459675815)	(1.7820096842457644, 8.294538429076372)	(-3.8015041675866037, -1.6685280346981273)	1.0	slash	1.51881
7	M	B	M	B	N	N	A	A	M	8	2	shapes	M	3	True	53	(-8.0795466710970718, 2.4429337857651774)	(0.14427604143897632, 0.59606699569642707)	(-0.97950445402240405, 5.8340963717988235)	(-5.6271928169507532, -1.469710413805541)	1.0	slash	1.26648
8	M	B	B	A					M	4	1	shapes	B	3	False	53	(-7.8820597701720354, 5.6870283406569246)	(6.6263822685826277, 3.1953092954185234)	(5.7037018133733781, -3.2649253038190045)	(-8.1944268552410815, -2.7550316164276207)	1.0	slash	2.36594
9	M	A	N	M	A	B	B	N	A	8	2	shapes	N	3	False	53	(-4.0345408123757824, -4.3807428172663752)	(-6.306929590418715, 6.0357878899018509)	(5.7898445217127197, 0.1838122886386877)	(0.65885548303137398, 7.5380762650975655)	1.0	z	1.57549
10	N	B	M	B	M	N	A	A	N	8	0	shapes	N	3	True	53	(-1.6726793308759946, -7.4463559993004953)	(8.5236934489408647, 3.7116978544319945)	(8.6542757742048231, -6.0042435944558932)	(-6.7084840255797689, 3.6459529736211067)	1.0	slash	1.16905
11	N	A	M	M	A	B	B	N	B	8	3	shapes	M	3	False	53	(-3.4617869673341017, -8.0957616919794244)	(7.3363763033723188, -7.3571021402733017)	(2.9821073987708075, -3.7725869306349447)	(-1.8284097632046858, -2.3156676549359778)	1.0	slash	0.908733
12	M	B	N	M					A	4	2	shapes	N	3	False	53	(-0.73210980887795074, 2.6833817531921866)	(-1.9384210569830369, -8.2046646673351056)	(6.2071719119289153, -4.8255178894300075)	(2.07991065187902, 6.3416239076494065)	1.0	slash	0.832322
13	N	A	N	M	A	M	B	B	M	8	5	shapes	M	3	True	53	(-7.5496695780820122, 0.85733718553832894)	(2.4557382270193209, -2.1812866813711702)	(-0.98210495425343591, 0.0042421205002121098)	(6.1267872025560912, 6.650989067751178)	1.0	slash	1.06807
14	N	A	N	B					A	4	1	shapes	A	3	True	53	(2.2308908981113937, 2.298359355131403)	(-1.8621081774899961, -4.4241465682407375)	(-7.7036413904006764, 2.0561213468919419)	(2.1003794527471502, -2.2204615784855584)	1.0	slash	0.96573
15	M	B	B	N					B	4	2	shapes	B	3	True	53	(-3.9637381722679352, -3.3667963616268413)	(8.2650751859436298, -2.7859707866853611)	(0.60706497121356051, 4.3866638734252277)	(-4.1161017582683899, 5.3386743065592306)	1.0	slash	0.799354
16	M	B	B	M	N	N	A	A	N	8	4	shapes	N	3	True	53	(2.3407028591369485, -2.3842146128593429)	(-0.78337899408611911, 0.1188709851986367)	(-4.7923915869764659, -5.8089182987320047)	(2.1125399654595576, 4.5876502798347047)	1.0	z	1.19495
17	M	A	M	B	A	B	N	N	A	8	5	shapes	B	3	False	53	(5.2321429210626338, -1.0767273550143646)	(-1.5349666610454467, 7.8112935269748398)	(2.8091019065630558, -6.5638018523416655)	(-7.6055979905186906, -4.1643177577222348)	1.0	slash	1.30253
18	N	A	B	M					B	4	2	shapes	B	3	True	53	(-1.8719564781345905, 4.0581588378594962)	(4.1804599021349542, -2.9597387128769928)	(-6.326758600292532, -7.9235101247034585)	(2.2157243845877606, 5.7264380479962984)	1.0	slash	1.67609
19	N	B	N	B	A	M	A	M	B	8	2	shapes	N	3	False	53	(3.250302884771882, 5.9317143285755005)	(8.2591986757035976, -6.5687792548178408)	(2.3668565908972337, -7.3147352780045685)	(-6.2172638696485958, 0.34788176569842655)	1.0	z	1.3676
20	M	A	B	B	M	N	N	A	A	8	7	shapes	A	3	True	53	(-0.7106367659815902, -8.3274880703062095)	(-5.6597047622384622, -6.7078520031761615)	(-5.3463275129223184, 0.74748026406380852)	(4.5508122459942033, 5.2412882185043586)	1.0	slash	1.42544
21	M	A	M	A					B	4	2	shapes	M	3	False	53	(-1.5597960011160925, 6.4461993225078142)	(3.9904718487665161, 8.2389890402044657)	(1.2787950309708105, -0.22768152827494603)	(-0.023774783300900992, -8.7469504359874239)	1.0	slash	1.04694
22	M	A	B	M					A	4	3	shapes	M	3	False	53	(3.0031294046755175, 8.149440980731562)	(-1.5228584252812176, -6.488823468720331)	(-5.4916116168426408, 0.27929126495325463)	(0.93580808869179322, -0.66567555834601144)	1.0	z	1.5205
23	M	A	M	B					A	4	1	shapes	A	3	True	53	(2.6195398532655254, 4.1521517365947602)	(-6.6518008548324215, 6.5579169549776921)	(0.82137292751062319, -6.2620139961869086)	(-2.6475391758962346, -0.39880702138203006)	1.0	slash	1.26622
24	N	A	B	N					N	4	1	shapes	A	3	False	53	(-2.4158677184981032, 2.3975109705371072)	(1.3634000180879298, -1.9561027932166937)	(-5.6015439977617536, -1.0366924698881297)	(0.48035882338389513, 8.7407541641434854)	1.0	slash	0.727961
25	M	B	M	N					A	4	0	shapes	M	3	False	53	(1.0117494729357528, -3.8974698774164702)	(-0.86294429622217272, 7.56403930350384)	(4.3093672963168022, 8.5042349880677115)	(-0.85898779833892647, -8.023305079761224)	1.0	slash	0.833536
26	N	A	N	A	B	B	M	M	M	8	2	shapes	N	3	False	53	(-7.708073538443176, 7.7986881103853065)	(-2.6402455716207571, 6.8502368104359821)	(-4.5771930302388029, -7.9973563100325249)	(-0.32803346067927386, -2.0623544467408843)	1.0	slash	1.04506
27	N	A	N	B					N	4	2	shapes	N	3	True	53	(-0.21915794915151388, 3.4005472505847845)	(-7.2952613980074705, -8.2932948414344221)	(0.31801684260516794, -5.6499296567156643)	(7.5601767655688654, 5.726336611837711)	1.0	slash	0.878846
28	M	A	N	A	N	B	B	M	N	8	2	shapes	N	3	True	53	(-4.7913080981763283, -0.34290433887947458)	(2.9317248492742838, 4.8063253973013129)	(0.68832413498620149, -4.9918849881577598)	(-7.0030960125929749, -5.5962513214405565)	1.0	z	1.68186
29	M	B	A	B	M	N	N	A	B	8	0	shapes	M	3	False	53	(1.6907594596547959, -6.6337107820222343)	(-8.5644873281513494, 7.6398733440140134)	(-1.1922270990930866, 0.87354559207655669)	(0.23858761981283116, 7.6330078277194211)	1.0	slash	1.5719
30	N	A	B	A					B	4	2	shapes	B	3	True	53	(-8.0114337931890418, 7.7315183088298909)	(3.0926942972748641, -1.3509953060545952)	(2.2787284833140902, 7.3884473368364993)	(-4.5507035075001365, -0.78524705497931269)	1.0	z	1.45146
31	M	A	N	N	M	A	B	B	N	8	5	shapes	A	3	False	53	(1.957668626185324, 7.4017336690643276)	(-6.1601366683872332, -6.6553115583480773)	(-1.5324557883857679, -4.2396080212666627)	(1.1076435702458696, 2.63029455742263)	1.0	z	1.1408
32	M	A	N	M	B	B	A	N	B	8	4	shapes	B	3	True	53	(1.4235636403578145, -6.6233873990195802)	(-5.2576287890828386, -7.5324459834820949)	(1.7140416822474585, 5.3868194899855002)	(6.7423964309428133, 5.7435825235225035)	1.0	z	1.75832
1	M	B	B	N					N	4	3	shapes	N	4	True	53	(-6.5627334575249812, -1.4811551170702373)	(3.7289394602094017, 7.0822351564328141)	(4.3732506152172821, -7.3059376322442855)	(-5.8030014191367849, 4.4316198885597302)	1.0	slash	1.06041
2	M	A	N	N	B	B	A	M	N	8	3	shapes	N	4	True	53	(-3.6734817932372321, -3.8435209034372253)	(7.6013907997189598, -4.0819150583313828)	(5.9466111976408627, -8.1666528123444451)	(2.6357159653291333, 4.2380692000528857)	1.0	slash	1.08403
3	N	A	M	B					B	4	2	shapes	M	4	False	53	(-6.8099751308619938, 4.1433194844168622)	(5.0728949747222138, -2.8265748510683757)	(-5.1165303672930333, -1.7675727966181487)	(1.8575921038003056, 6.6355723667892139)	1.0	slash	0.843598
4	M	B	A	B					A	4	2	shapes	A	4	True	53	(-1.1886497899036979, -3.8021674260666325)	(-8.5235740499770234, 7.6730746559923908)	(6.9188343520064457, 8.2463391010539269)	(0.17500092153982827, -8.6550776086138246)	1.0	slash	1.46126
5	M	B	N	N					N	4	3	shapes	N	4	True	53	(-6.5963143163865841, -1.8906785980040475)	(-0.54614574398107152, 0.37665812838305257)	(4.4045526243379634, -2.742287743775182)	(6.4333239882813977, 2.2268111482091548)	1.0	z	1.53902
6	N	A	B	A					A	4	3	shapes	A	4	True	53	(6.3882954258324087, -8.4806829718824854)	(-6.7903308072649704, 5.0168242585129992)	(4.6591935976233856, 0.36095576377098126)	(-7.8725225003694694, -7.7742485926728726)	1.0	z	1.03261
7	N	A	B	N					B	4	2	shapes	B	4	True	53	(4.9380509673840951, -3.1085527623101781)	(0.0061558009651818679, 8.5643695180455346)	(-4.2880945575532632, 7.1037124804818816)	(-8.4909405426466549, -5.4981015139699085)	1.0	z	1.80611
8	N	B	B	A	A	M	M	N	B	8	2	shapes	B	4	True	53	(6.1764306734013168, -4.7183386217785568)	(3.7051506887697645, 0.48676823874395758)	(-2.2933561020779294, -4.4454874108439446)	(1.0749983528455527, -8.2137198806450993)	1.0	z	1.35929
9	M	B	M	A					M	4	2	shapes	M	4	True	53	(-4.1051380567909561, -2.9438044437143098)	(1.9795113912554392, 7.4807350675504836)	(-8.3914660383670618, 4.7029606150412384)	(3.1532841673604608, -8.047952288594292)	1.0	z	1.20142
10	N	A	B	M					M	4	1	shapes	A	4	False	53	(3.499911018271451, -7.6604257590767535)	(5.9137687297072095, 0.30909339321607554)	(-2.830537331508344, 1.3095935948397592)	(-5.6379136235554785, -2.9224681890350439)	1.0	slash	1.62675
11	N	B	N	A	B	M	M	A	B	8	1	shapes	B	4	True	53	(8.3228212647143174, -0.17861444858545639)	(2.0875777887299094, -7.26139416624852)	(-2.8168790963092771, -5.9158203691578741)	(-2.7010610510081037, 8.4516311100448682)	1.0	slash	0.800444
12	M	A	A	M	N	N	B	B	M	8	6	shapes	B	4	False	53	(8.5325166619599671, 5.1611437844296528)	(-0.47583373578773092, -2.5240439037517595)	(-4.7497549102950627, -8.7139893057014071)	(-7.8787978142026596, 0.48740642617732632)	1.0	slash	1.16573
13	N	A	A	M	B	N	B	M	A	8	4	shapes	B	4	False	53	(0.45831378922488675, -4.6012522769352326)	(-7.5797979295401703, -7.8612600971963005)	(5.651721641261453, 5.739793466672003)	(-1.3003122480393561, -8.2657303551286887)	1.0	slash	1.47337
14	M	A	N	A	B	B	N	M	A	8	1	shapes	A	4	True	53	(2.7233773289417336, -2.6587589676666639)	(1.1484362700113966, 6.2236920585246338)	(6.0593450186844127, 1.8266304848101491)	(-1.6563709825853694, 1.1379663933970843)	1.0	slash	0.605554
15	M	A	A	M					B	4	0	shapes	M	4	False	53	(0.71363998269453788, 6.7536311912873686)	(-0.60980673461581247, -8.3445635276511858)	(-7.5188160107574795, 8.2138517950474821)	(8.7480417837415771, -0.40808594102188955)	1.0	z	1.09521
16	M	A	A	B	B	N	N	M	A	8	1	shapes	A	4	True	53	(-4.8903135567289251, -5.9320133744293324)	(8.0784829526874624, 8.4773502449640503)	(2.2678350037254145, 8.6902828679328969)	(-5.3963049156188765, 0.57521713553874321)	1.0	slash	1.34274
17	M	A	A	B					M	4	0	shapes	M	4	True	53	(-5.9564242451452092, -4.0740243362442925)	(3.1815238877797789, 2.1144373476321761)	(4.7257716879749534, -2.8747236869690571)	(-3.5960342508100371, 0.92069848359556694)	1.0	z	0.964477
18	M	A	A	N					M	4	1	shapes	A	4	False	53	(5.5980884117897389, -4.6384161338493008)	(-7.8286787309661285, -8.2536000466710657)	(7.2034121199328087, 0.75875368974674018)	(-7.8235141102433703, 3.4969525942208204)	1.0	slash	0.886114
19	N	B	N	B					N	4	2	shapes	N	4	True	53	(3.900988863806754, -5.7258371453449257)	(7.525489220556107, 8.7341205796537977)	(-7.9813691821664268, -3.0279044306010947)	(-3.335250836084457, 2.8617367790456001)	1.0	slash	1.51967
20	M	A	M	N					N	4	1	shapes	A	4	False	53	(-6.8391221621797289, -3.4733793273110773)	(2.3381754708330718, -0.78008382221483608)	(5.4177818286829922, 4.273463306801812)	(-2.122158854060392, 6.8774525804556408)	1.0	z	1.61727
21	N	B	B	N					A	4	2	shapes	B	4	False	53	(1.9761983461408494, -6.8344350146939297)	(-7.178429657687893, -5.4959851331783547)	(-5.76961312508997, 2.3045554033176607)	(3.7539274873275623, 5.7843959808849306)	1.0	z	1.39291
22	M	B	A	N	N	B	A	M	A	8	3	shapes	N	4	False	53	(-4.444305603986578, 6.2032874385953072)	(-7.5855394328513981, -3.0493106515518553)	(8.6364666270816173, -0.99557666596639205)	(1.8399110770474003, -3.6661408284266042)	1.0	z	1.91855
23	M	B	B	N					A	4	1	shapes	B	4	False	53	(7.137136180597297, 8.1643314784167735)	(7.6515561566275139, -5.6754560060408767)	(-5.2417371980935776, -1.3907587733501847)	(-0.43824120336593531, 3.0851190214638944)	1.0	z	1.52798
24	N	B	N	B	A	A	M	M	M	8	2	shapes	N	4	False	53	(0.6317674292416342, -0.85427034693743042)	(5.8691680062960305, 1.9683886636467474)	(-0.61677416685043873, 4.9614083722269662)	(-3.9347616235196554, -3.7864245512246253)	1.0	slash	1.94502
25	N	A	N	M	M	B	A	B	M	8	7	shapes	B	4	False	53	(0.13098587192124356, -7.8190315309333691)	(8.2919440810396345, 5.3302572888525308)	(3.645157783042789, -4.6110358895988899)	(-2.8472811224933876, 4.9299823254834187)	1.0	slash	1.31132
26	N	A	N	B	B	M	M	A	B	8	0	shapes	N	4	False	53	(-3.1343742859208836, -2.9893869765466601)	(2.9087850240163426, 2.2872923792709852)	(-0.90611063796073843, 6.9316133301915634)	(-5.534376523869013, 6.2275064327857628)	1.0	z	1.65872
27	M	A	N	M	A	N	B	B	B	8	5	shapes	N	4	False	53	(-5.1287139579105734, -3.7569666780073074)	(1.9955202012935231, -6.8185959923513693)	(-1.732112138727004, 0.94893475391482518)	(-7.3936726647379531, 1.871652575643342)	1.0	z	1.62635
28	M	A	M	N	N	B	A	B	N	8	4	shapes	N	4	True	53	(-3.6050263270777716, -8.5469005241384082)	(0.14572318119053662, -4.3550242550464686)	(-8.3289041513213675, -0.66963621174970811)	(2.4497960218789139, 1.9171943227475872)	1.0	slash	1.40809
29	N	B	N	M	A	M	B	A	M	8	3	shapes	M	4	True	53	(0.14483729974414317, 6.2913315563590331)	(0.31773180312960214, -5.3179869438282417)	(1.0581961225622543, -0.50918289891591684)	(7.4332923357180007, 0.25505182190800113)	1.0	slash	0.969586
30	N	A	B	N	M	A	M	B	M	8	5	shapes	A	4	False	53	(1.9033584325755619, 8.0898672237233136)	(-6.2782836323250999, 1.1542220007050847)	(0.75866349749907158, -4.3416142520244518)	(-3.0889570589208617, -5.6151871725349771)	1.0	z	1.26733
31	N	A	N	A	M	M	B	B	B	8	7	shapes	B	4	True	53	(-2.1387769071644387, -0.1857492118129862)	(5.0609541592845062, -6.9790011921913955)	(0.80336718167854748, -3.2120901615448725)	(4.4840982811929067, 4.4453043177120932)	1.0	z	0.961076
32	N	B	B	A					A	4	1	shapes	B	4	False	53	(5.7541703493386063, 3.5595900009475283)	(6.123748857951016, -2.5166301112867746)	(-4.4153144982081249, -5.3117697893194151)	(-3.9725225993092588, 1.2174982266047731)	1.0	slash	2.60846
1	N	B	M	M	A	B	A	N	B	8	1	shapes	B	5	True	53	(1.7237692598151568, 0.57813178030957246)	(-7.1976825677145904, 2.9914794247260144)	(7.6639814533109849, -7.8551296652530738)	(-5.1928986975447202, 7.5783096820229368)	1.0	z	1.89413
2	M	B	N	A	N	A	B	M	N	8	4	shapes	N	5	True	53	(-6.5691290463278982, -3.2520956521863935)	(1.9228454657206235, 8.732044748659419)	(0.53319918912911746, -6.188973381701345)	(8.0998529675751847, 7.7643269380115001)	1.0	slash	1.40555
3	M	A	M	N	N	B	A	B	M	8	0	shapes	M	5	True	53	(4.3882706300448984, -8.241646696166697)	(-0.78605113856728881, -1.2240925640947466)	(8.0482605255647037, -3.3502462556327028)	(-2.6448830990707171, -5.2504465773681055)	1.0	slash	1.99135
4	N	B	M	A	A	M	N	B	N	8	4	shapes	A	5	False	53	(5.9924427183196638, -3.8490415452889035)	(6.2458558811200415, 8.1156597697247221)	(3.7435037672271942, 1.0580955456351973)	(-1.1594850467207767, 7.8108783518945835)	1.0	slash	0.876598
5	M	B	M	B	A	N	A	N	B	8	4	shapes	A	5	False	53	(-3.234558537405448, 2.1703849510208801)	(-6.2810112418188542, -5.6849831968375915)	(5.0218578435089363, -5.1310082432444108)	(1.6342445316570373, -0.82583023733141925)	1.0	z	1.48975
6	M	A	M	B	B	N	N	A	B	8	1	shapes	A	5	False	53	(-5.2388705882734978, 5.6090008788875796)	(8.2769063302674368, 8.5788178056445439)	(3.5234259565166948, -8.3044684479510362)	(8.3356567872102438, -0.73913774867251369)	1.0	z	1.41196
7	M	A	B	M					M	4	3	shapes	M	5	True	53	(-7.4609974630708908, 5.2985364465104414)	(7.9729426016430054, -3.8755370338808266)	(0.35259952493027846, 2.381064091592517)	(-6.5714384489630771, -6.7119245201550193)	1.0	slash	0.921499
8	M	A	B	B	M	A	N	N	M	8	2	shapes	B	5	False	53	(-8.2777953674403655, -7.8406051709380904)	(-2.4043877861315526, -1.3231804278330523)	(8.0979871456047832, 6.5204881766292555)	(-0.74528060378310812, 3.1016211973643077)	1.0	slash	1.48464
9	M	A	N	M					N	4	2	shapes	N	5	True	53	(5.2774517407781509, 2.1644888362859938)	(-5.9700359760152555, 6.854935081944781)	(-2.9963363744828326, -3.5156010994544538)	(4.1459693459672273, -3.2654663549773764)	1.0	slash	1.33484
10	M	B	A	N					M	4	1	shapes	B	5	False	53	(2.8977561385942501, 7.4275239027732454)	(-4.6539362649186939, 8.5534139139718803)	(-0.56683102830671039, -6.6926293338416523)	(0.73984176626758646, -2.5869163586319308)	1.0	z	1.56651
11	M	B	M	N					A	4	1	shapes	B	5	False	53	(-8.6444163994733803, -7.4265525798624772)	(0.59389112820490197, 7.5413384838164674)	(7.7359892205732024, -1.4888160442476304)	(-3.4396327539769898, 1.8905953127582649)	1.0	z	1.23218
12	M	B	N	A	M	B	N	A	N	8	1	shapes	B	5	False	53	(-2.6287248427772942, 2.6152061155276183)	(7.5496313153379582, -1.8915286230151089)	(6.6051562327098967, 6.762310302368542)	(-8.1215400156828075, -6.5016030344013238)	1.0	slash	1.637
13	M	B	A	N					N	4	3	shapes	N	5	True	53	(3.1335533221864704, 6.8986309470862608)	(-3.758160645858827, -7.1645090335104715)	(3.8399862798597457, -5.8847938063591014)	(-3.3470338893749938, 6.5300873354758817)	1.0	z	1.55716
14	N	A	B	B					N	4	2	shapes	B	5	False	53	(3.0143687368149266, 1.8196367745516664)	(-7.0821952854051968, 3.636342883744982)	(-5.4412312729468635, -4.0491257871079496)	(6.9058825117164702, -0.52667707133557151)	1.0	slash	2.88089
15	N	B	B	A					N	4	0	shapes	N	5	True	53	(7.0671100868528942, -5.8927181054653044)	(-6.3671865479876821, 5.5153215042097852)	(-7.8846796178578877, -8.0212615795479234)	(0.41402030371769527, 8.1786133323608041)	1.0	z	1.50635
16	M	B	B	A					N	4	1	shapes	B	5	False	53	(0.41450095466025161, -7.0986090517637592)	(0.9893952254657794, 6.7601912051070823)	(-2.6330368778615769, 4.8999205913098987)	(-7.4544729921310422, -6.0892900383617121)	1.0	z	1.76594
17	N	B	M	A					N	4	3	shapes	A	5	False	53	(-7.6670985320106801, -4.1142830069907737)	(5.3417112186515912, -1.3041389241546621)	(-7.7162732603145905, 2.4100694584626599)	(6.2849037670807597, 3.7278154283950471)	1.0	z	1.86957
18	N	A	A	N	B	M	M	B	B	8	7	shapes	B	5	True	53	(0.59902202403665328, 2.5193670349649224)	(-7.7510258342011449, 8.1865716320419324)	(7.9897476548575135, 1.6955499190119845)	(-2.3097380175171516, 7.1871476203709648)	1.0	slash	1.99515
19	M	B	N	N					N	4	2	shapes	N	5	True	53	(0.15931033017614382, 6.9208090689663404)	(-0.30186701225793477, -2.1721019654059708)	(3.561391731333158, -0.1554746586954785)	(-7.6407387891055523, 7.0310711058475199)	1.0	z	1.50258
20	N	A	N	B					B	4	1	shapes	A	5	False	53	(1.8186856364118267, 5.6902327441362921)	(-6.5697121812441823, -4.7585764634270955)	(7.2666768599136837, -6.497161413585915)	(-7.7825872925812591, 4.9691840203843025)	1.0	z	1.42818
21	N	A	A	N	M	B	B	M	N	8	6	shapes	B	5	False	53	(-0.1434260706087187, 3.5527513791027108)	(-3.300837863735322, 6.6135724041197683)	(7.286007479292806, 3.6233170363985714)	(7.98243978236491, -4.2709753579931746)	1.0	slash	1.24994
22	N	A	N	M	A	M	B	B	A	8	3	shapes	M	5	False	53	(4.2162234947185002, 1.7198999748304988)	(-2.1981116847422983, 1.3880408316611703)	(-3.9446747436341569, -2.6203561187949154)	(-7.2686214440694208, -8.1500761567348583)	1.0	z	1.22733
23	M	B	B	M	A	N	N	A	M	8	3	shapes	M	5	True	53	(6.6701195870578296, -4.6653407513525984)	(5.8737897357985762, 8.4863072173758809)	(-0.71163254159745648, 8.18994308565658)	(-8.5118645564320143, -4.7533421618832818)	1.0	z	0.849036
24	N	B	B	M	M	A	A	N	N	8	0	shapes	N	5	True	53	(2.1541363807268539, -7.0825097042125424)	(6.5760899494794121, 2.5059427460786114)	(-5.7202761495586643, -8.6471399888531799)	(-8.5847711737337065, -1.3801378168927174)	1.0	slash	1.06638
25	M	A	N	B					A	4	1	shapes	A	5	True	53	(6.2660355690972569, 2.2878387088374676)	(-5.0039362707159327, -8.6256588211257643)	(-7.2437928285508235, 3.725408488575205)	(1.635475398937368, -7.9878326366391663)	1.0	z	0.952276
26	M	A	A	B					A	4	2	shapes	A	5	True	53	(3.0263250108146575, -6.7903327022797173)	(-6.610414016801597, 0.19458738468293646)	(1.1417442008988861, 7.1677527627481528)	(-3.1444907295713573, -4.1354757129808588)	1.0	z	1.66802
27	N	B	B	N	A	A	M	M	B	8	1	shapes	B	5	True	53	(-3.5685413138174855, -5.630056303878372)	(8.5381467952888421, 3.3057838739962229)	(-8.0786289527207362, -3.6164887567047241)	(3.751634264343922, -1.0320684840111287)	1.0	z	0.80154
28	M	A	B	A					N	4	1	shapes	A	5	False	53	(7.0942041276007508, 3.7271533075117311)	(-4.4489998729858655, -1.9318264341571725)	(8.1869217651796724, -8.5495345908156857)	(-8.526536475738439, 1.9059167010347)	1.0	z	0.97921
29	M	B	N	N					B	4	3	shapes	N	5	False	53	(-7.5572093030090546, -5.4185695003845495)	(-1.7555394954390069, 5.9067530983215075)	(3.6084736185471442, 4.1340821690264473)	(2.9837712727016044, -2.1187380348832887)	1.0	slash	1.48092
30	M	A	M	A	N	N	B	B	N	8	6	shapes	B	5	False	53	(-4.9520357831679194, 2.5893710217625241)	(-4.0055541724732917, 7.7073749084013699)	(0.12468897033902948, 2.8096558338366382)	(4.4180857296974754, -1.1466664811574656)	1.0	slash	2.52443
31	M	A	B	N					A	4	1	shapes	A	5	True	53	(6.7455307284599222, 6.3594573914902472)	(-7.1290638241119231, 7.5494445974135793)	(-0.2288132453212679, -5.2805828908632559)	(6.0318472374286465, -7.8180341426915136)	1.0	slash	2.14978
32	N	A	A	M	N	M	B	B	M	8	5	shapes	M	5	True	53	(-1.0764896421756314, 7.433705125039392)	(2.8905829450903973, 5.9547613020900911)	(-1.0189763745086537, 3.1045418369170878)	(4.9933638603455748, -8.2129241985662791)	1.0	slash	1.35552
1	N	A	M	A					N	4	0	shapes	N	6	True	53	(-0.043896106596925222, -4.0597696666851206)	(6.1526920904980749, -7.4594357098739899)	(-8.7483897187194426, 5.0285124301910358)	(1.2352045950704209, 4.5964920923924826)	1.0	slash	1.28305
2	N	A	B	B					B	4	3	shapes	B	6	True	53	(-4.220753590339144, -0.41230537013694502)	(2.7736211653314005, 1.8579620777654142)	(-5.6463537207472099, 7.8394766905102955)	(5.9357515435559414, -3.2473393115888136)	1.0	slash	1.86865
3	M	B	N	N					A	4	0	shapes	M	6	False	53	(-7.7995290216222193, -7.250217646889217)	(4.0570704816562326, 0.61516862286202389)	(6.8180142672277189, -8.4388493153957089)	(-5.717378034949185, 0.83973951702766847)	1.0	slash	1.63236
4	N	B	B	N	A	A	M	M	B	8	6	shapes	M	6	False	53	(-2.6326239274081376, 7.1000569499451647)	(-5.7487914510989331, -2.8166227914090092)	(7.4911571754171611, -0.16490758096488101)	(4.1531219119558518, 8.4157180220399148)	1.0	z	1.07528
5	N	A	A	B					M	4	1	shapes	A	6	False	53	(-4.1934619976924816, -8.029586512713605)	(0.92489237066497942, 2.3211712162561398)	(-4.5345433152784702, 4.7551439711362864)	(3.5439285760254418, -2.7236677526827719)	1.0	slash	1.16765
6	N	B	N	B	A	A	M	M	N	8	5	shapes	A	6	False	53	(6.840953143959851, -2.5589422348098445)	(-8.4719112293087981, 8.3885123991104997)	(3.5769061578572732, 5.0970754711311343)	(1.3394630255133375, -7.1775258619069007)	1.0	slash	1.06518
7	M	B	A	M					N	4	3	shapes	M	6	False	53	(-8.4608169564321827, 1.8232153596928118)	(2.1790133627691777, 0.60441843780059479)	(3.6233260631395776, -3.8113227601619375)	(-2.0218373601893802, -5.36512800097527)	1.0	z	1.2844
8	N	A	M	B	B	A	M	N	M	8	1	shapes	A	6	False	53	(-2.2033635999167629, 8.0969776849801107)	(-0.72085099216781501, 3.2549199234316077)	(-4.1869873609972954, -1.9915120063645357)	(8.264114853913032, 7.0945199120887423)	1.0	slash	1.34197
9	M	B	B	A					B	4	0	shapes	M	6	False	53	(-4.0598193382943224, -6.8305177800951249)	(-2.8361088351989299, 0.87938048150176407)	(0.79531424524377492, -5.6933400995479833)	(1.644797697455374, 5.4339286756588319)	1.0	z	2.20408
10	M	A	M	N	A	N	B	B	A	8	0	shapes	M	6	False	53	(0.41616246017392555, 0.047504106717868311)	(7.9540865738424849, -4.605191099762723)	(-1.7068904403086922, 5.3614590888188545)	(-7.2646761090562872, 2.0553500894455361)	1.0	slash	1.08676
11	N	B	N	A	A	B	M	M	M	8	7	shapes	M	6	True	53	(-3.9222312806815838, 0.92811068298298949)	(3.8346350905279092, -7.3702058395966628)	(6.2283578216627831, 5.1706320764362417)	(-6.7161977734982541, 5.6910724885333703)	1.0	slash	1.26533
12	N	B	B	A					B	4	2	shapes	B	6	True	53	(-2.0273618336038526, 0.30783723887375025)	(6.8873149151549171, -2.1192754904101614)	(-1.6838079948349156, -5.2080323845333361)	(5.0427128668198211, 3.9611926905951798)	1.0	z	1.11887
13	N	B	M	B					M	4	3	shapes	B	6	False	53	(-1.3772953430139445, 6.7177956034722648)	(4.2426221578646643, -7.8976934795918234)	(-3.5343176281146897, -1.2566276533518588)	(8.3326573781192259, 5.067975171103587)	1.0	slash	1.19052
14	N	B	N	B	A	A	M	M	M	8	5	shapes	A	6	False	53	(4.2242905014376664, 4.4599319723936084)	(7.4782546018356406, 1.1792730505171871)	(-5.9972580561964808, -0.88074121295630814)	(-0.3754115287071933, 0.21655115354327492)	1.0	slash	2.11525
15	N	A	N	A					A	4	3	shapes	A	6	True	53	(2.1393355666725249, 6.348694946594021)	(2.2932080434250786, -8.6617067821316027)	(-3.461175317305119, 4.3632644198510491)	(-6.6195718665743897, -7.9162775798361213)	1.0	z	1.23958
16	N	B	A	B	N	M	M	A	A	8	2	shapes	A	6	True	53	(-4.8361853304705749, -2.0082770565898196)	(-2.0807030667256701, 4.6888516652723613)	(1.2603323730000593, 0.074645977212282943)	(5.0335042629831808, 5.273253591333475)	1.0	slash	0.971363
17	N	B	M	M	A	N	A	B	B	8	5	shapes	N	6	False	53	(-0.7343479171698668, 1.4411518649052386)	(-1.6849886637096834, 6.0982921760184592)	(-1.8964609211182761, -2.6405938045253503)	(-6.5609168477342674, -6.7203090830998198)	1.0	slash	1.28293
18	N	B	M	N	M	B	A	A	M	8	2	shapes	M	6	True	53	(0.29931595800171884, 5.7033206727619863)	(-7.8874197400654982, 2.881551705339831)	(2.5350961306759814, 0.42831594786494165)	(-5.2053421104850441, -7.3943457080842512)	1.0	slash	1.14053
19	N	A	A	N					A	4	2	shapes	A	6	True	53	(0.19635323073747024, -0.89451354803217598)	(6.640719947231414, 3.4325415834427826)	(-7.2123853330080721, -8.4775886963921803)	(-1.8140997997915864, 5.7578126828563434)	1.0	z	1.12223
20	M	A	A	M	N	B	N	B	B	8	5	shapes	B	6	True	53	(2.5055308036496715, -6.6526680993551235)	(-8.4133082736965985, -3.0068009986312783)	(-2.0119266060245513, 2.3932107736695656)	(2.2281116598187189, 0.85383874236456236)	1.0	z	2.45165
21	M	B	B	A					A	4	2	shapes	B	6	False	53	(6.2389091755355199, -3.5973082521541206)	(-3.9568992466139434, 7.476469522599789)	(-7.1355567726703981, -1.9822833360849925)	(5.4021758399572715, 0.92312332635197158)	1.0	z	1.73138
22	N	B	B	M					N	4	0	shapes	N	6	True	53	(-7.1520397625005456, 5.2996842951444041)	(-3.7072727658983053, -5.9771979358585803)	(2.2073024941829527, -1.0857410051400809)	(6.7967318086092465, 5.2235455732428751)	1.0	slash	0.920886
23	M	B	B	A	A	N	N	M	A	8	4	shapes	A	6	True	53	(3.4532344336566343, -7.670305447105723)	(5.0561071411648317, 7.5995511912932727)	(6.4396921234070348, 3.2259204206240959)	(2.1576362366784476, -2.6934876882548471)	1.0	z	1.3067
24	M	A	M	B	B	N	A	N	M	8	4	shapes	B	6	False	53	(5.8754892565012398, -5.6083324200868923)	(-3.6038163891194248, -7.3955995036202591)	(2.7404780952954724, -2.265133059739183)	(2.849349746062698, 5.2897551159091485)	1.0	slash	1.06407
25	M	A	A	B					A	4	2	shapes	A	6	True	53	(0.94755390076402257, 6.2960272839280673)	(-6.6241781508127042, -4.9830815037314551)	(-5.6405782562069016, 6.9261773957392787)	(3.5182742401782825, -4.2166032807325022)	1.0	z	1.55573
26	N	B	A	N	A	B	M	M	M	8	7	shapes	M	6	True	53	(-5.8571241505007547, 1.2797330598409129)	(-2.9474165143520317, 5.7359780782051946)	(3.878509987941916, -1.7940379231687871)	(4.2273988281807355, 8.5868931760567868)	1.0	slash	1.91134
27	M	B	B	A					M	4	3	shapes	A	6	False	53	(2.0114556650954114, 7.3256529713474094)	(-0.17094698103284856, -0.79683070459463323)	(-5.4953574652388477, 0.64886918847900432)	(5.0659601318337018, -6.5881235940257952)	1.0	slash	1.76288
28	M	A	B	M					B	4	0	shapes	M	6	False	53	(2.1960666459703813, 2.4085508935782123)	(4.4614157380586938, -5.6274943520544376)	(-7.0661316602087583, -6.8539967916788722)	(-0.0014020381146977456, 7.5528130249228802)	1.0	slash	1.29069
29	M	B	M	B	N	A	A	N	M	8	2	shapes	M	6	True	53	(4.6473583108608931, -5.7035690009542019)	(1.1872184325281498, 0.52370348383739973)	(-2.1876225982577555, -5.9236772347924864)	(-8.2233084332626127, -6.0724371844987211)	1.0	slash	0.908574
30	M	B	N	B	A	A	N	M	M	8	3	shapes	B	6	False	53	(-7.2086303788408879, 4.9029516264719337)	(-3.2526455924981557, -1.5890899841851498)	(5.9665460207331247, -2.9804229647017078)	(-1.8019935294727967, -6.9245533465520026)	1.0	slash	0.769639
31	N	A	A	N					A	4	1	shapes	A	6	True	53	(2.950258567947964, 4.2337782870391862)	(-7.4058394386793021, -1.3238345268056415)	(3.3518696756496098, -3.9481076247429856)	(-7.1056519487965888, 7.1536560515151812)	1.0	z	1.15136
32	N	A	N	B	B	M	M	A	B	8	4	shapes	B	6	True	53	(-7.4787492134668572, 7.2285882770430145)	(0.31870361643291467, -5.759844285938529)	(6.8161888640245234, -5.9060097325298919)	(3.5282775795116468, 6.5866298922890056)	1.0	slash	1.26705
1	M	B	M	N					B	4	0	shapes	M	7	False	53	(1.7723655327236791, -7.9347938687166506)	(-5.6199062351367832, 1.130936855339149)	(-2.9528544311432334, -6.2754909370772669)	(5.8974167500524146, 0.073518546663375872)	1.0	slash	0.834593
2	M	B	M	A					B	4	1	shapes	B	7	True	53	(-3.4199656245914367, -8.3581261643499136)	(1.057033466001327, -5.1157151015541711)	(-0.94400764475724497, 5.3885761634484961)	(7.4138156859031277, 2.2573433070039073)	1.0	z	1.32644
3	N	B	B	N					B	4	2	shapes	B	7	True	53	(-3.2058085704061048, -0.31652410844518464)	(6.7806243761489853, 7.7350102806001217)	(5.7963396595745245, -8.0250069805912467)	(-2.1389029736760969, 7.5119533816787722)	1.0	z	2.65585
4	M	A	A	N					B	4	3	shapes	N	7	False	53	(-4.5851122856248088, 6.1086141059989512)	(5.306956986594944, 5.7928669842651743)	(-3.3959430446136105, -2.2993691458234995)	(8.4343241440926882, -3.2504484040854198)	1.0	z	1.59163
5	M	B	B	M	A	N	A	N	N	8	5	shapes	N	7	True	53	(6.0633310883624105, 5.6425172710739062)	(-3.7756492348874211, -7.482207340863245)	(6.4333195957699907, -7.7613781170008833)	(3.9867411518408957, 1.5426246531217025)	1.0	z	2.02056
6	M	B	N	M	N	A	B	A	A	8	4	shapes	N	7	False	53	(-2.3438174531835472, 1.021543496925112)	(-2.7385754058707814, 6.911505741547769)	(1.7584163254788709, 4.1004102465651329)	(-4.0664159661049819, -6.9298994962305782)	1.0	z	0.996621
7	N	B	M	N	B	M	A	A	M	8	5	shapes	M	7	True	53	(-0.29408062238340982, -7.7486778167708676)	(5.3137348117580085, 8.5866331232390749)	(-0.1645560682168572, 3.8400665544208508)	(-6.3915403597104827, 1.8632686902575433)	1.0	slash	1.20837
8	M	A	B	N					B	4	2	shapes	B	7	True	53	(1.9892128836129839, -2.3550907718096301)	(-4.1488064446030783, -0.87611298562207907)	(-7.5696501452937959, 8.6619460958894479)	(5.2201126876228212, 2.6304387331284715)	1.0	slash	1.38988
9	N	B	M	B	M	N	A	A	B	8	7	shapes	A	7	False	53	(-7.2639406800319524, 0.23627672940097355)	(8.6676028669752689, 1.4335402012126508)	(-2.9330852419488602, -5.1783171417403988)	(4.2244136304895079, 0.5552596193521655)	1.0	z	0.803136
10	N	A	A	M	M	N	B	B	N	8	1	shapes	A	7	False	53	(-6.7923297765557935, -2.5609031337227917)	(7.1791380693887543, 7.1055386880524782)	(-0.92692535139434096, -1.8310307009792082)	(2.7242107325179088, -3.5646923431497122)	1.0	slash	0.893092
11	M	B	M	A					N	4	0	shapes	M	7	False	53	(7.2065434424822037, 6.0555634916988748)	(-0.56384015885947392, 2.547492631040928)	(-5.9153787305083512, -3.4783087190833291)	(6.2323782390911564, -2.5737029112163956)	1.0	slash	0.724822
12	N	A	B	B					B	4	2	shapes	B	7	True	53	(-1.9246943794066196, -7.6272395682143443)	(-3.2534731148274236, 4.8833894919038663)	(0.99667819682517766, -0.55347988647083923)	(8.6609101167942839, 2.5913911157473262)	1.0	z	0.87633
13	M	B	N	N	A	M	B	A	A	8	4	shapes	A	7	True	53	(2.016596199758645, -4.4138666565065305)	(3.1891454071174454, 0.28605056057853062)	(-5.4803552059970437, 8.7276769831098591)	(6.1566738172574365, -5.6802521082171014)	1.0	slash	1.64803
14	N	B	A	N					M	4	1	shapes	B	7	False	53	(1.9247057951105564, 5.1403125341098796)	(-3.0501432665447643, -4.8970673027129115)	(-8.5874214769248542, 4.8990682059049657)	(4.2480346920757714, -3.3900813533266616)	1.0	slash	1.43173
15	N	B	A	N	B	M	A	M	N	8	2	shapes	A	7	False	53	(-6.2301884296711147, -3.8716852864323776)	(-4.9416646377116304, -8.4653302429656776)	(-4.5945992542758187, 3.0953738901317003)	(3.5002147861101829, 6.3609427907263161)	1.0	z	1.15523
16	N	B	A	M					N	4	0	shapes	N	7	True	53	(4.8964201745906824, -0.67576643116093038)	(1.8181227235339801, 5.8723243594219436)	(-0.53775111120528329, -3.9173151908751418)	(-7.3070376908550845, 1.1888493821506714)	1.0	slash	1.10275
17	N	A	A	B	N	M	B	M	M	8	7	shapes	M	7	True	53	(8.4487411595819815, -2.3921669970224579)	(-2.1586524776027085, 5.6910729039222563)	(-4.7087262034730832, -1.5808714756128239)	(4.7955760558179907, -4.5510934919927131)	1.0	z	1.50794
18	M	B	N	M					A	4	3	shapes	M	7	False	53	(8.316170970129658, 7.2836897594380794)	(-7.3826757460036303, 5.1782789705493943)	(1.100962471089117, -1.6596279481491809)	(-3.164523315660432, -2.0734090213470848)	1.0	slash	0.950076
19	N	A	B	M	N	A	M	B	B	8	4	shapes	N	7	False	53	(-8.3909993685245485, 5.2577908304838861)	(-0.070928295029231592, 3.6138079516761756)	(0.30159162121600502, -4.1472836499306789)	(-5.6414236547559167, -6.0767598511328522)	1.0	slash	1.08357
20	N	A	A	N	B	B	M	M	M	8	2	shapes	A	7	False	53	(0.24758998551538447, 0.94269088037640358)	(-7.5508648636366695, 5.8314000680224485)	(7.8029898842562986, -6.3835651489015479)	(5.6905450394190638, -2.4802215414639264)	1.0	slash	0.733325
21	N	B	B	M					N	4	1	shapes	B	7	False	53	(-2.7682222336178937, 1.242917346850696)	(-5.2752495670294977, -7.8758979743269686)	(5.0654289173831426, 8.2939567191152044)	(3.5756456390157627, -0.13859649731139534)	1.0	z	1.05297
22	M	A	N	M					M	4	0	shapes	M	7	True	53	(-1.7500121937706554, -5.4169750724178769)	(2.5518942736532928, 8.3760161237781645)	(0.14210928707860582, -0.82941347021323342)	(-7.1126793778153088, 8.0587657003749094)	1.0	z	1.11477
23	M	B	N	A	M	N	A	B	A	8	6	shapes	A	7	True	53	(-6.478441551697613, -8.6421551193166692)	(-5.997563460840631, -3.1321645225146195)	(-7.718510217199599, 5.6480272717354989)	(6.5208106118798312, -7.6154730361306777)	1.0	z	0.710402
24	N	A	B	N					B	4	2	shapes	B	7	True	53	(-7.1071476283747694, -3.9366443770453703)	(-1.5278346759270596, 7.3355488485706353)	(4.801993873203374, 8.3731494627991196)	(1.4850943138034207, -3.3528096362805897)	1.0	slash	1.33788
25	M	B	A	N	M	N	A	B	N	8	3	shapes	N	7	True	53	(-2.2373907478587052, 0.32143823714007347)	(0.50643585504507094, -2.8568851318099995)	(3.9232208478899331, -5.8028485519986948)	(-5.5265594103278879, -6.6639060445693108)	1.0	slash	1.74101
26	M	A	A	N					A	4	0	shapes	M	7	False	53	(-5.6323075092230415, -5.6453590243053515)	(4.0052762992130617, -3.6632180873743225)	(3.8102528226790415, 3.1835433743989565)	(-6.0502075614418818, 1.4586872260173109)	1.0	slash	2.02539
27	N	B	B	M	A	M	A	N	A	8	5	shapes	M	7	False	53	(2.5843526701642645, 3.9060691949763449)	(-4.3186253207295042, 8.5413012956757264)	(-6.5701710311392585, -5.5867511576489042)	(-0.9372854699615667, -4.0686273594672953)	1.0	slash	1.53472
28	M	B	A	M					M	4	0	shapes	M	7	True	53	(-4.3604969024367035, -4.3005644997701653)	(2.7151262740814044, 5.3495139799984859)	(-8.2859979291291026, 5.1190475882230597)	(1.8880433525458056, -3.8417314843787072)	1.0	z	0.958445
29	N	B	M	A	B	N	M	A	M	8	7	shapes	A	7	False	53	(6.0897705193077059, 4.8523762704939966)	(4.3889335224890917, -6.0215569933088684)	(-2.6447685013703222, -0.86172808971075021)	(3.6265214124860421, -0.15467093369046303)	1.0	slash	1.16953
30	M	B	N	B	N	M	A	A	B	8	3	shapes	B	7	True	53	(-2.1812307029680724, 7.1689626488629763)	(-3.6316307286366056, -2.8870231225661334)	(6.7964419064781705, -4.0241599576008698)	(7.7640649547136711, 0.15354774853245878)	1.0	slash	1.09913
31	M	A	N	M					B	4	0	shapes	M	7	False	53	(-6.4429321593798186, 3.9203257180248716)	(-7.8122913204116076, -7.3265176306402191)	(8.2480875762224457, 3.0280689130002312)	(4.4958018344913633, -1.8736713483502383)	1.0	z	1.52128
32	N	B	A	M	M	A	B	N	N	8	0	shapes	N	7	True	53	(-8.5848382657312801, -7.5656783871153195)	(1.949172441080897, -6.9453094910150623)	(-3.3647711584853592, 7.6538297272996978)	(4.4775313395189844, -2.4533029340829842)	1.0	slash	1.21257
1	M	B	A	M					A	4	1	shapes	B	8	False	53	(5.569049831024623, -2.1953534260150827)	(-6.070143710152589, 7.9013372238289783)	(-3.6244726678078276, -2.7124285331398852)	(1.723445181741063, 1.5431273047155543)	1.0	slash	1.24044
2	N	B	A	N	M	A	M	B	M	8	2	shapes	A	8	False	53	(-4.2499088365634172, -6.1626495108813266)	(-4.9665503097875794, 4.2047620341700327)	(3.1364032669670863, -3.3232203115152421)	(8.0507644924410968, 5.223163687772546)	1.0	slash	2.46744
3	M	B	B	N	N	A	A	M	M	8	7	shapes	M	8	True	53	(-8.666478503840036, 4.1359578416237781)	(6.0776083366750964, -5.5917263078651853)	(-3.0461715396584239, -6.0856418890242328)	(3.8184945671812489, 6.8916236594144564)	1.0	z	1.65699
4	M	A	A	N	N	B	M	B	M	8	1	shapes	A	8	False	53	(-0.24081659682955348, 0.60130035064837806)	(-6.5336852742649931, 6.7162554859798362)	(4.9047865460577142, -4.8170395386000457)	(-3.4525549125461623, -7.5524650724800599)	1.0	slash	0.873247
5	M	B	N	N					A	4	0	shapes	M	8	False	53	(-3.1751988908404121, 6.7586009719874802)	(7.4891049052996479, 8.2653156049210885)	(1.7119233493586918, -0.022145876835470091)	(-7.3698261551680755, -3.8684586025082464)	1.0	slash	1.22864
6	N	A	N	M	M	B	B	A	M	8	3	shapes	M	8	True	53	(3.5235505065089558, 7.7551501464759447)	(2.4866518549555607, -3.5710326475966445)	(-3.0464669488499911, 7.375527181360507)	(-8.4876952115593109, -2.4345752787456227)	1.0	slash	1.50629
7	M	B	B	N					B	4	2	shapes	B	8	True	53	(0.77732046225105655, -4.4559020212160636)	(-7.0864094581275134, -4.1666909068533604)	(8.2310465252658354, 1.2320940809801382)	(-0.56314359381776136, 1.6341717307878589)	1.0	z	2.19197
8	N	B	M	M					A	4	3	shapes	M	8	False	53	(-2.8914668469069316, 3.3796144539978847)	(3.3389503468215196, 4.0392776795136793)	(5.0465737662299386, -0.063125944638667164)	(-3.7973589795398492, -4.4019434037788825)	1.0	slash	0.929642
9	N	B	B	M					A	4	1	shapes	B	8	False	53	(-7.9275244287626645, 4.3682672330505685)	(1.6420848441210385, 7.0164787131579427)	(6.8728979963202033, -2.4910187294152379)	(-6.1197271597771508, -8.2930607056797605)	1.0	slash	0.793165
10	M	B	A	B	N	A	N	M	M	8	7	shapes	M	8	True	53	(-0.79799050094286628, 3.4357228968696134)	(8.641742274856135, 7.3021766688854548)	(8.3510682350761982, 3.1610764403216649)	(-0.30991007022274886, -7.9133788730318884)	1.0	slash	1.40488
11	M	A	A	N					N	4	0	shapes	M	8	False	53	(-7.462416246523393, -6.4565297741664578)	(-6.5196540821108542, 4.9735967022042047)	(5.6576855156531423, -7.2724361956654242)	(3.9406413782475607, 2.7432447852276702)	1.0	z	0.478492
12	N	A	A	M					M	4	3	shapes	M	8	True	53	(7.416813670073175, 4.6112998020080145)	(-3.7189611723778278, 6.6349999884288469)	(6.958674411201649, -1.0305351026623981)	(-2.5359458157572412, -8.5990604049866803)	1.0	z	1.22418
13	N	B	M	A	N	B	A	M	A	8	3	shapes	A	8	True	53	(6.1520867459790143, 0.98450745816401231)	(-3.7520473678464761, 7.1338753136474651)	(2.7839980183700952, -7.5423823818622022)	(-7.2169511081971986, -2.5298035742139175)	1.0	z	0.749344
14	M	A	A	M	N	B	B	N	A	8	2	shapes	A	8	True	53	(3.8328963100289251, 3.5709134653784691)	(3.3703823725508339, -4.2681876027043417)	(-3.1165341206929389, 8.1962953711415274)	(6.0610865801278795, 7.645937461011318)	1.0	z	0.115442
15	M	B	N	A					N	4	2	shapes	N	8	True	53	(6.8039217309892663, 1.5825281042889152)	(2.3542141102203598, -2.214968074681896)	(-6.9164343773679224, 4.1755654764625554)	(-2.8220488538400641, -6.4526657456817862)	1.0	slash	1.70125
16	M	A	M	A					B	4	1	shapes	A	8	False	53	(-1.520877602217924, 5.0736106878294294)	(-8.1923159884328971, -4.542673489318914)	(6.8833497082483692, -1.7876013140618632)	(2.1288964615592807, 3.0087998436923851)	1.0	slash	2.13604
17	N	B	M	N					N	4	2	shapes	M	8	False	53	(1.3891925439605455, -5.8956457156992066)	(-5.315607271919724, 7.6099785472411945)	(5.2742508324122124, 1.9082741637765537)	(-2.9015634969725195, -5.3870293044655959)	1.0	z	1.76628
18	M	A	A	N	B	M	B	N	B	8	5	shapes	M	8	False	53	(-1.522624680722668, 1.3376074800741442)	(4.8650589188476232, 8.3469672985554091)	(-6.3004186442709269, -7.7844572515724062)	(6.1773664054398463, 2.1133922712222901)	1.0	z	2.05636
19	M	B	M	A	A	N	B	N	B	8	0	shapes	M	8	False	53	(-2.8011218142150813, 1.9845970821340586)	(8.300338135551641, 7.9068903268114816)	(3.0076380446322624, -8.3457751455085845)	(-0.9735009728051649, -5.6396035409893654)	1.0	z	1.17528
20	M	B	M	B	N	A	N	A	M	8	4	shapes	N	8	False	53	(-5.0660578796738154, -2.1084562219499778)	(2.9022825286048359, 8.2049817161111527)	(7.2670022974128976, 2.1513022353522189)	(-3.3473581358174904, 3.9589095922959352)	1.0	slash	1.18303
21	M	A	M	N					A	4	1	shapes	A	8	True	53	(-7.8191185493171744, 3.9048548585756837)	(-3.2679067483701267, -2.448521058825798)	(8.3832698100639149, 6.9395701494454904)	(6.3721052267621836, -0.9456994683993889)	1.0	z	1.23656
22	N	A	B	B	M	M	A	N	B	8	2	shapes	B	8	True	53	(-1.767952929189712, 1.807341785262258)	(-6.330612294278648, 4.9986516211214838)	(-0.85814136572997146, -3.6852244013066127)	(-8.5450855514538038, -6.3158811637398493)	1.0	z	0.824319
23	N	B	N	B	M	M	A	A	A	8	6	shapes	A	8	True	53	(7.1716291740289311, 1.5125584850896292)	(2.5156432861463518, -7.2024706491255497)	(-3.0232684732723669, 3.8790025822107381)	(-6.0924277584000226, -7.5346293160974751)	1.0	z	1.33145
24	N	A	A	B					A	4	2	shapes	A	8	True	53	(4.5412546824473488, -5.2581269285579779)	(-2.1739968538664955, 0.36526932738844486)	(-4.350728173448128, -7.2271302722462289)	(2.3086273371937001, 6.7951289496705041)	1.0	slash	2.11561
25	N	B	M	M	A	N	B	A	A	8	4	shapes	A	8	True	53	(-3.1818143410608499, -3.3476378834647189)	(-1.5926310525869534, 6.5593003169728252)	(-0.075089325129143347, -0.46415673368602484)	(5.1634512819601319, 4.7215493966608157)	1.0	slash	2.47098
26	M	A	M	A	N	B	B	N	B	8	2	shapes	M	8	False	53	(2.6220726812442763, 6.305588289058889)	(-7.1599751561089402, -4.1350972702571918)	(-4.5357859432522236, -7.4890139467079058)	(3.1816532581005799, 0.93784580354168057)	1.0	z	1.6526
27	M	B	A	B					N	4	1	shapes	B	8	False	53	(7.161105850847191, -0.39318822764615646)	(4.3010207535440461, 5.3565823406104922)	(-7.2363200483265748, 4.3128358732200223)	(-1.9846877504355218, -2.3853075739825407)	1.0	slash	2.08391
28	M	A	M	B	B	N	A	N	B	8	0	shapes	M	8	False	53	(2.62791094667541, -2.522169720120611)	(-4.7410848513411334, -5.5979137472186862)	(0.13186179598807257, 3.9492427500764737)	(5.8548873257173533, 0.81096055139001777)	1.0	slash	1.94118
29	N	B	N	B					B	4	3	shapes	B	8	True	53	(-7.9007637917754732, -5.4216065454216391)	(4.8026695984792678, -8.4285821968534442)	(1.188923624443829, 7.0099800556492564)	(-8.2076835698478305, 3.2364647751794191)	1.0	z	1.00331
30	M	A	N	N					M	4	0	shapes	M	8	True	53	(4.2546471475154863, -6.6812234874503282)	(-7.4541687496301705, 5.9414807139569774)	(-2.4072335568324732, -7.3552608461044446)	(4.0384868664573972, 1.2902001862305053)	1.0	z	1.69303
31	M	A	B	B	A	N	M	N	M	8	2	shapes	B	8	False	53	(-2.829578702185386, -1.3749335230769484)	(6.0530103760453073, -3.8430245731784565)	(3.035822709297177, -6.4787488334213936)	(6.2747839934289527, 7.1519861804949993)	1.0	slash	2.22191
32	N	A	M	N					N	4	0	shapes	N	8	True	53	(2.9990492995084939, 3.3057769790714051)	(-8.244141261277365, -3.4827767189283048)	(-8.3967438767978404, 8.1379302813431273)	(8.2212975637312624, -4.1241735880925949)	1.0	z	1.29212
