TrialNumber	stim0	stim1	stim2	stim3	stim4	stim5	stim6	stim7	stim.probe	ttl.stims	corr.num	trial.type	stim.corr	block	match	Subject	stim.pos0	stim.pos1	stim.pos2	stim.pos3	ran	resp	RT
1	M	B	M	B					B	4	1	shapes	B	Practice	True	54	(2.5068828420451705, -8.5484850468887483)	(-1.8007650672546998, -5.239722013043508)	(-5.7151381422401721, 7.7641367950633473)	(5.2131249933596617, 7.8670639699556766)	1.0	z	4.64733
2	M	A	B	B	N	N	A	M	B	8	0	shapes	M	Practice	False	54	(-4.6207022853469644, 8.0874750328991247)	(-2.2546955743287285, -2.2777722112475711)	(2.7883998532460588, -8.1526492166299978)	(2.7636886745826921, 4.0062250803382273)	1.0	slash	2.5226
3	M	B	A	A					M	4	1	shapes	B	Practice	False	54	(5.6883081280289503, -1.4752756416631962)	(6.6224453583082283, 5.4245997235255654)	(-4.5855952464328915, -1.5897934795428244)	(-1.5891134469965387, 6.9523153413878926)	1.0	slash	1.22817
4	M	A	N	M					A	4	1	shapes	A	Practice	True	54	(-0.62670472120105281, -1.724973137719231)	(7.7017266244694262, 5.3090419701088685)	(-0.0033448701466074482, 6.4509866746317073)	(4.6403887622465412, -0.87817539362434793)	1.0	z	1.57574
5	M	B	N	B	A	A	N	M	M	8	3	shapes	B	Practice	False	54	(-0.32536708567790562, -6.4368836267513903)	(0.84914503954392195, 2.7120407970578917)	(-6.6211730119542551, 3.5855456781730659)	(-0.43356129491230355, -2.0305924084751155)	1.0	slash	1.13736
6	M	A	A	N	N	B	M	B	B	8	5	shapes	B	Practice	True	54	(-3.0245322513926514, 7.0431905216800814)	(-0.61372867514127449, -5.1134264452023235)	(2.3236655768676791, 6.3412452896556939)	(3.30275671855075, 1.2669836170281812)	1.0	z	1.49094
7	M	B	A	B	M	N	A	N	N	8	5	shapes	N	Practice	True	54	(0.62213519455397304, 1.8767296826714617)	(-6.1703769334960104, -3.050729561200149)	(5.7030351286121128, -7.321580624714187)	(-1.6780259585213395, -2.1073174731922633)	1.0	slash	2.07845
8	N	A	N	M					A	4	2	shapes	N	Practice	False	54	(-7.9957342142694046, -8.5929241436859627)	(8.419463332218033, 8.5766855645644213)	(5.1250476100912259, -4.0034312562508729)	(-4.1405309775208172, 0.58463844544560217)	1.0	slash	1.12818
1	M	A	N	N	A	B	M	B	B	8	7	shapes	B	0	True	54	(-7.156776941219162, 3.0782519864703026)	(-4.3214712821320047, 8.7146180871662189)	(-3.1157488652154468, -4.0468811982285073)	(4.7344900771892959, 3.3215958296770545)	1.0	z	2.11063
2	M	A	A	M	N	N	B	B	A	8	2	shapes	A	0	True	54	(1.4344912289313196, -7.2111587891854629)	(3.5851155969163901, 4.1729886952366151)	(-3.1767387480716165, -1.8249790164866866)	(-2.751223561845106, 4.6278292096795042)	1.0	z	1.454
3	N	B	A	B					N	4	0	shapes	N	0	True	54	(-5.2760153179168015, 3.2782043475053868)	(7.7861293118195434, -7.4527535244087755)	(-0.66054221410621849, -2.2671419661589134)	(1.1842979603626436, 5.7374854330812664)	1.0	z	1.41345
4	N	B	N	M	M	B	A	A	N	8	6	shapes	A	0	False	54	(-0.53208475723397086, 4.8405709949694717)	(5.9572092917372661, -4.6046653253735768)	(-5.1585643408579109, -5.7385983503999292)	(-8.1882426589200925, 4.5171856835515882)	1.0	slash	0.81524
5	N	A	A	N					N	4	3	shapes	N	0	True	54	(-0.022924674126677758, -7.1000709756764993)	(-6.3504631774688658, 0.29909825544420343)	(4.327655009361612, -0.43214926507812201)	(6.942789905852889, 5.3259138343214421)	1.0	z	0.838846
6	N	B	N	A	A	B	M	M	N	8	3	shapes	A	0	False	54	(1.1266065755672994, 5.3069929712736119)	(0.28485315219618279, -6.8166735649925281)	(-4.6477087173307163, 0.59103096896616947)	(-8.2820513235724089, 3.4504268454877138)	1.0	slash	0.988613
7	N	A	A	M					B	4	2	shapes	A	0	False	54	(-4.3169260748722076, 6.6327777130109311)	(-1.8736262797685646, -7.4355227123564172)	(5.1339352956663262, 7.2206754806787732)	(7.8508745062495713, -1.1752468362030646)	1.0	slash	1.04838
8	N	A	M	N	A	B	M	B	M	8	5	shapes	B	0	False	54	(4.2888784785120642, 6.4917307370264385)	(-7.971454244221686, -6.5042037764464382)	(4.4498414253805549, 1.5627970924679424)	(0.92143780755356275, -2.4197675493717057)	1.0	slash	0.795753
9	N	A	A	M					M	4	2	shapes	A	0	False	54	(-0.64900768250262786, -3.697912960428285)	(-0.49762139646464654, 7.9432077822254641)	(7.8152083203608385, 8.0256206349782175)	(2.8009644228245349, -7.2074156775568454)	1.0	slash	0.615742
10	N	A	N	M	A	B	B	M	A	8	1	shapes	A	0	True	54	(-7.1545850119650973, 6.4665725779347056)	(6.7666841882566331, 5.7263250041321516)	(-7.8076661077549581, -1.1276587737075854)	(4.8111008069457064, -4.6843070056750555)	1.0	slash	1.50541
11	N	B	A	N	M	M	A	B	A	8	2	shapes	A	0	True	54	(-4.0811248596894814, -7.217346838531804)	(0.99154446500681281, 1.667944452723841)	(4.7509501307002147, -4.7043352948366595)	(0.24427195298846449, 6.2238900233580665)	1.0	z	0.449005
12	M	A	N	M					M	4	3	shapes	M	0	True	54	(5.8805146872958627, -5.2634770850207886)	(-5.2994618372394449, -2.2426146907865689)	(1.1197058900103674, 1.2225881680457853)	(-5.5374245144650107, 8.0007623981770379)	1.0	z	0.920485
13	M	B	N	A					N	4	1	shapes	B	0	False	54	(0.23782202456130186, 7.5974132664219702)	(-6.9133165796257448, -6.2277379602811127)	(-4.923545829635577, 1.6960714370350196)	(1.073407861868958, -5.1429191009431294)	1.0	slash	1.52215
14	N	A	M	M					A	4	3	shapes	M	0	False	54	(2.1811982834810149, -1.75292485960561)	(-1.9339681486273967, 0.67465685102235184)	(4.8082751217729243, 3.1795232354158021)	(-5.6371272339869165, -7.6264044505752402)	1.0	slash	0.771916
15	N	B	N	A					B	4	1	shapes	B	0	True	54	(1.9932633661327639, 0.42510212051246121)	(-5.7991670348123598, 7.5975006712385671)	(-4.5727749479300233, -3.8989169879388959)	(4.2755712961843315, -7.5018377361930062)	1.0	z	0.955365
16	M	B	A	B	M	N	A	N	N	8	6	shapes	A	0	False	54	(-8.6632482924724119, -3.8270717472725364)	(-4.1535934412589306, 6.5608107200240617)	(2.1338738016608758, 5.418027893697932)	(6.322638713162922, 5.5083969225523841)	1.0	slash	1.56101
17	M	A	A	M					M	4	3	shapes	M	0	True	54	(2.2495913935083465, -7.3917556048738184)	(7.6986367663352837, 6.2992210551445886)	(-8.1011040956997071, -5.9055318657804072)	(-6.827825848299832, 7.0195347130745276)	1.0	z	0.842634
18	M	B	N	B					A	4	1	shapes	B	0	False	54	(7.3515989141969555, 5.4328599867007696)	(7.3089455622014867, -1.6486205636041236)	(-0.2734159098197857, 7.478728164129393)	(-2.7286099960754155, -7.0158637197525238)	1.0	z	1.08442
19	N	A	N	A					A	4	1	shapes	A	0	True	54	(-2.6758958778975108, 3.7912376873226261)	(1.4549852303374049, -1.336497486952303)	(7.230646575818616, 4.3574629756819867)	(-6.4399042350047218, -3.3247849117995356)	1.0	z	0.733819
20	N	B	M	N	M	B	A	A	B	8	6	shapes	A	0	False	54	(-0.20207855434897581, 4.0996003454010417)	(-0.79657656800116694, -4.7204582871207661)	(8.3749290565912595, 5.8755723636295869)	(-5.9823862598245778, -7.3024100480297909)	1.0	slash	1.06365
21	N	A	A	M	M	N	B	B	N	8	6	shapes	B	0	False	54	(-7.0118743055025305, -3.702694060521555)	(1.9504471117534106, 7.7918012429507577)	(7.7086945726377216, 6.7680394959300081)	(-6.88890868923444, 0.87141367216709753)	1.0	slash	0.751295
22	M	B	M	A					B	4	0	shapes	M	0	False	54	(2.2605272678690227, 3.1708597637286076)	(-7.6481897378245822, 4.0694463838151673)	(-6.0071899721021884, -2.9607724840630807)	(2.8643823960728731, -5.3559670520164024)	1.0	slash	1.01889
23	M	B	B	M	N	N	A	A	N	8	1	shapes	B	0	False	54	(-7.397228996302271, -8.1608895490225706)	(7.3045800270516459, -4.4056378986027429)	(1.5662374739624951, 6.2138328846182098)	(-3.3643543572589447, -1.2148032115454193)	1.0	slash	0.948551
24	N	A	M	M	A	B	N	B	B	8	5	shapes	B	0	True	54	(-5.1435144317693995, 4.7575546221677811)	(-8.6261060490117849, -8.2764629105740415)	(3.4176431191944125, -7.3763066451810193)	(4.9462483924700642, 0.3351682833347347)	1.0	slash	1.06838
25	N	B	N	M	A	M	A	B	M	8	5	shapes	M	0	True	54	(6.0358409816156531, 1.0710025505647121)	(4.2243600630755935, -6.7811433760506006)	(-7.9173831473241103, 6.5182981262230673)	(6.3616335743236281, 8.2385883503418107)	1.0	z	0.699773
26	M	A	M	N	A	B	B	N	N	8	7	shapes	N	0	True	54	(-2.3142259783018382, -1.8823087430131071)	(-1.5888341103601666, 7.4490719444051443)	(5.1112765381437502, -6.8435987193328787)	(-0.16141335057244, 3.5966105923441685)	1.0	slash	1.02138
27	N	B	A	B					M	4	2	shapes	A	0	False	54	(0.32760286178208098, -0.55624173189014314)	(-4.6810017817192593, -3.4285510348545793)	(-2.6057743639456072, 3.5464634419535095)	(2.0841800024103705, 3.0675260273768323)	1.0	z	0.979094
28	M	B	B	N					N	4	3	shapes	N	0	True	54	(8.7137961482847999, -3.7559726866381782)	(-2.1690848369423312, -1.8612622136613348)	(4.5849747023916176, 3.6033141995623783)	(-0.030745853571330528, 3.908311971116829)	1.0	slash	1.00078
29	M	A	B	M	B	A	N	N	N	8	4	shapes	B	0	False	54	(1.0770577411279767, 0.077934033739088804)	(-7.7651554243480057, 2.072348318883023)	(8.6769414111679701, 2.8140624010193864)	(-3.0272252550740015, 0.43748230332418458)	1.0	slash	0.84641
30	M	B	N	M					A	4	1	shapes	B	0	False	54	(4.2572536277515631, -7.0528868334162453)	(-7.8452532347933213, -1.1521171745982297)	(-1.0563160653849559, 0.27197357916071496)	(8.2055826878932372, 4.1085136910013613)	1.0	z	1.05617
31	M	B	A	M					M	4	3	shapes	M	0	True	54	(-7.7889318856511363, -5.8488258161055429)	(-5.2887699122799665, 1.3476349586805672)	(4.9770034027275134, 3.3978722345603973)	(0.47592545620626758, -7.7697463697796225)	1.0	z	0.77578
32	M	A	B	A	N	B	M	N	N	8	7	shapes	N	0	True	54	(-2.05635886142987, -2.0494720855079285)	(5.0095574500228519, 8.2674769764432163)	(0.5119026325441407, 6.7839343900467188)	(1.539154438111602, -7.2129125129145457)	1.0	z	0.721358
1	M	B	M	N					N	4	3	shapes	N	1	True	54	(-2.2991585473964733, 1.2252297869362732)	(4.343476949659772, 0.80395250702932053)	(-7.427210178121233, -2.5585531119417606)	(1.6315366839853152, -4.5651617989277398)	1.0	z	0.863091
2	N	B	M	M					M	4	2	shapes	M	1	True	54	(-6.2680999199493064, 6.6932208836724545)	(-2.9928496458140632, -6.8994767680427795)	(4.1371783274668523, 5.1095884037637074)	(7.439671976502872, -2.3409447986716145)	1.0	z	0.660731
3	N	A	B	N					N	4	0	shapes	N	1	True	54	(-3.328527792551438, -3.1133726802536739)	(5.2085528281837146, 6.4474631064031414)	(-7.9640178408601026, 7.8010154936120699)	(4.431756765532894, -7.1577609104205475)	1.0	z	0.482297
4	N	B	N	M	A	A	M	B	A	8	7	shapes	B	1	False	54	(-3.9374925667873297, -6.8455075771156668)	(-6.6469049345886262, 7.7945279722510179)	(7.5422125302619527, 7.6897026185385862)	(-8.572585674820683, -7.6059511789912371)	1.0	z	0.710272
5	N	B	B	M	M	N	A	A	M	8	4	shapes	M	1	True	54	(-4.0492005083183713, 5.2372441396460268)	(-0.39944909437797627, -6.487638713067752)	(4.0667671240602967, 3.3634117945494744)	(8.4486855621371504, 6.8819640191959479)	1.0	slash	0.901635
6	M	B	A	M					M	4	0	shapes	M	1	True	54	(7.3079380122219462, -3.7800378488000739)	(-2.1947359065731993, -1.7367890127473746)	(-0.5402678193456989, 3.6200843435987107)	(8.4682289935628496, 4.8452215321453806)	1.0	z	0.787152
7	N	B	A	B					N	4	0	shapes	N	1	True	54	(7.4504251665417449, -7.7921978066322612)	(0.47267337985708302, 2.7696562032554244)	(-6.2832752179197495, -1.950523014483502)	(-6.7479056915482269, 3.5628811459485217)	1.0	z	0.614974
8	N	A	A	B	M	M	N	B	A	8	2	shapes	A	1	True	54	(-8.2695361060923123, 1.5782770869188578)	(2.6618466901099165, -2.905738087620823)	(4.6358809691856013, -8.0357616876176898)	(-0.95196756225604506, 5.8383819638592271)	1.0	slash	1.00871
9	N	A	A	N					M	4	1	shapes	A	1	False	54	(-6.6865560782402262, 5.9513115834417381)	(-1.3940772950285387, -4.5626403615243136)	(5.4733683816764387, -5.1019879749478401)	(3.729817638746006, 3.54281334067241)	1.0	slash	0.736218
10	N	A	M	B					M	4	1	shapes	A	1	False	54	(-1.7865225013475214, 6.0837228142678867)	(8.4524939935471828, -3.0962943294643104)	(-4.7034462176950802, -5.5957564691412003)	(5.6047453365314581, 1.1638905983468018)	1.0	slash	0.807999
11	M	B	M	A					N	4	0	shapes	M	1	False	54	(5.0728120852422833, -1.0171808290406839)	(-5.5258418621966667, 3.8389726646762661)	(0.98831972121487333, 2.5667325469543414)	(-5.7379161762166664, -2.8187226145811959)	1.0	slash	1.42356
12	N	B	B	A	A	M	M	N	N	8	7	shapes	N	1	True	54	(-5.6396697404521676, 7.2081892284778544)	(6.4258141268379418, -8.4515530568315924)	(5.3067952671651781, -0.44650976552487975)	(6.5234720287918577, 4.559967886024884)	1.0	z	0.71931
13	N	A	N	B					A	4	2	shapes	N	1	False	54	(-2.6267907836396418, 1.9613329621469191)	(2.7952625748467597, 6.9974285996463408)	(4.3554367922643848, -3.0958992208791347)	(-3.4611103806079271, -5.3665860623906312)	1.0	slash	0.464807
14	M	B	M	N	A	N	B	A	N	8	3	shapes	N	1	True	54	(-4.5861976630401857, -7.9766733711130504)	(1.8573650648257729, 2.2637421332904584)	(-8.138797953141216, -3.940808915075718)	(-6.236453948964761, 5.9200276573436827)	1.0	z	0.600565
15	N	A	M	B	M	B	N	A	N	8	7	shapes	A	1	False	54	(3.9790713135338702, -3.5661811440128792)	(-5.8869891029808157, -2.0012680159151994)	(1.0809922264036622, 7.0175932435577106)	(-2.576328966154886, 2.4597276795585028)	1.0	slash	0.830406
16	M	B	N	M	N	B	A	A	B	8	1	shapes	B	1	True	54	(5.3847676844148893, -6.078747684795454)	(8.221681384771653, 3.487260579263225)	(-1.8380704481664818, 7.52952855659451)	(-5.5922595993998074, -1.8428324795880746)	1.0	z	1.11776
17	M	A	M	A					A	4	3	shapes	A	1	True	54	(-6.7286497170998096, 0.1570965934253028)	(-1.4102238376006975, -0.36496113075043013)	(5.5384525519024645, -7.4507533199398654)	(4.2891636249776717, 4.9632576624002276)	1.0	z	0.661612
18	M	A	A	M	B	B	N	N	B	8	6	shapes	N	1	False	54	(-0.1547452155264839, 1.4492233417719955)	(8.3439515718329496, -5.5722138526757483)	(4.7917207692734607, -7.6332236917976193)	(-7.5253257190264584, 3.9618844103771007)	1.0	slash	0.789084
19	M	A	A	N	B	B	M	N	N	8	6	shapes	M	1	False	54	(-7.7337939826200968, -8.3741101471974275)	(6.3248775901907539, 1.6214872114791135)	(-4.8512191340155297, -4.8008733462804534)	(4.2975408061320373, 6.1808226086205007)	1.0	slash	0.796897
20	M	A	N	A					M	4	3	shapes	A	1	False	54	(3.4567911793649948, 2.6989386922801266)	(-7.5952351509809652, 8.1537017288003248)	(8.5589761581544472, -7.5519279608767196)	(-5.9986779067864227, -3.9945918103949891)	1.0	slash	0.680438
21	M	A	N	N					A	4	0	shapes	M	1	False	54	(8.1244842773479178, -1.3487717135177721)	(1.1556495920355729, 6.9016480339341744)	(-2.5807620155914925, 1.8689943588536497)	(-6.0422916547459575, -4.505982734245281)	1.0	z	0.674115
22	N	B	N	B	A	A	M	M	N	8	0	shapes	N	1	True	54	(6.0933250667620857, -5.0608780537423446)	(-4.926885085521822, -4.3022735478312981)	(-3.9434519440280065, 3.0919023886644403)	(0.0091800081490998053, 7.4854282911883985)	1.0	z	1.62382
23	M	A	N	M	B	A	N	B	B	8	0	shapes	M	1	False	54	(-2.1240728628101326, 4.7576637066558494)	(6.4332790521642949, 2.4219488331952128)	(-6.3475431871666075, -6.3648814840073484)	(2.5516421825535041, -3.1787647394657901)	1.0	slash	1.28743
24	N	B	A	M	B	M	A	N	A	8	6	shapes	A	1	True	54	(-6.2417038215769374, 0.71688821054379837)	(-1.9139911389720119, 5.1112524928877487)	(7.7215318098248957, 1.1884906988641077)	(0.30293672602472732, -1.7416278345816361)	1.0	z	1.11512
25	M	B	N	N	M	A	A	B	A	8	7	shapes	B	1	False	54	(6.6813431277302495, -1.3851542251150111)	(-2.3436559079381798, -7.6390445351720153)	(1.1849691085619565, -0.35193868685531626)	(-5.1286934768792714, 8.0529080102490802)	1.0	z	0.912633
26	M	B	N	N	B	M	A	A	A	8	1	shapes	B	1	False	54	(6.3529276467416551, 3.9131055512539508)	(-5.6246869457441875, -6.0666357172539023)	(4.1083019790569004, -8.0205131069869537)	(0.37752039764644785, 1.5764995554512904)	1.0	z	0.784322
27	M	A	N	B					B	4	3	shapes	B	1	True	54	(-7.8338279812249647, 1.4194198854001971)	(6.9426349463394743, 6.4718354573794254)	(-0.46423235867369783, -2.626807771547977)	(5.2093651802410541, -2.6222883365776433)	1.0	z	1.46991
28	M	A	A	N	N	B	M	B	N	8	7	shapes	B	1	False	54	(7.066493655689877, 8.2482827409918578)	(8.1054144353919106, -0.38589499236073799)	(-3.3026097962135035, -2.9891846471164101)	(4.3722243027649927, 2.7770721803293235)	1.0	slash	0.965527
29	N	B	M	A	A	N	M	B	B	8	7	shapes	B	1	True	54	(4.3061351053084902, -7.7015245968658297)	(-3.2671054734274083, 4.5667286184367786)	(-6.7690934639364766, -2.3564254051812918)	(-8.1202634736346102, -6.3815574363398504)	1.0	slash	1.43319
30	M	A	N	M					B	4	2	shapes	N	1	False	54	(0.36514851211498822, -7.9808244813899387)	(-8.6922221557576727, -0.59094865324249923)	(1.8081408214935877, 5.9528939631860585)	(-1.769720131743842, 0.47543460248936142)	1.0	slash	0.732789
31	N	A	M	B					N	4	3	shapes	B	1	False	54	(7.2021792519068288, 1.9681781427130076)	(-3.445439826591616, -8.4494855571965548)	(-5.5346454900007522, 1.9148292820121622)	(6.6483132727776511, -8.4866213824689503)	1.0	slash	0.860288
32	N	B	B	N					N	4	0	shapes	N	1	True	54	(-1.6213648774906444, 6.0660641489990965)	(8.5038158869379004, -0.2162174696532464)	(5.8438368957836833, 8.1306544572037787)	(-0.6872089267112802, -1.1800934757149442)	1.0	slash	1.01818
1	M	A	B	A					M	4	3	shapes	A	2	False	54	(-1.279061712103454, -8.4772499225796452)	(5.6637549128211795, 6.7924274536688074)	(7.0985294603436184, -3.9918237206638132)	(-1.5607856197017211, 2.7950996201569165)	1.0	slash	1.1798
2	M	B	N	N					A	4	0	shapes	M	2	False	54	(2.4243755844587529, -7.1893058483190906)	(-0.51892254918617731, 7.4114529154996269)	(-7.5989397628535249, -1.6104248609075391)	(2.1928919629447865, 1.5664948449118743)	1.0	slash	0.95328
3	M	B	B	M	A	A	N	N	M	8	3	shapes	M	2	True	54	(3.466376719446318, -5.8877953025160794)	(-0.26305038772844114, -3.4299091208194277)	(-5.7202046007731564, -3.4042383225704276)	(-1.089491156084021, 2.2339350245297318)	1.0	z	0.774992
4	N	A	N	A	M	B	B	M	M	8	7	shapes	M	2	True	54	(1.1484950664723623, -8.2831044386858679)	(-7.6819253922890285, -0.86593056658407885)	(-2.2331857460935085, 1.0570978367782207)	(-5.6652337680900118, -8.1582342070090323)	1.0	z	0.720564
5	N	B	A	B					N	4	2	shapes	A	2	False	54	(6.2879206561398764, 0.13391953539215784)	(4.6416247942503635, -3.9212082368303092)	(-8.0975983790495807, 1.8856475560912092)	(-3.7833270173306328, -5.0941885140978638)	1.0	slash	0.626222
6	N	B	B	A					A	4	2	shapes	B	2	False	54	(8.6431633200769298, -2.6685527232542912)	(-6.2765989292404925, -2.8052280129287048)	(-0.70424542601732831, 7.1437412161419189)	(1.7180401389620155, 2.2083421127838143)	1.0	z	1.19206
7	N	B	M	N	A	M	A	B	B	8	7	shapes	B	2	True	54	(0.68527175543577279, 3.6406356823934054)	(-3.8939335848767973, 0.54354399060657066)	(7.5272566398001786, 6.2353186574787625)	(-8.7057964903759899, 8.6101830120939802)	1.0	z	1.2217
8	N	A	B	B	A	N	M	M	N	8	5	shapes	N	2	True	54	(6.0671317538430589, -0.74892258725987304)	(2.0757556493948961, 6.9602755357346364)	(-2.229327284751772, -2.3574789818906661)	(-2.1116169789970076, -7.8922855629289295)	1.0	z	0.93309
9	N	A	N	M					A	4	1	shapes	A	2	True	54	(-1.6777779672505417, -7.325196908545748)	(-5.7725597943792337, 2.375556762926001)	(6.7512572772656227, 2.503410087689657)	(7.9018084913098221, -1.3427720147492233)	1.0	z	0.748756
10	M	A	B	A	M	N	B	N	A	8	1	shapes	A	2	True	54	(-2.1296795312446282, -1.6301775821727524)	(0.11345948498987291, -7.3502211379469102)	(-8.1983921439452825, 1.2209507391430332)	(8.2019510175558743, -0.05852137993432649)	1.0	z	0.820571
11	N	B	B	M					A	4	1	shapes	B	2	False	54	(-4.9983383078838237, 2.8915509538336508)	(8.3102162312651409, -2.0330747594127692)	(6.8867238231816046, 3.9290381089606932)	(-2.609045045667016, -8.3675267046638897)	1.0	slash	0.706111
12	N	B	A	B	N	A	M	M	N	8	3	shapes	B	2	False	54	(1.0822287797947112, 6.8474839176745572)	(-1.7864092916881331, -4.4021262411810484)	(7.9951543008209924, -4.8776432754551333)	(-4.1901878363045686, 1.4242701115321221)	1.0	z	0.785895
13	M	A	B	A	M	B	N	N	A	8	3	shapes	A	2	True	54	(-6.2285906833336089, -7.0882267600816142)	(-1.4472814714125191, 5.8739249591603855)	(7.4867223136882011, 3.0885593454399594)	(3.3056904769197146, 5.3219739163510802)	1.0	z	0.857566
14	N	A	A	B	B	M	M	N	A	8	3	shapes	B	2	False	54	(3.5355461020889383, 8.6627318039960066)	(-1.0832354302750833, 7.5857150545313594)	(-6.9737662604080679, -7.718629441823273)	(1.6227897736083161, -1.3587713980748095)	1.0	slash	1.29114
15	N	B	B	M					B	4	1	shapes	B	2	True	54	(6.7960557196816431, 7.8712153272479277)	(-5.9384680917306198, -1.4143815026362097)	(-1.9788090738011919, 7.7987901482055086)	(8.4051295505206589, -6.4955973151610467)	1.0	z	1.05877
16	N	B	A	A					B	4	0	shapes	N	2	False	54	(2.599697793812739, 0.86760645072775056)	(-1.3495560695493207, 8.0562275632485765)	(-5.3430103806155147, -4.9262312289011998)	(6.0198139274418043, -4.7128671430479576)	1.0	slash	0.752535
17	M	A	A	N	N	B	M	B	N	8	7	shapes	B	2	False	54	(-6.5669688637780474, 0.71228030026531286)	(6.6324068666644607, -3.516833012527866)	(-6.4055193694320742, 5.7556649869532048)	(7.6471746916267342, 2.1926722177393785)	1.0	slash	0.997972
18	N	A	B	B					N	4	0	shapes	N	2	True	54	(7.3379890826603749, -4.3649364766533374)	(3.0465525190938099, 3.9672654163897771)	(-1.376109375787788, 0.22484577776929093)	(-6.4654910914327575, -7.6649119530596472)	1.0	z	0.663698
19	N	A	N	M	B	B	A	M	M	8	6	shapes	A	2	False	54	(5.3823592454868816, 3.8649197075442778)	(1.2904608154292188, -5.5676694634897235)	(-2.0001302253895954, 7.6638775814807154)	(2.0545376599709027, 7.6924975059138703)	1.0	slash	0.799155
20	N	A	A	B					A	4	1	shapes	A	2	True	54	(-8.5392271415716703, 4.7305821237674994)	(-0.20068374848164261, -2.6578522620310201)	(6.8426034617092775, -5.1002927519281229)	(5.1670335032776773, 2.3668133933680906)	1.0	z	0.784917
21	M	A	B	N	M	A	N	B	A	8	7	shapes	B	2	False	54	(0.73928073620594326, -2.7441217438709558)	(3.1671295923881466, -8.6737987992744205)	(-4.8399562885212113, -7.4972003473166975)	(-6.3031426686527467, 7.3877787782466413)	1.0	z	0.896668
22	M	A	N	N					M	4	0	shapes	M	2	True	54	(-3.3710511331501998, -3.8080040489424691)	(1.1528825170030359, 4.4420613437885947)	(8.1205405075367842, -1.21974257182735)	(-7.5458566405535645, 6.6044638720802045)	1.0	z	0.848154
23	M	B	B	M					A	4	0	shapes	M	2	False	54	(-6.8338148719348526, 4.0675894637463035)	(0.28861376180902987, -0.3440518157814072)	(2.5321188548187603, 4.1656428372602825)	(-5.7009556754402952, -3.2274625305304943)	1.0	slash	0.711948
24	N	A	A	M					A	4	0	shapes	N	2	False	54	(7.9566515742312198, 7.024699958055951)	(-0.966096795939408, 1.4157729422628194)	(-1.2194922186477983, -5.6998931928903289)	(6.3898721872410942, -1.5809257282726135)	1.0	slash	0.619665
25	M	A	M	B	N	N	A	B	B	8	0	shapes	M	2	False	54	(2.5836353135050949, -2.5811335798087249)	(5.0904081842524693, 4.2486076136811715)	(-4.5582264018838021, -2.6176226665713109)	(-1.1977213477891073, 0.98939978819798924)	1.0	slash	0.749261
26	N	B	A	A	B	N	M	M	B	8	2	shapes	A	2	False	54	(-8.3402690917027815, -7.2011820165566798)	(-0.93289421934600014, 4.456299741256446)	(-2.4386345525668869, -5.0721695449516666)	(5.5975102087604434, 1.9512834791891347)	1.0	z	0.884904
27	M	A	N	B					A	4	1	shapes	A	2	True	54	(-2.6651663014018183, -6.2790840471968101)	(-8.2239095023589552, 2.4668272946107805)	(0.91899147711099261, 6.6040977892233759)	(8.3559749089163731, -4.6211094128211396)	1.0	z	0.798692
28	N	B	N	B	A	A	M	M	M	8	7	shapes	M	2	True	54	(-2.0302017374166077, -6.249768206878402)	(3.0119492590693184, -5.6483637687989887)	(-1.3047802573505818, 3.4386015496704783)	(8.0232541359520546, 8.3052130187267323)	1.0	z	0.812434
29	M	B	A	M					A	4	2	shapes	A	2	True	54	(-4.7240722687451271, 6.5644190543280931)	(3.8668906758937212, -6.7225229058781339)	(-3.4151509600715881, -1.6089625257585771)	(7.9140972351294536, 7.3208644264319389)	1.0	z	0.803958
30	M	A	N	M					M	4	0	shapes	M	2	True	54	(0.88532648198442487, -4.8654361176143119)	(3.7282725244115262, 5.3041900918919307)	(-4.2270983318745907, -6.9425890652626832)	(-7.8853913616036877, 6.9488973253285806)	1.0	z	0.821633
31	N	B	M	A	N	B	M	A	M	8	2	shapes	M	2	True	54	(-1.5733509052095522, -4.3532203306928254)	(0.54282223507630434, 0.1397438237423696)	(-5.7857953987254316, -7.683350148882603)	(8.1106354661576994, 6.7203279012153132)	1.0	z	0.74922
32	N	A	N	M	B	M	A	B	A	8	3	shapes	M	2	False	54	(1.8095171742512512, 7.6806527725619063)	(3.5919867756204784, 2.3820156877643335)	(-4.4885023144573468, 3.3856524814846232)	(-1.9355630551707836, -4.0724614860288604)	1.0	slash	0.956771
1	M	B	M	B	A	N	N	A	B	8	2	shapes	M	3	False	54	(7.1684034439891153, 6.9537316137267133)	(2.7301365746491815, 7.0618708189120714)	(-6.3540846272357001, 0.14120667562009714)	(-3.7824064343129926, 5.9010104689429124)	1.0	z	0.676589
2	M	A	M	B	A	N	B	N	A	8	5	shapes	N	3	False	54	(1.0839022743175484, -6.8560738953533615)	(-5.786626284889703, -8.0049558832932348)	(6.6445897580016418, 1.4235724940457519)	(5.0861922927369907, -6.7257800552522466)	1.0	slash	1.05825
3	N	B	B	N					N	4	1	shapes	B	3	False	54	(2.7015360589133568, 2.4001144015779445)	(-2.7560398384457532, -7.7483162247429682)	(-1.6328346491907233, 1.567925889170656)	(3.9343536434087607, -8.7266648463340069)	1.0	slash	0.839633
4	N	B	B	A					B	4	3	shapes	A	3	False	54	(1.5403168198620829, 1.8717975148382422)	(-2.7278359887477226, 2.0301416215747565)	(3.0556280934464493, -1.986626938286622)	(-8.5620394055948132, -7.326055376940535)	1.0	slash	0.857399
5	M	B	B	A					M	4	0	shapes	M	3	True	54	(8.1281718704311459, -5.3243534687379235)	(-3.2230119971969682, -1.0995039199973133)	(4.7746766879663625, 0.64974151297491112)	(-4.1319321599794741, 3.0865108901086131)	1.0	z	0.862946
6	M	B	B	N					N	4	2	shapes	B	3	False	54	(-1.0763786898081849, 3.1102422761487176)	(3.7327428533053162, 0.14221795366545464)	(-2.1031497125853864, -6.8060437753122329)	(8.1196287227480788, -0.57631625388581043)	1.0	slash	0.748789
7	N	A	N	B	M	A	B	M	B	8	6	shapes	B	3	True	54	(8.2157648401423735, -3.3478198822367569)	(6.3161983031014906, 5.1967882999793851)	(2.208566670037909, -7.9750701493104801)	(1.4440754667160594, 8.1636523382497259)	1.0	z	1.01238
8	M	A	B	A	N	B	N	M	M	8	5	shapes	B	3	False	54	(4.1213590370427404, -8.1241761140406172)	(5.8540948930663639, 0.5809322732742892)	(1.0330395961307932, 0.90357011977585522)	(-2.1872650348151987, 4.0913423015400454)	1.0	slash	0.685934
9	M	B	B	M	N	A	A	N	M	8	4	shapes	N	3	False	54	(0.21210126520004735, 3.6170268575721654)	(0.49462140822473621, -2.5334370426553905)	(8.588808550442554, -3.2141729061432462)	(6.8673718240402728, 8.6484039775497941)	1.0	z	0.739707
10	M	B	N	B					M	4	0	shapes	M	3	True	54	(1.0026483278187381, 2.5045824447833525)	(5.5097814937316603, -3.670592841758336)	(-4.7305128626304498, 7.1814139685115226)	(-5.1109523965293189, -0.6482791262998937)	1.0	slash	1.56936
11	N	B	B	N	M	A	M	A	A	8	1	shapes	B	3	False	54	(-8.3028322403505559, 0.68162385822519589)	(7.6473003915798934, -5.1852859149201684)	(6.266058960660212, 7.41623003325833)	(-1.3057740170555983, -4.2572945989945818)	1.0	z	0.860896
12	N	A	N	A					N	4	0	shapes	N	3	True	54	(-8.0019367196406783, -4.5705911410794871)	(1.5542242872382932, 3.124045291459268)	(4.2889780134706328, -3.662565624464011)	(-1.5063286368087923, 6.2177051806932546)	1.0	z	0.746662
13	M	A	M	B	B	N	A	N	B	8	4	shapes	B	3	True	54	(-6.9516574910721936, -4.0671293189413253)	(0.26675434596987913, -3.079819792991799)	(7.6096604261345107, 0.8346608482344422)	(0.72062223962990934, 2.2588178913781007)	1.0	z	1.35412
14	M	B	N	M					B	4	1	shapes	B	3	True	54	(-1.6861740108258081, 0.26819783793570551)	(4.4609431372933059, -0.39005832337439372)	(-4.3841205356395756, -5.6284579816035487)	(3.4975936044009615, 5.5985135413250919)	1.0	z	0.661711
15	N	B	A	M	B	M	N	A	B	8	0	shapes	N	3	False	54	(-1.4637651878368203, 2.758658186662247)	(-3.7891221582860606, -6.8838997408036224)	(2.471698588942937, -8.0408746200077719)	(6.4769983326325793, -4.0182947105971696)	1.0	z	0.789528
16	N	A	A	M					N	4	1	shapes	A	3	False	54	(8.0792702206432097, 0.73122825351814669)	(-1.4947162032312065, 8.6469465953533522)	(-2.2669702398735261, -5.7557733876138943)	(4.2293172364089386, -8.2031965344361613)	1.0	slash	0.769147
17	M	A	M	N					A	4	1	shapes	A	3	True	54	(-1.1662329478406743, -1.7316873175986691)	(-0.61779132311576745, 4.5736030921869393)	(3.1889939208679436, -5.482974654781005)	(6.6042233804257968, 3.9607702395423896)	1.0	z	0.744872
18	M	A	A	B	B	N	N	M	M	8	3	shapes	B	3	False	54	(-0.9617214392004918, -3.0347795487768483)	(7.5091806047890906, -2.501886653810506)	(2.9617662952499284, -1.0656144116510609)	(-3.0580713541466915, 1.0646183603370183)	1.0	slash	0.800448
19	N	A	A	N	B	B	M	M	A	8	2	shapes	A	3	True	54	(7.9530260478192965, -0.4691664823603805)	(-0.82344856153054025, 4.4682319946216129)	(-5.1639796945821228, 1.4500722304811671)	(6.8528777893894013, 4.4979644455844348)	1.0	z	0.677705
20	N	B	A	M					A	4	1	shapes	B	3	False	54	(5.9522776984892971, 0.91549528552300075)	(-0.65872870989778143, -4.752803337631045)	(-0.95084414554811936, 3.029575982171627)	(3.3542687463548333, -2.5134125317918903)	1.0	slash	1.32784
21	M	A	B	B					B	4	3	shapes	B	3	True	54	(-4.1315611018476321, 3.2046619830045344)	(-6.959565270044946, -3.7722032081358954)	(5.1442718023478164, 2.309039079206693)	(5.6062307316503102, -4.2103919129284906)	1.0	z	0.591519
22	M	A	A	M	N	B	B	N	N	8	7	shapes	N	3	True	54	(0.29072401974058337, 3.0787966390209078)	(1.3119156070451403, 7.74840512933811)	(8.5080682887853669, -0.72983513281737444)	(2.872895744554878, -7.6110356669542378)	1.0	z	0.485097
23	M	B	B	A					A	4	2	shapes	B	3	False	54	(5.8123720193972215, 4.4255601842537509)	(2.1839762912245941, -6.3220196405405282)	(-7.8435025441986763, 1.27326576926691)	(-5.0920555386278972, -5.2460541155377474)	1.0	slash	0.679002
24	N	A	N	A					N	4	2	shapes	N	3	True	54	(7.1526339123921083, 4.3632695965982418)	(-6.2685258429254755, 1.8431926187288035)	(-8.0696962786654236, -6.4438854760719479)	(8.0930058786239591, -2.9117898944561214)	1.0	z	0.456495
25	N	A	N	M					B	4	3	shapes	M	3	False	54	(4.2548571832815139, 6.025883205729631)	(5.3086597392431703, -4.9170300625604249)	(-0.083213059734985606, 1.5682444191742011)	(-5.5621586628227888, -7.8112203578253334)	1.0	slash	0.624081
26	N	B	A	B					A	4	3	shapes	B	3	False	54	(3.5251939542068591, 4.5067061296262363)	(2.8305926787978155, -8.379165613055946)	(-3.6879696502570329, 3.7089944676915092)	(-5.8359944150576162, -6.07421037683749)	1.0	z	0.653883
27	N	B	N	M	M	A	B	A	B	8	1	shapes	B	3	True	54	(1.7080176580265451, -5.298256847139263)	(5.024439871646015, -8.4960704599621213)	(-0.035376763199105099, 3.8455932724640913)	(-6.8180375498503691, -1.7293345886046634)	1.0	slash	0.727529
28	M	B	N	B	N	A	M	A	N	8	2	shapes	N	3	True	54	(-1.5908068738399468, -8.0819361225798882)	(8.662499084643148, -2.7598655207819771)	(5.1236127461885896, -0.80381843698125621)	(-3.9917760297843738, 8.028007826549274)	1.0	z	0.587133
29	M	B	M	B	A	N	N	A	A	8	0	shapes	M	3	False	54	(-1.5600204053417439, -5.6203899849392922)	(-4.2092125264322107, 2.1330331349548501)	(1.6554062988655964, 4.2926229809699112)	(5.5036788736430129, -7.8287100917082011)	1.0	slash	0.946923
30	M	A	B	N					B	4	2	shapes	B	3	True	54	(0.97819539019979374, -1.5348727540363543)	(-1.8333226754478442, 2.02137957647329)	(-6.375769258654393, -4.6368334076796112)	(5.1155899409560863, 2.904990582392255)	1.0	z	0.704469
31	N	B	N	A	A	M	M	B	B	8	7	shapes	B	3	True	54	(0.69414849748427088, 4.5671393463729935)	(2.6803875071105256, -1.7855307857298266)	(-6.0729501593608273, 4.6640218563862241)	(-4.9532820426307635, -1.6590751695743196)	1.0	z	1.41642
32	M	B	M	B	A	A	N	N	N	8	6	shapes	N	3	True	54	(-2.0987478095460324, 1.9863391387133955)	(1.8306712899535214, -3.1016618812020909)	(5.3723042252087083, -0.86630264589741124)	(-7.2365614676615557, -3.5824847419788828)	1.0	z	1.66557
1	M	B	M	A	A	N	N	B	N	8	0	shapes	M	4	False	54	(-0.59030805543261344, 2.6433890369892961)	(-4.4385848119990809, -2.7479281086078187)	(-1.3175931767138334, -7.7787091244634841)	(6.8308646446456578, 4.5879820412490204)	1.0	z	1.18123
2	N	A	N	B					N	4	1	shapes	A	4	False	54	(7.8053124512156771, 0.3896978230753021)	(-1.9814013419573513, 4.5941460740672593)	(4.967601414391126, -3.3393216854651051)	(-8.3719063427278151, -3.2829406177042113)	1.0	slash	0.522867
3	M	B	B	A	M	N	A	N	B	8	3	shapes	A	4	False	54	(6.2244566976986206, -7.285862023068427)	(-4.0801342281848392, 8.7046105607512239)	(-0.025934007328253017, -5.1419673886479718)	(-8.2096201287469093, -6.2000451910302257)	1.0	z	1.02259
4	N	B	B	N					A	4	2	shapes	B	4	False	54	(-4.0139070816895295, 3.7163987795820574)	(6.7224291020891336, 0.18715292806207628)	(1.6112461447538156, -6.8227499155204487)	(-6.7972246442757847, -1.2059965743695402)	1.0	slash	0.924059
5	M	B	A	B	A	M	N	N	A	8	4	shapes	A	4	True	54	(-0.24436325216652222, 4.4050651619962586)	(-8.0314735160309141, -5.5890048670829007)	(3.1427117972041003, 8.0754554088316794)	(1.1535211579482816, -3.9373639116324348)	1.0	z	0.751943
6	N	B	A	M	M	N	A	B	N	8	2	shapes	A	4	False	54	(5.9120155578389735, 3.2915818888805006)	(-5.6590442933798606, -1.4903881852544112)	(7.20922785171709, 7.1965118529019723)	(0.4160350659757448, -1.2080266892383129)	1.0	slash	0.813633
7	N	A	N	B	M	M	B	A	N	8	5	shapes	M	4	False	54	(-3.070296516194059, 7.785461781161505)	(7.9243220382506045, -8.3261960872884178)	(-4.1347698953072802, -5.358831229188139)	(-5.4826570239301748, 3.7668049359121234)	1.0	slash	0.799355
8	N	A	M	M	A	N	B	B	N	8	5	shapes	N	4	True	54	(4.5537313068243677, 6.4009980484502957)	(8.4736705486783492, 7.3407239478513588)	(3.1641707915456418, -6.7752828158579659)	(-0.088131333561282332, 6.5602794250447243)	1.0	slash	1.47702
9	N	A	N	A					N	4	0	shapes	N	4	True	54	(6.1955940557000417, 5.0760098659079507)	(0.31570796957949732, -0.99081022188859968)	(-3.9070517245211827, 3.6021714032470697)	(-3.6906298457315891, -7.5994363732022441)	1.0	z	0.632388
10	M	B	B	M					M	4	0	shapes	M	4	True	54	(6.7623967427202345, 8.6306552507160852)	(-0.91054317772527238, 0.43725344836818003)	(7.8515907032058081, -2.6992241170577547)	(-6.302223786198808, -6.8921628741426861)	1.0	z	0.820161
11	M	B	N	M					A	4	3	shapes	M	4	False	54	(1.0867965554236232, 4.1240095861603745)	(-7.4790974730933613, -1.4949847413802715)	(6.7142443924017119, -5.5761483514731021)	(-1.2983911560481127, 8.369925389799306)	1.0	slash	1.01767
12	M	B	N	N					B	4	0	shapes	M	4	False	54	(-5.9105329669022089, 7.5606990646011347)	(-2.5841021383683334, -4.7044318031988759)	(3.3540743164661215, 2.1889151019415056)	(4.2071525069285443, -6.9737425176587173)	1.0	slash	2.17746
13	M	B	A	B					M	4	3	shapes	B	4	False	54	(3.5456330183455798, -2.5126128377740296)	(-8.749389810695785, -8.3928381158001226)	(8.0742730105115825, 4.3849221051088811)	(-0.23369860720723779, 3.3549458021248864)	1.0	slash	0.662945
14	N	A	B	M					B	4	2	shapes	B	4	True	54	(-6.0101245249245316, -3.615595490750799)	(2.8674007537284911, -0.51005793557265733)	(-7.7037703947873286, 6.8272001910019959)	(3.6868206726714146, 5.8032551104812899)	1.0	z	0.732488
15	M	A	M	N	N	A	B	B	M	8	6	shapes	B	4	False	54	(-7.5582224813483236, -4.9752187319865149)	(3.3402619729686549, 2.6549440732918459)	(-1.2124982782016884, 4.141335773590848)	(4.9660910605536923, -8.1993233227481817)	1.0	slash	0.886422
16	M	A	M	A	B	B	N	N	A	8	1	shapes	A	4	True	54	(-6.1062508765135153, 5.6719140682121623)	(8.6499908462924715, 3.6349759404834217)	(-6.1642465328296785, 0.3460326301111607)	(1.170891994657687, 1.8118573492808583)	1.0	z	0.738151
17	M	B	N	N					M	4	0	shapes	M	4	True	54	(1.3990820455667272, 6.9369042901008839)	(-2.0457564791277187, 2.4334845013216224)	(0.95907971823048932, -1.4898199609033842)	(-7.2382927274456037, -6.8034260905884194)	1.0	z	0.647562
18	M	B	M	N					B	4	1	shapes	B	4	True	54	(1.2975186896250737, 8.2226034106546848)	(-4.5311590818957619, -0.17053431268769081)	(-5.4430187647638464, 4.3371969774025843)	(0.59819080280986725, -8.361998511026961)	1.0	z	0.681193
19	M	B	M	A					A	4	3	shapes	A	4	True	54	(-1.4774521458219283, 4.4765945556403803)	(6.1959100757857914, 7.5799510157365191)	(0.77193786951345444, -3.86520076073809)	(-6.8273146720984279, -2.640220382341707)	1.0	z	0.538919
20	N	A	N	B					N	4	0	shapes	N	4	True	54	(2.9352902928252629, 6.2953143356946182)	(-7.8758574011004185, 7.8019466767260859)	(-2.3877445159432567, -6.8149073233498054)	(2.2402363940903882, -5.8385260172938622)	1.0	z	0.70467
21	M	A	A	B					N	4	2	shapes	A	4	False	54	(2.3569342014169372, 7.0738916088389274)	(-1.97422714144603, -1.2146786566919525)	(-5.6366226455406023, 1.2234813543060294)	(8.642277331936306, -4.1489061266105969)	1.0	slash	0.582296
22	N	A	N	M	B	A	M	B	M	8	3	shapes	M	4	True	54	(5.4795289324295613, 0.92159164013846961)	(-7.4596048825716617, -7.7767382958089426)	(-3.5207334216909008, -0.56533709747639094)	(-5.9726068373155083, 5.1087621913840771)	1.0	z	0.766021
23	M	A	M	B	A	B	N	N	B	8	6	shapes	N	4	False	54	(-0.082597636463136226, 6.007291426330891)	(1.162508844419726, -0.18323859666361386)	(5.8497522465329634, -0.86748514294414569)	(-8.6224853096449721, 8.1955925075064116)	1.0	z	0.761486
24	M	A	A	N	B	B	N	M	N	8	7	shapes	M	4	False	54	(4.4870501606222533, 5.8044458004681374)	(1.6664738304649713, -1.1338740337893451)	(6.3091024907386455, -8.1085027594653116)	(-5.619790071830252, 5.3969110336452868)	1.0	slash	0.78937
25	N	A	B	B	M	N	A	M	B	8	3	shapes	B	4	True	54	(-3.3461378296282023, 7.0735957631112889)	(1.2508513629460616, -3.2101506875061521)	(-5.5354412384927585, -5.2657967629380504)	(4.3382942963308526, 7.073813649345615)	1.0	z	0.772916
26	M	A	M	N					B	4	1	shapes	A	4	False	54	(6.479553640859681, -4.720910177080615)	(-4.1483179415858533, 1.6098548837345206)	(0.98578308491246247, 8.5521052588558462)	(-8.0895953188932843, -4.1842996422380514)	1.0	z	1.01243
27	M	B	A	B	M	N	A	N	M	8	2	shapes	A	4	False	54	(2.8877667831966853, -3.9131221636722007)	(-2.0402347755408829, -1.4670141100718883)	(0.95009501928745266, -8.0102858712964302)	(7.3057265431161333, 8.4325313845922487)	1.0	slash	0.942343
28	M	B	A	N	M	B	N	A	A	8	2	shapes	A	4	True	54	(-0.95913253818681277, 7.3318481979700678)	(-8.6160946316668223, 1.372405210664553)	(-3.8404199789530038, -4.8651079379158269)	(7.068590998938479, 4.5351240522534439)	1.0	z	0.893878
29	M	B	M	N					A	4	0	shapes	M	4	False	54	(-6.7657263067175712, -3.7326014571213451)	(2.0710815787506576, -1.1523430903501248)	(-3.0446179516928948, 8.0580376942495207)	(0.70662860910492498, 5.8933664083893884)	1.0	slash	0.789836
30	N	A	A	N					N	4	3	shapes	N	4	True	54	(6.040943060312193, 4.0389824937391747)	(-2.8865781798864285, -3.2790958321572781)	(1.3383173286134937, -7.9560868904679358)	(-6.8236919589142691, 3.1901474436136219)	1.0	z	0.625075
31	N	A	A	M	M	N	B	B	N	8	0	shapes	N	4	True	54	(6.9029266374680063, 2.519486224812244)	(-3.5193002581870365, 2.7717853908198009)	(-6.9754569142089746, 7.9636892010502258)	(-7.1332993429639497, -5.2426715955296537)	1.0	z	0.920571
32	N	A	B	N	B	A	M	M	N	8	3	shapes	N	4	True	54	(5.692686057284952, -7.8400551699982293)	(2.7318853611766869, 1.5526752712991829)	(-1.1275027872170176, -6.1596280797089644)	(3.6516589887425752, -3.693194944778881)	1.0	slash	2.43827
1	M	B	N	B					A	4	1	shapes	B	5	False	54	(-6.7628668346516907, 5.1099859061027448)	(3.951804045674006, 8.6176780935805937)	(-7.1713822182076665, -2.7083509869388838)	(4.1158573879753853, -7.9063419218885471)	1.0	z	0.660005
2	N	B	M	B					B	4	1	shapes	B	5	True	54	(-6.4341241895476093, -7.0746788881453284)	(1.4267751846140548, 7.4136922795863072)	(-0.2819743481360959, 3.618597059756409)	(5.8969917639285079, -2.5275049170478869)	1.0	z	0.657748
3	M	A	B	A	N	N	M	B	M	8	6	shapes	M	5	True	54	(1.5627395632404468, 8.3785852050173482)	(7.7390191614338555, -1.9573558943899023)	(4.086105772589498, 4.4851922969221221)	(8.524585558701709, -7.7258045241211262)	1.0	slash	0.667434
4	N	B	M	M	N	B	A	A	A	8	0	shapes	N	5	False	54	(-6.6954854953683878, 8.6582583300949949)	(-1.8222666646299075, 5.9021102525543547)	(-5.7018707809010589, -2.3927433326382737)	(4.5178499087208994, 4.8418770968061402)	1.0	slash	0.842975
5	N	A	N	A	B	B	M	M	B	8	6	shapes	M	5	False	54	(-4.5668985014336547, 5.8745845691094409)	(6.1342395794339861, 6.1464462095063208)	(7.2648221192493345, 0.22948934800480458)	(-7.4755671057290014, -1.0195573120206385)	1.0	slash	0.76657
6	N	A	M	M					M	4	2	shapes	M	5	True	54	(5.3601352972273091, -3.919174728788958)	(-7.4602297620070264, 0.43309203932166973)	(-5.1476201159485075, -8.5715546663295683)	(2.4141674093711565, 0.17785557532624985)	1.0	z	0.559814
7	M	A	A	B					B	4	0	shapes	M	5	False	54	(3.3269706868756277, 5.7692373049941619)	(-7.4644809592657015, 8.2228630726527037)	(-6.362288664094633, -8.7065549721989921)	(0.60710732620152719, -6.7479789844193743)	1.0	slash	0.609972
8	M	A	M	A					N	4	1	shapes	A	5	False	54	(6.6099124018327711, -1.7477429314712234)	(-1.5107360156120908, -0.66570710347712847)	(3.4665371082371603, 7.7907957098160878)	(-7.446435773095855, 5.7332410485715393)	1.0	slash	0.649764
9	M	B	A	N	A	B	M	N	N	8	3	shapes	N	5	True	54	(-5.986722097218534, 3.4690170753484608)	(0.37241445456217193, -7.6935105018036349)	(4.4069804440503422, 7.747950660687092)	(5.9191156819127304, -2.722646241078797)	1.0	z	0.621386
10	M	A	B	N	B	M	N	A	A	8	7	shapes	A	5	True	54	(6.2197654428082014, 7.3551140861329607)	(-6.1448668497844565, -0.1445750627226019)	(-8.3080553417936613, -8.3339909525177305)	(4.5651480859812068, -0.44318891643471225)	1.0	z	0.964829
11	M	A	N	M	N	A	B	B	M	8	5	shapes	A	5	False	54	(-5.0522978854146343, 5.5570569111081678)	(5.4499421559812244, -0.926422597205244)	(-5.9615601156673623, -2.5962180279391269)	(1.3283222237956256, -3.82961319834211)	1.0	slash	0.768603
12	M	A	B	N	N	A	M	B	A	8	4	shapes	N	5	False	54	(5.4229601306651798, -1.4705668368169533)	(-4.8515266596918938, 1.3859087003811172)	(-1.3511350757540965, -6.5508287441367372)	(-5.360677787663727, -4.0485641517862101)	1.0	slash	0.860309
13	N	A	N	M					M	4	1	shapes	A	5	False	54	(0.088668534253429243, 2.1528891571958546)	(-8.22642618467113, 5.7281050367260633)	(-5.168390333969981, -8.7474773902707579)	(0.44051359321548489, -6.9941214326396492)	1.0	slash	0.609865
14	N	B	A	B	M	A	M	N	M	8	3	shapes	B	5	False	54	(0.89872991049867501, -8.3923605174690632)	(-5.0253535772382651, -7.7392448721532343)	(7.8085934571803257, -8.4036173459318988)	(6.0692236404530995, 4.6924995101462592)	1.0	slash	1.10945
15	M	A	A	B	B	M	N	N	B	8	4	shapes	B	5	True	54	(7.3763490626318138, 0.52293068316366131)	(-1.9050370163457497, 0.98641339634973413)	(-7.9489579354810731, 5.0312595702782676)	(2.0289145987053647, -7.1678764319000576)	1.0	z	0.829226
16	M	A	A	M	B	B	N	N	A	8	5	shapes	B	5	False	54	(5.6926520079843872, 2.561542907563636)	(-7.8574936663307628, 6.5570792898741619)	(-8.084026903372072, -2.5822769911928054)	(-2.4065474716082349, 1.6445140686134465)	1.0	z	0.900631
17	N	B	B	M					M	4	0	shapes	N	5	False	54	(-7.2112120707765346, -2.9109599563881803)	(3.4603935736693696, 5.9426413287380235)	(6.8954514713354413, -3.6156582707663558)	(-7.3344159089563981, 7.1781812204061204)	1.0	slash	1.01058
18	N	A	M	B	B	M	N	A	N	8	6	shapes	N	5	True	54	(-1.9780410987075667, 6.9708620056271968)	(-5.5870251894091485, -6.506883305399505)	(3.168047372092655, 7.0560528445378345)	(-0.26763172984454542, -7.5207176521804815)	1.0	slash	0.998148
19	N	A	A	B					A	4	2	shapes	A	5	True	54	(1.9013307870138565, -8.6838094351936697)	(-8.2385627864449873, -6.4567982723800679)	(7.5560510180038349, 5.7316105911940358)	(-5.6026463296631608, 4.294957731688493)	1.0	z	0.704097
20	N	B	M	N					M	4	0	shapes	N	5	False	54	(-7.4553243346116025, -2.357187942721473)	(3.7282667970366123, -3.2547908648672514)	(0.034162000337655485, 7.4383539102935892)	(-4.6260785357781735, 2.0223813636237136)	1.0	slash	0.7254
21	N	A	B	M					A	4	1	shapes	A	5	True	54	(3.2481645804480195, 8.4692367986795425)	(-1.3184500012277525, 6.102159931839374)	(-2.784938472090932, -1.2759737150385302)	(7.2292510568964801, -7.5934284565593355)	1.0	z	0.855084
22	M	A	M	N					N	4	3	shapes	N	5	True	54	(2.6425143477913089, 4.6884716057345663)	(-8.2864225290637652, -8.5949463924958547)	(-6.2146527107327119, 5.6163426679056911)	(8.3468269723933162, -0.76962966978463587)	1.0	z	1.15871
23	N	A	A	M	B	M	B	N	N	8	6	shapes	B	5	False	54	(1.5591571351272808, -8.605089019671059)	(-7.7915818258180645, 1.5191074562473563)	(7.6379261893895105, -0.51141633254748697)	(-6.9086830860582378, -4.6296715457380291)	1.0	slash	1.08438
24	M	B	A	A					B	4	1	shapes	B	5	True	54	(-4.8367596017910994, -2.7668257888770453)	(8.1726073458589532, 6.1126577789057688)	(8.4248653156823998, -4.7446545256179631)	(-2.4219774935615659, 5.1437053363836363)	1.0	z	0.581968
25	N	B	B	M	M	A	A	N	A	8	6	shapes	A	5	True	54	(-7.0461258218001479, 4.6865176468704242)	(-5.3626799081737371, -4.662274722335054)	(-0.50046934261912135, -3.9107532763652371)	(3.3921236233478851, 7.254362401190793)	1.0	z	0.813838
26	N	B	B	N					N	4	2	shapes	B	5	False	54	(1.2046381128900077, -6.9618785889078101)	(-4.3388521804680069, -3.9115554538912507)	(5.4488903843979948, 1.3552621640612497)	(-5.7110793304498602, 8.2729249407737733)	1.0	slash	0.629418
27	N	B	N	A					N	4	2	shapes	N	5	True	54	(2.9961545218877834, -0.24352816237896135)	(-0.10746736270255397, 7.5945724775343422)	(-6.6519940739004566, -5.3377797754647922)	(3.793849843977485, 4.0566433592279925)	1.0	z	0.801221
28	M	A	B	A	N	N	B	M	N	8	4	shapes	N	5	True	54	(-8.6378543232189227, -3.2900624723102689)	(6.2189290126083758, -7.2274636344251491)	(6.2863960286973537, -1.7491565277857841)	(2.6296708818080763, 7.3954963869121073)	1.0	z	0.612648
29	M	B	M	N					N	4	1	shapes	B	5	False	54	(-0.26524892601941019, -4.1370268665756003)	(4.3918743475836219, -8.1318340999685859)	(3.6351084430883276, 3.2288414044691311)	(-8.3639195552567802, 2.0069370505322404)	1.0	slash	0.70814
30	N	A	B	M					A	4	1	shapes	A	5	True	54	(4.4813494368112288, 1.1189904832721229)	(6.4541579505065343, -5.4255952428130181)	(-0.4503924565983457, -1.1111851111682203)	(-4.1165710722760531, 3.8646189550668577)	1.0	slash	2.25596
31	N	A	N	B	B	A	M	M	M	8	2	shapes	N	5	False	54	(-3.3802867976654944, -5.8143901970312406)	(1.8274272400679337, 1.2788643467906393)	(-4.2417325493266231, 1.8448421314779253)	(5.611242871444114, -3.4938183948311936)	1.0	slash	0.745163
32	N	B	B	A	A	N	M	M	N	8	0	shapes	N	5	True	54	(-7.4478996313995278, 5.0770346568330549)	(3.7963447419392367, -6.9637289872680954)	(-3.4151885633218804, -6.4700986762227028)	(5.2145607295512555, 2.4093408889784111)	1.0	z	0.705223
1	M	A	A	B					A	4	1	shapes	A	6	True	54	(-5.5627203899393995, -5.1625622236257414)	(0.74229141444579305, -4.8859614187087406)	(-7.9054587390392488, 1.6185748410363274)	(3.6293923482245649, 4.3308413737852796)	1.0	z	0.618762
2	M	B	N	B					M	4	2	shapes	N	6	False	54	(-7.1528137262394713, -0.22105884293858757)	(0.50506879762107815, -4.1708635483696552)	(0.85655257568442522, 0.43416259811992575)	(-3.2177442140669097, 7.7845899024453971)	1.0	slash	0.816505
3	M	B	M	A	N	N	A	B	B	8	7	shapes	B	6	True	54	(0.16086702407010556, 0.27410379633037607)	(-5.1084054191443453, -7.8863564672711171)	(2.6789787680711754, -6.2423486896001075)	(6.1905491475167889, -3.5083890901835213)	1.0	z	0.858308
4	M	B	B	N					B	4	1	shapes	B	6	True	54	(-4.8994226967103147, 8.697893782377335)	(0.30674856346845303, -5.6864453860685815)	(-7.6803519843781292, -5.8239811264740426)	(3.2028879496482396, 6.0522539321698918)	1.0	slash	0.873906
5	N	A	N	B	B	M	M	A	M	8	5	shapes	M	6	True	54	(2.2382544136220996, 8.112572304264198)	(-7.1645914621595983, -2.2026949189851051)	(-5.7494081073476142, -7.3387195193308967)	(2.9381539053559393, -1.0970701362449811)	1.0	z	0.663542
6	M	B	B	M					A	4	2	shapes	B	6	False	54	(2.1405892270930504, 0.54880311860106268)	(7.7653667899085406, -0.65156424841903871)	(-3.4713558337052035, -6.7341863732410285)	(-0.8205823873789706, 7.2764836321518658)	1.0	z	0.813183
7	M	A	A	N	N	M	B	B	A	8	1	shapes	A	6	True	54	(1.2174300495050172, -1.7625217493102863)	(7.5917952051671982, -2.881298933873599)	(5.0678826226407789, 7.2214316932287606)	(0.222549389456006, 6.9246532784419799)	1.0	z	0.942847
8	M	B	A	A					B	4	2	shapes	A	6	False	54	(5.1243073564742847, 5.9400021602547337)	(-1.9777780979552722, 5.3492184150726185)	(-2.1224753703580532, -4.8261882844606774)	(3.1169636128961695, -8.3108256202554447)	1.0	z	1.04452
9	N	A	B	A	B	M	M	N	N	8	6	shapes	M	6	False	54	(4.7386191745224249, -5.6293235206269907)	(3.1069393795517115, 1.0724818609961737)	(0.24981609415878481, 5.7058480255537596)	(-2.4345423764466148, -4.8127963742433675)	1.0	slash	0.855585
10	N	B	M	B	M	A	A	N	N	8	5	shapes	A	6	False	54	(3.6290162803841817, -0.96165069739491926)	(-7.786875142716708, -3.7650039362831311)	(0.40458884893089397, -4.6753634552181458)	(-7.7716136394718918, 6.5997469647597953)	1.0	slash	0.529645
11	N	A	N	A	B	B	M	M	B	8	5	shapes	B	6	True	54	(-1.1368599481136572, 8.2469346317014711)	(-7.2400396050912859, -8.2532965588427096)	(-3.0211744539847363, 4.4186883667802235)	(3.2169977667107776, -3.9963345644433446)	1.0	z	0.693472
12	M	A	B	M	A	N	N	B	B	8	6	shapes	N	6	False	54	(-0.55376291299498348, 2.6721360120085205)	(-2.2776245540480451, -1.4045835618278399)	(7.2684420078457315, 7.321391822694892)	(-3.0075449330214852, 8.3626908979306975)	1.0	slash	1.119
13	M	B	A	A					M	4	0	shapes	M	6	True	54	(-7.3705937508885633, -2.4695623355033209)	(3.239744659512974, -7.4608407279937365)	(7.4768485800469549, 5.1072151751391441)	(-7.0817945997932643, 2.9179801754391832)	1.0	z	0.712592
14	M	B	B	M					A	4	1	shapes	B	6	False	54	(-6.5218280325855567, -1.0511289956221175)	(8.500319382398029, 2.9913995576750256)	(1.4321228028374957, -4.1345572325444158)	(-3.0573311644641494, 6.6393424135988877)	1.0	slash	0.884427
15	M	B	M	N					M	4	1	shapes	B	6	False	54	(1.3496897417021554, 1.045707005592055)	(0.64308855461624148, -3.8208718013917782)	(-8.3369550028235935, 4.1131009394010949)	(-4.751680778745567, -1.3509498754103877)	1.0	z	0.806041
16	N	B	A	B	A	M	M	N	N	8	0	shapes	N	6	True	54	(-2.9688756640014375, -7.9002311088799022)	(-3.1683337967692289, 6.4828783440530575)	(-4.8172322593978834, -4.0989538730064492)	(6.0392326262385776, -7.0740464876424287)	1.0	z	0.673521
17	M	A	M	A					B	4	1	shapes	A	6	False	54	(-5.3485988975725869, 2.93868181289589)	(-6.8964539978885782, -1.5254722958391227)	(1.3769740669021182, 6.4585247921732361)	(6.1347530404703008, -6.6020732225805316)	1.0	slash	0.661403
18	M	B	B	A	A	M	N	N	A	8	6	shapes	N	6	False	54	(2.0875304778340684, 3.2381844420886345)	(3.4687587670954994, 7.5662416231085103)	(-2.5793536486122042, -2.2553483012254354)	(-7.4439739957800297, -0.45845858210592993)	1.0	slash	0.836903
19	M	B	N	A					M	4	0	shapes	M	6	True	54	(-7.3960578295895596, -4.4147606443245344)	(6.4208208859663181, -7.1598116689683291)	(8.4179897900884733, 6.2420792107229879)	(-5.0019937368181493, 4.9226938732488925)	1.0	slash	1.6247
20	M	B	N	M	N	A	A	B	M	8	5	shapes	A	6	False	54	(-6.713237928351333, 1.3970273413946881)	(4.3272556383645284, 7.2125710072839535)	(-5.7472119760939897, -7.4382417775738823)	(1.2073999031235747, -2.1490668468136622)	1.0	slash	0.998089
21	N	B	N	B	M	A	A	M	N	8	7	shapes	M	6	False	54	(4.9690982385672555, -2.9623281353558788)	(-0.083741453534170063, 5.2005279300027603)	(-1.9849922316863413, -2.6696778719778633)	(-6.2266095638075765, 0.41463404356550626)	1.0	slash	0.532429
22	N	B	M	B					B	4	1	shapes	B	6	True	54	(3.1918028189646428, 6.93202377531229)	(1.703278932344622, -1.5093916721177232)	(-8.3684571535053696, -3.504426109942874)	(-1.3945541133276347, 3.3978608479088876)	1.0	z	1.37955
23	N	B	B	A					B	4	0	shapes	N	6	False	54	(-3.7322655432750071, -4.0483011710758214)	(-5.2417686355738171, 6.5432695458055399)	(8.2387053679226057, -2.0092504021293092)	(6.6129015014631598, 2.6326065196733559)	1.0	slash	0.639242
24	N	B	B	A					M	4	0	shapes	N	6	False	54	(-1.607589953078528, -1.7064021485237264)	(8.2506377734696841, -4.1695430134180711)	(-7.1421309601274316, 1.2948165431145)	(8.7450716599853564, 2.9446894791700391)	1.0	slash	0.518884
25	N	B	M	N					B	4	1	shapes	B	6	True	54	(-7.4867976260208264, 6.7064509568931623)	(7.3510564682200652, 0.084963487937317339)	(2.4021342210882057, -7.4042028019012465)	(-0.95693031904728088, -5.0295066447925665)	1.0	z	0.840385
26	N	B	B	N	M	A	A	M	M	8	6	shapes	A	6	False	54	(-5.354384020362204, 4.3943523703499441)	(4.2640123996850843, -8.0740448841161427)	(7.5714190544125302, 0.45807503475150035)	(-7.9649765105596648, -1.6936926190683845)	1.0	slash	1.75011
27	N	B	M	B					N	4	0	shapes	N	6	True	54	(-1.6293709167676793, -0.53360760901374427)	(6.4888174478888896, -6.0971370051198104)	(2.6138184571689127, 2.8280979772188903)	(-5.3697073254638656, 2.9577308962009567)	1.0	z	0.569709
28	M	A	A	N	N	M	B	B	N	8	3	shapes	N	6	True	54	(-2.238138391866543, -7.4803135994083245)	(2.0556182254303224, 7.8782145733944091)	(2.4339318132835803, 1.9742758992360532)	(-4.0491395043617153, 6.9262933977453489)	1.0	z	0.877393
29	M	B	A	M	B	A	N	N	N	8	7	shapes	N	6	True	54	(2.7461672619718751, 7.7359191641229614)	(2.1355555187865392, -4.2810845680071736)	(-4.5193830107060808, -2.0033051999108658)	(1.4521403778910056, 0.9677432151027201)	1.0	z	2.1549
30	M	B	M	B	N	A	N	A	A	8	7	shapes	A	6	True	54	(-0.14372158486714603, -8.5216823156524804)	(4.4547668436212877, -6.4946465342536852)	(7.9387790344036588, 2.495423747268303)	(-8.7091976950712731, -1.5885523917475366)	1.0	z	0.704622
31	N	A	M	N					M	4	2	shapes	M	6	True	54	(7.0776825663559322, 3.4187480122410125)	(-3.3705729037437688, 1.5288442966946754)	(4.0273852139818356, -8.0415865482768218)	(-8.345781186853003, -0.010541778830903681)	1.0	z	0.782366
32	N	A	N	A	B	M	B	M	A	8	0	shapes	N	6	False	54	(-5.969468266348068, -6.3049382043914957)	(2.9205318801352451, -7.6578833317043724)	(4.4907213771701624, 0.92418660182464762)	(5.6690698019380683, 6.6180986028604796)	1.0	slash	1.382
1	M	A	N	N	M	B	A	B	M	8	0	shapes	M	7	True	54	(5.95479228488521, 3.6848631929683417)	(1.0086544651556455, 1.1026414325104366)	(-7.2642918842245487, -4.4764938436041568)	(-3.2599404236889526, -5.5466112224913324)	1.0	z	1.60148
2	N	A	N	A	M	B	B	M	M	8	7	shapes	M	7	True	54	(-6.0228612021130497, -1.1788299287243174)	(8.2604514662086146, 4.2355514091581075)	(-7.0963112823988652, 7.1425859077034044)	(7.3355588720354383, -8.0892733955268188)	1.0	z	0.941225
3	N	B	B	M	M	N	A	A	N	8	6	shapes	A	7	False	54	(8.0170190003117305, -8.3043563299345156)	(1.2345346479736783, -1.4405416014199641)	(1.8582530210718176, 5.1270878078996009)	(-6.9499415691821396, -6.6441228992592309)	1.0	slash	0.628724
4	M	B	N	M	N	A	B	A	A	8	5	shapes	A	7	True	54	(-8.455740869815223, 4.7897971812389919)	(7.1667687436371885, 0.69193266067966341)	(7.795890199469369, -6.9169659668634775)	(-6.0478950885061611, 8.6293678912597755)	1.0	z	0.65237
5	M	B	M	A					M	4	2	shapes	M	7	True	54	(-7.0096466288240791, 4.7856674604068381)	(-6.1416909676703195, -6.6652646679284455)	(6.1427889319546765, 7.1017986700482005)	(1.8499554276169885, -6.6058157663727304)	1.0	z	0.387578
6	N	B	A	A	N	M	M	B	A	8	5	shapes	M	7	False	54	(-8.6297017034473065, -2.5807298598631867)	(2.7961136244641001, -3.849053658456854)	(-0.51510706141539231, 8.6958825650798701)	(6.2030084467149731, 1.7351380468620619)	1.0	z	0.611689
7	M	A	N	A	B	M	N	B	A	8	3	shapes	A	7	True	54	(0.08041394746289221, 3.5186577216690509)	(-7.6907382500841344, 5.8079339227110847)	(5.883313599378317, 7.1119044625069083)	(8.0952203214201859, -7.251538513488347)	1.0	z	0.661417
8	N	B	B	N	M	M	A	A	B	8	4	shapes	M	7	False	54	(-7.3907744021788524, -5.1604002663617266)	(3.8716608292500538, 3.6389388111763346)	(-1.1246974839160755, 8.4621593150058168)	(-5.4786723766983361, 2.1218277305688069)	1.0	slash	0.620903
9	N	A	B	B					A	4	1	shapes	A	7	True	54	(1.6924474168387853, 2.1778350434105764)	(8.5223692615751325, -7.1763067993988123)	(-6.2817102364737689, 8.260500204290441)	(-7.3407014219875482, -4.3685383731352196)	1.0	z	0.554815
10	M	A	B	B	M	N	A	N	N	8	5	shapes	N	7	True	54	(8.5445600239727675, 5.8576589065356011)	(-1.8134353226030342, -1.5823805131636783)	(5.8587002536436881, -6.3652835669288184)	(-1.1445253963718862, -7.8119042547310737)	1.0	z	0.568585
11	M	B	N	M	B	A	N	A	N	8	6	shapes	N	7	True	54	(-6.7709111840859633, 5.6385652410060008)	(2.3445627785621763, 4.6611047092591686)	(-6.1225465799033207, -7.7232435627657479)	(-1.4588884415361658, -6.3340549976025704)	1.0	z	0.524169
12	N	B	N	B	A	M	A	M	N	8	2	shapes	N	7	True	54	(6.7880325003082813, -0.71262014926663753)	(-2.8327074181441985, -1.0668423877434972)	(-3.432175421548723, -8.0895245757180163)	(2.9530918301439524, -2.1426674806797141)	1.0	z	0.591694
13	N	A	B	A					A	4	2	shapes	B	7	False	54	(-5.0373806379781794, 3.7672680058400889)	(0.90824619393973194, 0.6235762245444505)	(-6.0173066847320733, -6.972453565936835)	(0.17100062471956257, -4.1628946424901292)	1.0	slash	0.65937
14	N	A	M	N	B	M	B	A	M	8	4	shapes	B	7	False	54	(8.1008965838085558, -3.2691556116684772)	(2.2647901948812947, 2.4402440769963114)	(-2.3623680219749748, -7.6136443452970424)	(-3.6466181832092071, 4.4294613862615311)	1.0	slash	0.981176
15	M	B	A	A					A	4	0	shapes	M	7	False	54	(-1.1146698573898499, -7.190010568924353)	(4.2260911301403681, -3.5842187456153329)	(2.5146845681684198, 3.5650808322815593)	(-0.17749567535171451, 7.6218843795927036)	1.0	slash	0.770076
16	N	B	N	M					M	4	1	shapes	B	7	False	54	(2.1993945860783963, -4.2388185962168965)	(-1.1583264820702608, 3.4152920921392607)	(-1.5978796107512636, -6.9908654432119395)	(6.6962843626377513, 6.8414424728541618)	1.0	slash	0.666536
17	N	B	B	A					B	4	2	shapes	B	7	True	54	(-8.0860578665091918, -4.1672762695143888)	(8.0170806591944341, -1.1436290047259448)	(6.0620224788886716, 7.2563984674050879)	(-3.8639358212451249, 2.3086753710716668)	1.0	slash	0.912008
18	N	B	A	A	M	B	N	M	B	8	7	shapes	M	7	False	54	(6.48483059561263, 4.7505342225496801)	(-7.1683314845236952, -1.9513849001029904)	(1.5758787600776003, 1.7972760096380593)	(-3.6066035495288009, 0.6625333218211793)	1.0	slash	0.803715
19	M	A	N	M					B	4	1	shapes	A	7	False	54	(6.9956215917680584, 0.87980208462489529)	(-8.3284348390573069, -8.133281955354315)	(0.79687375606104993, -8.0456096338096046)	(-7.8324121612635746, 4.2020746647110947)	1.0	slash	2.76536
20	M	B	B	A					M	4	0	shapes	M	7	True	54	(-5.8662074837164226, 5.8251925581367363)	(8.2459677743296957, 1.2373483485891779)	(-1.6595015140393041, -0.005268519095100288)	(2.5422586295001857, -6.04002018733628)	1.0	z	0.406995
21	N	A	N	M					A	4	1	shapes	A	7	True	54	(0.63149748299707475, -0.10739316456796999)	(-1.0198467772928126, -6.7058308053680058)	(-6.2445954442370315, 4.2761226259330574)	(1.2307069846696752, 5.6847750738511795)	1.0	z	0.8966
22	M	A	A	B					A	4	2	shapes	A	7	True	54	(-1.5225820065092375, -5.5095058366168423)	(-7.9883499978204355, 5.5679142894736255)	(3.9348274238663894, 7.9883169798802136)	(5.5548554029222625, -3.1503601265401766)	1.0	z	0.560234
23	M	A	M	N					M	4	2	shapes	M	7	True	54	(-3.6257889104231298, -4.5684912696546016)	(-5.8743628166708355, 1.8839661437099071)	(3.4088201612089275, -0.56935399720798685)	(7.6870898266793439, 6.9903878607672318)	1.0	z	0.505902
24	M	A	A	N					N	4	1	shapes	A	7	False	54	(-3.4380048332537267, 6.3393928381797)	(6.7437829100836169, 6.1787506154385721)	(3.1854613713580839, -6.0872487157581467)	(-2.8631870780524, -8.2818382590499837)	1.0	slash	0.695616
25	M	B	A	A					N	4	0	shapes	M	7	False	54	(-6.6331137533451976, -8.2134384229798378)	(0.045061615621442286, -7.9379383260448657)	(-5.7254822628370663, 5.0562187006639103)	(8.6403426212419454, 0.036118699172545732)	1.0	slash	1.08538
26	N	A	B	A	N	M	B	M	M	8	3	shapes	A	7	False	54	(8.2116255327200918, -1.5398048618299631)	(-0.44764679932310969, -2.9623733284525446)	(-7.0207124341203846, -4.3229182194153388)	(3.4034387031474971, 5.3985751271495221)	1.0	slash	0.930791
27	N	A	B	B					A	4	0	shapes	N	7	False	54	(0.75145917493906111, 7.9810023879444678)	(0.85398798081778793, -6.8814698136363246)	(-6.3164912706405092, 5.27709093477492)	(-5.3252617046961754, -8.2057034230414949)	1.0	z	1.49838
28	N	A	A	N					M	4	3	shapes	N	7	False	54	(6.2649056384225101, -8.3212356433172925)	(-1.7593153377004187, -4.0107886263693926)	(-4.6434799191234397, 8.0937992565200254)	(7.3446123726548898, 1.0077599450422934)	1.0	slash	0.46414
29	M	A	A	M					M	4	3	shapes	M	7	True	54	(-5.1047528233269102, 3.1659687628713211)	(7.7125361820621876, -5.5986561611507399)	(-8.7000831170385968, -1.1350403253537191)	(5.1412597262574096, 2.0811360612404517)	1.0	z	0.453789
30	M	B	M	A	B	N	A	N	M	8	2	shapes	M	7	True	54	(3.7827954673482047, -2.6197287203717963)	(-7.4141935466340074, 1.935033444216165)	(2.5169683827042135, -8.5162313226911834)	(3.3800336207139736, 5.9020754793551138)	1.0	slash	0.685501
31	N	A	A	M	M	N	B	B	M	8	0	shapes	N	7	False	54	(-7.545873291333745, 3.3361716048557355)	(-7.1144438132189354, -7.5418514096513967)	(8.1933837119695028, -4.2133176649091419)	(6.5481353220594247, 6.0364781005348078)	1.0	slash	0.545162
32	M	B	M	N	N	B	A	A	B	8	3	shapes	N	7	False	54	(6.778812308504218, 0.090922369239269329)	(-2.5414900015614412, -0.46543839423027933)	(-3.2381150691786562, 6.6598394969225847)	(-3.4665534626668979, -8.2662819808763039)	1.0	slash	0.848814
1	M	A	N	B	N	A	M	B	N	8	3	shapes	B	8	False	54	(-0.87952243083365733, 6.6349165776852406)	(6.6784699017374276, -2.3032471815136715)	(6.0973935058615734, 7.8971603331681735)	(5.3929427398366947, -6.3028615843153277)	1.0	slash	1.92844
2	N	A	M	A					B	4	0	shapes	N	8	False	54	(-6.1980469526632254, 6.7066053626310254)	(5.8894523435638249, -2.5724812991389987)	(5.3887217583196581, 1.598453387936738)	(-0.033205701209141125, -1.6638548464042202)	1.0	slash	0.568032
3	M	A	N	A	N	B	B	M	M	8	0	shapes	M	8	True	54	(-0.036349279765246933, -5.5562139597478959)	(8.0979233305824962, 5.0461275697712651)	(3.987745687088589, 5.6292695328605085)	(-6.5913720609395252, -4.3040518927210663)	1.0	z	0.723688
4	N	B	M	M	B	A	N	A	M	8	1	shapes	B	8	False	54	(1.7698547034884644, -8.3471999763131244)	(0.1739690770137674, -2.5055256508486394)	(-0.14263017715017767, 3.3859701114749523)	(-3.1832284970820108, -7.1994097706398428)	1.0	slash	0.983336
5	N	A	A	M	B	N	M	B	N	8	6	shapes	M	8	False	54	(5.9638981693005917, 1.5037593202899444)	(8.5845795875009578, 7.489193776273904)	(-2.9265037686068576, -7.8415822427242272)	(0.87713349777251004, -0.32649335484017605)	1.0	slash	0.759077
6	N	A	M	A	N	B	B	M	A	8	6	shapes	B	8	False	54	(0.69456744352484456, -5.6601148802607639)	(-3.9765163599684259, -2.8725696430061118)	(0.28460880405861566, 6.6148141065993364)	(-3.4269221983204883, -7.0109815788967946)	1.0	z	0.748765
7	N	B	A	M	B	A	M	N	M	8	3	shapes	M	8	True	54	(-1.8050520454070389, -5.6647196869120542)	(-2.8059755430949957, 7.9429929122249945)	(5.1287183298402006, 2.4082662617987989)	(-5.8613876978256574, -4.3747117923781289)	1.0	z	0.827762
8	N	B	M	N					A	4	0	shapes	N	8	False	54	(-1.0252217456511437, 4.7460904180044992)	(-5.3695319233438825, -0.33707762418788434)	(4.1665341411332637, -1.4826361552333198)	(8.6155339567663667, 5.9125749638153344)	1.0	slash	0.808005
9	M	B	A	B	N	A	N	M	A	8	5	shapes	A	8	True	54	(0.33177798584677376, -2.3207554052655324)	(-4.7007454475145769, -3.7927279953563806)	(-8.0227993401926909, 3.7970544205903494)	(-8.1405624092576083, -1.354480970274933)	1.0	z	0.699668
10	N	B	N	B					M	4	3	shapes	B	8	False	54	(3.1122857024356243, 1.2360180838687835)	(-4.6757534485202221, -3.2964543834541224)	(6.833631120981762, -3.323070044648138)	(-7.5806427132889267, 3.9127856991224377)	1.0	slash	0.785287
11	N	A	A	N					A	4	0	shapes	N	8	False	54	(-6.8936934492382207, -1.2380912381865796)	(1.8926034096222661, -5.6393733246268063)	(-8.3325715556852984, 8.547250245720889)	(2.0370538669679874, 1.066293862885118)	1.0	z	0.654789
12	M	B	B	N					N	4	3	shapes	N	8	True	54	(-7.9891965113931498, -3.4251101316113486)	(6.4179715377072935, 8.1168412434625203)	(6.4056555632966088, -1.2812890133544972)	(-3.7982133522996993, 2.179999998430171)	1.0	z	0.654661
13	M	A	M	N	N	A	B	B	M	8	5	shapes	A	8	False	54	(3.4907759997713494, 2.8662728529721981)	(8.2599007922863272, 0.66085160876444071)	(-1.1229704506234617, -5.1952020195243005)	(-0.86292458738705324, 2.725649014639572)	1.0	slash	1.97634
14	N	B	N	A					A	4	1	shapes	B	8	False	54	(-2.7382227784381525, 2.7661073072777373)	(-6.3245401718288203, -3.616810773843909)	(4.3819592358318147, 8.3317729844030168)	(5.9377478897264542, -7.7319877693639665)	1.0	slash	0.767806
15	N	A	M	M					M	4	2	shapes	M	8	True	54	(8.641883937448533, -0.33245204091509351)	(3.8896651623532463, 7.2743300048241473)	(-5.4630727550931821, -6.1868421928727724)	(-1.0665166428731538, 7.7142790877286309)	1.0	z	0.663402
16	N	B	M	N					A	4	1	shapes	B	8	False	54	(-6.305409947812489, 4.1172055583841836)	(0.85066269262619087, -6.989026090426103)	(7.2207829499153693, 5.2471041062238779)	(-8.1016179546080487, -7.599616436782977)	1.0	slash	0.685028
17	N	A	A	N					A	4	1	shapes	A	8	True	54	(0.0074234055104795971, -2.3737213685760734)	(-7.548649214139985, 2.9043431047838002)	(4.7906300217718165, 3.1026141595593852)	(-4.4830303050965963, -8.172990693495997)	1.0	slash	1.27873
18	N	A	A	M					A	4	1	shapes	A	8	True	54	(-5.6096770518235539, 4.1009838431469561)	(4.3801482230356275, 0.096371780953573349)	(5.5001410670812465, -5.8847855998169276)	(-4.070173860441292, -3.2584233066025261)	1.0	z	0.960474
19	N	A	A	B	N	B	M	M	N	8	1	shapes	A	8	False	54	(4.3309703726760169, 7.810942190861045)	(-3.7641429080199336, -1.5020530680170552)	(8.6754157235943268, 5.0695788314673962)	(2.977416389639675, -3.5679724388675664)	1.0	slash	0.686062
20	N	B	M	M					N	4	1	shapes	B	8	False	54	(3.8044290739802591, -4.7202900448448926)	(2.2178221559331757, 8.0637708766039395)	(-4.2136859824649529, -8.3318244621459954)	(-6.4272808649355744, 0.35067311349369845)	1.0	slash	0.567953
21	M	A	A	N					A	4	1	shapes	A	8	True	54	(6.6957001003931449, -3.27588980522642)	(-5.0984136569222063, 5.6352960791040374)	(-0.35002211167483743, -5.6169571840909551)	(0.63168306487272829, 2.6029751258298255)	1.0	z	0.615344
22	M	A	A	M	N	B	N	B	B	8	7	shapes	B	8	True	54	(4.1642740211663511, 6.2695869731283977)	(-0.19095472919845768, 3.6472118824194837)	(-2.3493867756685489, -5.770992978674343)	(6.6851186308435899, -6.7876480817827831)	1.0	z	0.705167
23	N	A	A	B	M	B	N	M	M	8	7	shapes	M	8	True	54	(-4.5907222554033522, 0.68750239620628761)	(8.3057558130646534, -3.6501551638190453)	(-0.28319210966832031, 1.334626633886522)	(3.7252332606788343, 0.53978315984381275)	1.0	z	0.54438
24	N	A	A	B					N	4	1	shapes	A	8	False	54	(4.9669163642681564, 7.5348518161240072)	(-6.3919427509663382, 1.9093897581676593)	(0.47490122698299508, -3.4373921144436856)	(-8.63241719830223, -7.6593947090295771)	1.0	slash	0.782344
25	N	A	B	M	A	B	N	M	N	8	0	shapes	N	8	True	54	(6.4155895877403619, -6.158311981075701)	(-0.0023564870186731923, 1.0163131440886239)	(0.9807120543227672, 7.2557612286226707)	(-0.88254987651867722, -4.7982613380990653)	1.0	z	0.590152
26	M	A	M	B					A	4	1	shapes	A	8	True	54	(4.5858820542762402, 8.4124897690929359)	(-2.4510693906332177, -3.4940540530878561)	(-7.2206653064152855, 3.5699660841854328)	(5.7290681410597273, -6.1406647448220539)	1.0	z	0.561712
27	N	B	N	B	M	A	M	A	B	8	1	shapes	B	8	True	54	(5.7773447220347514, -7.2261150478356839)	(-2.4884397335873283, -1.7159662781603062)	(4.1460865509516971, 4.8430830339679503)	(1.15949476523177, -3.7808599030171894)	1.0	z	0.813193
28	M	B	N	B					N	4	2	shapes	N	8	True	54	(-7.4236444287509009, 7.3410313088025241)	(0.16656481344954699, -6.1952838397587122)	(6.624700250676991, 6.9128608739532975)	(-8.0355396567310109, -6.9807795788393916)	1.0	z	0.477083
29	N	A	N	A	M	B	B	M	M	8	3	shapes	A	8	False	54	(-2.8879688040096285, 6.2999445201338027)	(-0.24334065539252059, -3.8129690573866029)	(8.5009884533661086, 5.527445000958263)	(-0.5104849798725386, -7.807485319329202)	1.0	slash	0.618718
30	N	A	N	M	B	B	M	A	N	8	5	shapes	B	8	False	54	(5.0266430929124262, -1.965265804735477)	(4.3976961647636958, 4.1273811544821939)	(-1.985537854662411, -5.4487406039993438)	(-2.6809147981312567, -1.00207775568746)	1.0	slash	0.484397
31	N	B	A	N	A	B	M	M	A	8	2	shapes	A	8	True	54	(7.0438369203516906, -6.5044249023899106)	(-2.7590977034659243, -4.7855180406838649)	(1.5932304190377931, -3.8778851653117368)	(7.7246920642159651, 6.3845033193200553)	1.0	z	0.691954
32	M	B	M	N					N	4	3	shapes	N	8	True	54	(4.3484889643939866, 0.48747127859143902)	(-5.3680552505971386, 4.7645798953732079)	(-2.6576168770993638, -4.8776990453940172)	(7.9018682581901487, -1.44362918330485)	1.0	z	0.577774
