TrialNumber	stim0	stim1	stim2	stim3	stim4	stim5	stim6	stim7	stim.probe	ttl.stims	corr.num	trial.type	stim.corr	block	match	Subject	stim.pos0	stim.pos1	stim.pos2	stim.pos3	ran	resp	RT
1	M	A	A	N					N	4	3	shapes	N	Practice	True	55	(0.32421600307229248, 4.1779556199858963)	(-7.8361253664570452, -8.1589305048838749)	(4.0413782674081276, -8.21182957440063)	(-0.0080777321525840051, 8.4028230893549782)	1.0	z	2.73477
2	N	A	B	M	M	A	B	N	M	8	3	shapes	M	Practice	True	55	(-8.6371297563384086, -3.6456619278982272)	(3.5095422122744608, -4.894402307056315)	(8.3767005797676717, -3.6182673328263215)	(-1.7065134947074849, 1.7292324076712706)	1.0	z	3.40352
3	M	B	A	B	A	M	N	N	N	8	6	shapes	N	Practice	True	55	(-0.5975632239783728, -5.9354566817544061)	(-6.447380955459268, 6.9094035821267035)	(-4.9103691451965421, -7.0204096024970513)	(4.3085185569203865, -1.9243023232108296)	1.0	z	3.10904
4	N	A	B	N					M	4	0	shapes	N	Practice	False	55	(-4.1451095705969792, -7.5935381418311056)	(-5.4375634708733074, 6.9741076675015226)	(2.9748467229833278, 2.651230570043964)	(7.2620036820455276, -5.7959577611420636)	1.0	slash	3.31241
5	M	A	N	A					N	4	2	shapes	N	Practice	True	55	(-3.3030604177629934, 7.3069260295023426)	(0.50665625899368116, -5.4945736436068398)	(-7.8448615730070204, -7.0724688168051255)	(5.29458467165421, 7.5038966581258784)	1.0	z	2.31582
6	N	B	M	B	N	M	A	A	N	8	3	shapes	B	Practice	False	55	(-0.014836098858379998, 5.1637218878549653)	(-5.2259691913880877, 6.2621715327213021)	(0.97307572177582635, -3.9347707540438392)	(7.6053666125368622, -5.3406245009371478)	1.0	slash	2.46336
7	N	A	A	B	N	B	M	M	B	8	1	shapes	A	Practice	False	55	(7.2309255865770687, -5.9799654491854461)	(-5.5796900217063961, 7.5324484017336744)	(-7.7037446976059041, -0.76729057880720219)	(-6.894773670022964, -6.2467982357396359)	1.0	z	6.61217
8	M	B	N	N					N	4	1	shapes	B	Practice	False	55	(4.307602515876761, 5.1120894007101789)	(-3.6114663662683508, 1.692862781661173)	(4.5352849221778939, -0.1515970797669528)	(-8.5001680770022983, -6.2014707811312162)	1.0	slash	2.41215
1	M	A	M	B	N	N	A	B	N	8	4	shapes	N	0	True	55	(-3.9615738357363037, 1.6360292336162718)	(7.3518457610422878, -7.5359475608761048)	(-5.6102246894496517, -6.1969497101713333)	(1.5858045713702129, -0.45462119361454256)	1.0	z	2.0843
2	N	A	M	M	A	B	B	N	M	8	6	shapes	B	0	False	55	(-4.6827841529482859, -1.1624861031725526)	(5.8599761371443186, -1.3272580416957167)	(-7.1625072798146769, 2.2312516244637628)	(5.1360588408591479, -7.8337344477458331)	1.0	slash	1.5908
3	N	A	A	N	M	M	B	B	A	8	1	shapes	A	0	True	55	(1.1400378489731455, 2.6870462157289623)	(4.3789091267276099, -3.9925021698290548)	(-0.9480511916708716, -4.7411330895534505)	(-5.4572044653918601, -7.6412533060041659)	1.0	z	1.43622
4	M	A	A	M					M	4	3	shapes	M	0	True	55	(-6.7119516459807089, 7.4540637422279019)	(3.9111625903123155, 3.794290643969525)	(-0.80167316298254931, -0.23984732695629063)	(6.0419982173442204, -3.7296963084326737)	1.0	z	1.9439
5	N	B	M	M	B	A	N	A	M	8	2	shapes	M	0	True	55	(-1.5461643124791058, 6.8669051682662676)	(5.6919490453638044, -8.4182296443735645)	(-6.8682524116043409, 4.1876730549402641)	(6.8945323998058949, 6.5297982170920843)	1.0	z	1.22962
6	N	A	N	M					N	4	1	shapes	A	0	False	55	(-3.2058836715599872, -0.16329286410496735)	(4.8214643524046235, 7.4052720717151992)	(-4.4181908690388836, 7.9122031071328927)	(2.6933415554215667, -8.1444730236469649)	1.0	slash	1.70502
7	N	A	N	M	A	B	B	M	B	8	6	shapes	B	0	True	55	(4.7250014171889543, -8.5095915243962885)	(0.37450504582423072, 0.93604780830942147)	(-6.9727788652695022, -7.1890767573705947)	(-8.6828094171299668, 7.7098959381856211)	1.0	z	0.878624
8	M	A	N	A	B	B	N	M	M	8	5	shapes	B	0	False	55	(-7.815018984170317, -5.7113665621475969)	(-3.706937739966909, -6.7112540183634151)	(5.6057869216045972, -1.0664099152526525)	(0.090240175301374848, 2.9345808360628016)	1.0	z	1.73016
9	N	A	N	B					A	4	2	shapes	N	0	False	55	(-7.1225076292811211, 4.1972420265594064)	(5.8565947904878009, 3.8177344244446818)	(-4.2246047519705687, -6.3889816434905669)	(5.9248941877692509, -2.5639134512057407)	1.0	z	0.927974
10	M	A	N	M					B	4	2	shapes	N	0	False	55	(4.4808705639178577, 3.969637507203144)	(-1.159266167817516, -5.4183077010806873)	(4.6845271461437328, -1.0851793144077764)	(-2.1179658190101218, 4.7773758606170507)	1.0	slash	1.20549
11	M	B	B	N	N	A	A	M	N	8	1	shapes	B	0	False	55	(-5.3571667493877184, 5.5028840183985253)	(0.60841624437049902, 6.9505749837814044)	(-5.8959164258585659, -2.3221000330844683)	(4.6462561168531664, 7.4598539715860852)	1.0	slash	1.75917
12	N	A	N	M					A	4	1	shapes	A	0	True	55	(-8.5115700043747697, -2.362680748174002)	(-2.2769179422583079, 0.98156476719243635)	(3.0031813055608634, 8.7352618107949205)	(1.5617458555204493, -0.92691469914386904)	1.0	slash	1.02273
13	N	B	N	A	M	A	B	M	A	8	2	shapes	N	0	False	55	(-4.0660489148329981, 0.68239155702531384)	(0.55504824816892295, 2.6297602545798213)	(5.1977952002684376, -3.6325219063405676)	(5.1896750845666624, -8.5246028681116179)	1.0	z	0.788328
14	N	B	A	B	M	N	A	M	B	8	1	shapes	B	0	True	55	(-0.016893014691451214, 2.2166861669482181)	(-6.3167025785117747, 6.0783724870488332)	(-1.7201590182721587, -2.6631193276722742)	(6.8294668613500846, 2.3781149713959344)	1.0	slash	0.898003
15	M	B	N	B					M	4	0	shapes	M	0	True	55	(2.2128986171711151, -3.4641326673005031)	(7.3128800683608652, 7.6924595560224134)	(-8.0623707473603954, 3.7899651673136905)	(-8.1349076839412167, -4.8990410092093253)	1.0	z	0.727644
16	M	A	B	M					M	4	1	shapes	A	0	False	55	(3.7225332270204365, -2.290017188901837)	(5.3957468246959479, 5.0968032738331033)	(-0.18716063301992669, 7.6368990078985952)	(-3.1433516158562957, -4.4108488599065332)	1.0	slash	0.773134
17	M	B	M	N					M	4	2	shapes	M	0	True	55	(-7.6784066147570202, -3.5316691351936971)	(-0.57317165710890983, 7.768161600781383)	(0.21557715466988547, -5.1619238747732101)	(8.1993754204408553, 0.86957138977860637)	1.0	z	0.517062
18	M	A	M	A	B	B	N	N	M	8	0	shapes	M	0	True	55	(-1.0824677342095317, -3.0019424351637154)	(-6.2992934580972912, -2.6926909481192833)	(-7.7445776493665299, 6.6015436064848281)	(2.822492363210479, -7.1818338611523007)	1.0	slash	0.984303
19	M	A	N	B	B	A	N	M	N	8	0	shapes	M	0	False	55	(-8.1163878131210865, 5.7015391455279136)	(4.7496632831354528, 2.4908609858530681)	(2.041608794078515, -4.1595134354821823)	(-3.0440395949217054, -7.1406421079033731)	1.0	slash	0.870415
20	N	A	B	N					N	4	3	shapes	N	0	True	55	(5.0283205767988548, -3.8293197139149813)	(-5.994842158268944, -7.2602728728176356)	(7.403160921632022, 8.6021896133799203)	(-5.9381139676804668, 6.7492997337943414)	1.0	slash	1.22583
21	M	A	B	N					B	4	0	shapes	M	0	False	55	(-5.1424347795273064, 8.1901116381487498)	(3.5288155395881518, -7.750363978641821)	(6.9098771833230099, 0.30554949486692884)	(-6.9081914706913121, -8.1329097872971126)	1.0	slash	0.71762
22	N	A	B	B	M	A	M	N	N	8	4	shapes	M	0	False	55	(2.4176135572787079, -1.6619024501949937)	(-6.9389031476022236, -2.4269934437635108)	(7.2609476346554302, -4.5655949583861117)	(-2.9182658743000269, -7.853142974518347)	1.0	slash	0.89723
23	N	A	A	M					A	4	2	shapes	A	0	True	55	(-2.6989733616189984, 3.379225190642396)	(4.2430335509463681, -6.3306421616007693)	(2.5240736120797003, 3.7012764414751)	(-0.058778698560356446, -7.9620416234806619)	1.0	slash	1.06487
24	M	B	N	A	N	M	A	B	A	8	0	shapes	M	0	False	55	(-5.6194144223640174, -4.250751029933566)	(6.3909818712815163, 5.2159517166891938)	(4.1323533560606798, 1.2605409722842928)	(-4.7652006585187685, 0.79273116614239569)	1.0	slash	0.992075
25	M	A	B	B					A	4	1	shapes	A	0	True	55	(6.437096556289756, 2.4655639887107448)	(2.1178046080037944, -3.1663817386217126)	(-6.0068597112743332, -3.9593654307234978)	(-1.5735354950043208, 3.364391702765209)	1.0	z	0.868168
26	M	A	B	B					N	4	2	shapes	B	0	False	55	(-3.3057328421784273, 7.678769728429927)	(4.7194415396772182, 3.6513658265502222)	(3.4975744615004789, -5.9492654105886356)	(-1.2227475274208182, -4.8424305877300764)	1.0	z	0.992011
27	N	A	N	B	A	B	M	M	B	8	1	shapes	A	0	False	55	(8.6542695892362573, 2.9190955912784489)	(-5.1582028851573494, 2.8306679285635283)	(-2.1772614757227151, -1.2460876728265511)	(4.3085712615343557, 7.7350422308340612)	1.0	z	1.35696
28	N	A	N	A					N	4	0	shapes	N	0	True	55	(-3.372219416002884, -3.7886277893904365)	(1.5947719332147585, -6.4658745881549216)	(4.8468148737750454, 7.6863370169368288)	(-3.1701081547516834, 6.4381992902420055)	1.0	z	0.745154
29	N	B	M	N	B	M	A	A	M	8	5	shapes	M	0	True	55	(6.9769263274772602, -1.7656599231465719)	(-7.8828710965832389, -8.263934426540926)	(3.3303595247738329, 0.25129301731018394)	(-8.3976420949906956, -3.061850683638121)	1.0	z	0.654824
30	M	B	N	A	A	B	M	N	B	8	1	shapes	B	0	True	55	(3.7933403692512186, -0.86440676273546746)	(-4.5939556332157805, 4.5578285301997123)	(-0.86062250766979531, 0.10807913465345109)	(-2.3885692414208037, -7.539311008862466)	1.0	z	0.869957
31	M	B	B	A					M	4	2	shapes	B	0	False	55	(-8.6162048294043494, -7.3371102957585412)	(-7.4946238097529259, 8.4709789208205031)	(1.7961507418086633, 7.5823565206092631)	(8.1642610312176593, -0.58883603438700227)	1.0	slash	0.906022
32	N	A	B	A					M	4	3	shapes	A	0	False	55	(-7.7660411769584012, 4.0258219740639234)	(7.4356011056064162, 4.7825455420234224)	(2.6455612878424546, -0.7939730941510037)	(-8.3999481861172907, -2.0548730711889931)	1.0	slash	1.07171
1	M	B	B	A					B	4	1	shapes	B	1	True	55	(-3.8266680759177243, 6.291074397643877)	(8.2417587898973963, -6.2395417461862834)	(-5.3745462063068201, -5.5262419429182419)	(3.4838593236274118, 5.36337621348037)	1.0	z	1.93529
2	M	A	N	B	M	A	N	B	B	8	0	shapes	M	1	False	55	(-4.0102918091543867, -2.9121553351120237)	(-2.2224969448804659, 8.2031990661922549)	(-6.0887985925625525, 6.3646446346123362)	(8.4635313954461537, -7.4675612685969481)	1.0	slash	1.04705
3	M	A	B	B					M	4	2	shapes	B	1	False	55	(7.6136982783537803, -2.7807361355027265)	(6.1190886635902455, 2.6031297234357815)	(-5.4276183808573748, -0.22015940316650351)	(-5.0977988773669187, 5.0757817460411587)	1.0	slash	0.7843
4	M	B	B	N					A	4	1	shapes	B	1	False	55	(-1.7500945817153939, 2.1403227083585712)	(-7.2921030133159048, -4.8621613796203107)	(5.848259369288991, 6.9291979940334318)	(7.3363797801533863, -8.4321868054628979)	1.0	z	0.942211
5	N	A	A	M					N	4	0	shapes	N	1	True	55	(-7.4808211534361515, -3.1055420754436636)	(2.4630029332550585, 2.5442372731598919)	(7.3581286797121308, -6.3512799958061326)	(-5.7555292921330601, 1.1309090780965256)	1.0	slash	0.859925
6	N	A	B	N	M	M	B	A	B	8	6	shapes	B	1	True	55	(8.4603057838059605, 3.091245164400986)	(4.9302613338350536, -3.1368653366360251)	(-8.1715984194620486, 5.7737365954922026)	(3.0452165697508295, 2.9864363557952647)	1.0	z	1.25861
7	N	B	N	B	A	M	M	A	B	8	1	shapes	B	1	True	55	(-5.27003517512507, 6.3280937673256048)	(8.1665002202952337, 0.48889827214406445)	(8.1816164326161847, -6.317037777970218)	(1.9860444125977175, 1.7596949533347424)	1.0	z	0.643213
8	N	A	A	N					M	4	3	shapes	N	1	False	55	(-5.5841173532640607, -3.5251782971537269)	(8.7347735635149135, -4.6798456566593911)	(3.6766626790789108, 5.6535218920997838)	(-5.0711160266838036, 5.9180176965860589)	1.0	slash	0.764762
9	M	B	A	B	N	A	N	M	A	8	0	shapes	M	1	False	55	(-7.2319628522361619, 1.5129248040634575)	(3.8149218501674405, -2.0437358006864574)	(3.5559093148097976, 5.3756824970102279)	(-1.9422395744021452, 7.3637614144104511)	1.0	z	1.23853
10	M	B	N	B	N	A	M	A	N	8	2	shapes	N	1	True	55	(0.14898078175636975, -3.8379187962954067)	(5.6738209845900851, 1.0028593072558198)	(-2.5504396433416154, -8.1636405892935304)	(-5.956392406141088, 3.0896359460521303)	1.0	z	1.91367
11	N	A	N	B	A	B	M	M	B	8	2	shapes	N	1	False	55	(-5.6885204784707355, -0.82909669999707614)	(-7.6175699164844834, 5.8564035219007824)	(-0.61983129347864363, -0.084820105396220313)	(4.5949648821668152, -7.2059842050141576)	1.0	slash	1.16566
12	M	B	B	N					M	4	0	shapes	M	1	True	55	(-2.4766732189056304, -4.5319193974673384)	(-8.5082176829005398, 0.52531061717587768)	(4.5317232831147365, 7.9339416186706586)	(4.0042162525473213, -5.4224763840792987)	1.0	z	1.10308
13	N	B	B	A	A	M	M	N	M	8	5	shapes	M	1	True	55	(-3.4761620731089149, 3.4066671378459059)	(7.8110171759577227, -3.8166815427658909)	(-6.8018438554540257, -3.9328957098505963)	(5.8629509064240608, -7.9138883681472718)	1.0	slash	0.732422
14	M	A	B	A	M	B	N	N	N	8	5	shapes	B	1	False	55	(7.1282330754563272, 2.1345923991666105)	(-3.4643031339168582, 1.241456478600746)	(1.1693506590944658, -5.4314326067997971)	(3.2434678496323723, 7.205115348087169)	1.0	slash	1.39647
15	N	B	A	B					B	4	3	shapes	B	1	True	55	(-8.3930546231094851, 5.0612108894119707)	(0.76691086334086833, -6.1944627812221356)	(7.9450819905372931, 5.5075783128676061)	(-5.8068511560271681, -2.0291231737820743)	1.0	z	1.67997
16	N	B	M	A					B	4	1	shapes	B	1	True	55	(-4.1549014737144194, -2.6571299712471488)	(6.2755285905742806, -7.5867205854639463)	(1.7717902179477196, 7.3589538476807235)	(-5.6328113759329836, 6.8370166888953356)	1.0	z	0.897678
17	M	A	N	B					A	4	3	shapes	B	1	False	55	(8.4950164021516521, 0.70682340935006316)	(-7.4252127868635691, 4.7541390880844201)	(-1.0310996334172344, -4.3861145791438325)	(3.84123276867121, -2.6250626544506703)	1.0	z	0.721308
18	N	A	N	M	A	B	M	B	N	8	2	shapes	N	1	True	55	(-8.211311028726664, -2.4193416478670287)	(-3.1161228902785467, 3.5586511683761053)	(-5.5652615965990302, -6.7150233392230447)	(1.0234698539033928, 2.6989256987493757)	1.0	slash	1.10872
19	M	B	A	M	A	N	B	N	B	8	2	shapes	A	1	False	55	(8.0144172529760986, -0.10054763803462841)	(0.76829926716774821, -6.7801136943139051)	(-0.23881908636587212, 3.4424985208774554)	(-4.1366527885955069, -2.1258352842375965)	1.0	slash	1.4426
20	M	B	B	N					A	4	2	shapes	B	1	False	55	(8.6414266908293094, 7.4391273611004536)	(-2.0607404665877969, -8.3703722153699118)	(3.1583266883055536, -6.1504676654874189)	(-4.9216278574776471, 7.9990357759997153)	1.0	z	1.43629
21	N	A	A	M					A	4	2	shapes	A	1	True	55	(4.1945129485758859, 6.889842719051579)	(-2.3371777912776954, 5.3917969337840379)	(3.7782524588583666, -7.973715533877141)	(-7.5780678143626332, -2.1479080367574381)	1.0	z	0.773871
22	N	A	A	B	N	B	M	M	A	8	5	shapes	B	1	False	55	(-3.9383601464310942, 7.4837870695744293)	(2.9465739754521341, -3.790851905154728)	(-0.8433738712673966, 0.90409253441809945)	(4.7141820066409448, 8.3781409952118864)	1.0	z	0.85512
23	N	A	M	M	N	B	B	A	N	8	4	shapes	N	1	True	55	(4.4449671783331635, 8.565785351097702)	(4.496751932262967, 2.5942158539190086)	(3.6905881115517563, -3.6273574423943087)	(-0.28939753208513963, 7.8581894993950776)	1.0	z	0.935259
24	M	A	N	A					B	4	1	shapes	A	1	False	55	(8.3759430767509038, -8.0702611883849293)	(-1.0288531350433479, -8.3089498185966342)	(-4.8279376851180507, 2.3348369117738894)	(2.9212191234803413, 6.8228516950184392)	1.0	slash	1.49486
25	M	A	M	N	N	B	A	B	N	8	3	shapes	N	1	True	55	(1.6718456981760266, -2.4541940995156235)	(-7.0499690302852098, -1.2726619559771759)	(7.5313196467730066, 2.1253813931292971)	(-0.34944540668552193, 1.1205381379711064)	1.0	z	0.718393
26	N	B	B	A	A	M	N	M	A	8	4	shapes	A	1	True	55	(7.1369873437550577, 3.9923507623534746)	(-7.4723021421670435, -8.4627545330040324)	(5.0856896181315694, -1.7549493767301891)	(7.0650882334958229, -8.2006091824013758)	1.0	z	1.43404
27	M	B	A	M	N	B	N	A	B	8	7	shapes	A	1	False	55	(-5.2953471138783996, -1.3091955336170518)	(-1.7416140262929281, -6.4443161066955934)	(6.8993345831154169, -7.8302063179410819)	(-3.1285876526514338, 4.1236478644629457)	1.0	z	0.989048
28	M	B	M	B					M	4	0	shapes	M	1	True	55	(3.4997819238951777, 4.8447536341875228)	(6.5521499295598691, -7.7675173359350289)	(-5.8839770745454025, 3.9864043097523112)	(-1.2425594319851436, -7.3161680098768578)	1.0	z	0.769316
29	M	B	M	B					N	4	2	shapes	M	1	False	55	(-1.5954861882355322, 7.8338304656623272)	(1.613502386736247, -3.3181661628548129)	(5.2200415109343208, 4.3914377450694211)	(-5.8686811432115498, -3.8133764926818019)	1.0	slash	2.16083
30	M	B	N	A	A	M	B	N	M	8	3	shapes	A	1	False	55	(-1.8022455500804524, 0.48337891683482681)	(3.0314215271031291, 6.5597974699407189)	(-6.7852480127349146, -8.3463945994604281)	(5.5870396842217627, -1.2962816749748196)	1.0	slash	0.867752
31	M	B	B	M					N	4	1	shapes	B	1	False	55	(3.7967786042502762, 7.4868020815990768)	(-3.6942966139676212, -3.3435364252595088)	(-5.1532989411298331, 3.7332684279941795)	(5.2306190301760722, -0.80528914596077605)	1.0	slash	1.16811
32	N	B	B	N					B	4	1	shapes	B	1	True	55	(7.7824893824334005, 6.3767533295363208)	(2.5335366626319491, -2.5308356472715436)	(-0.89595711354540519, 3.5287322943519897)	(-4.4829077522913909, -7.2666441377265762)	1.0	z	0.887733
1	M	A	A	N					B	4	1	shapes	A	2	False	55	(5.3154280660801945, 8.3309618181451057)	(-7.0102848414237711, 0.41075043634686637)	(-7.4941217790190784, -6.9682153134736584)	(1.254756876925228, -6.1311376128013331)	1.0	slash	1.16133
2	M	B	N	A	M	N	B	A	M	8	0	shapes	M	2	True	55	(-1.8788788381618717, 7.6636204799318541)	(-3.3424030451252822, -6.8483212375398779)	(-8.0584620058084884, 4.9462508044224034)	(3.7196940874952364, -1.2233059435055971)	1.0	z	1.02652
3	M	B	B	A					B	4	1	shapes	B	2	True	55	(6.5712968142986572, 6.9611457752366892)	(-5.7324302644688077, -3.4108109557853936)	(2.8930186629085171, -4.3955301384927541)	(-7.1738860060682619, 2.520524166881529)	1.0	z	0.974605
4	M	B	N	N					M	4	0	shapes	M	2	True	55	(-1.1031898520534869, -0.029370833707698552)	(-7.5344305033218344, 4.5575588423671132)	(1.527094663460117, 5.2045404780927598)	(7.4612676451542654, -1.8409741503784689)	1.0	z	1.12627
5	N	B	B	A					B	4	2	shapes	B	2	True	55	(-6.5591099905014261, 8.4616609643539995)	(7.1359562864347552, -1.2474194509162126)	(1.5816489867153862, 7.1505782137209266)	(-3.6668165126491052, -2.3740134400854078)	1.0	z	1.34204
6	N	A	M	N	A	B	M	B	M	8	5	shapes	B	2	False	55	(-7.669671003072601, 1.281271672453169)	(-6.5990192126898837, 6.3552104844489108)	(3.7480888616216745, -4.2638486657834456)	(4.7810908408082859, 0.44095602175444704)	1.0	slash	0.971663
7	M	B	N	B	N	A	M	A	N	8	4	shapes	N	2	True	55	(-1.6586508063131085, -6.6252821228118393)	(2.2816194972322705, -3.5711725463020816)	(-8.4855185120626402, 2.5748487584413251)	(6.0640642092050108, -1.8991266360922809)	1.0	z	1.16349
8	M	A	A	N	B	N	B	M	M	8	0	shapes	M	2	True	55	(-8.2679830412878967, -2.5716545098491386)	(7.9091924191805738, -7.3249244289827509)	(7.308940694594579, 6.1227978165938914)	(-5.34500672940427, -8.2221012029796317)	1.0	slash	1.10086
9	M	A	N	M	B	N	B	A	B	8	0	shapes	M	2	False	55	(-1.0093152046216458, 6.6386411842367021)	(-1.6297195403455342, -3.761557642870236)	(8.6899206468068222, -1.0916181629234813)	(0.77793341620494871, -8.433177694424316)	1.0	slash	0.844068
10	N	A	M	A	M	B	N	B	N	8	3	shapes	A	2	False	55	(-3.4075103201783303, 5.372533015836181)	(7.6490678914870891, -0.7992505748484362)	(-5.6330394566779951, -3.9629207697051818)	(8.4179871720474146, 4.1219761332570304)	1.0	slash	0.781586
11	N	A	B	A					B	4	2	shapes	B	2	True	55	(-0.54106799247561099, 2.1037368587554415)	(-7.857872800367744, -8.4511839167936742)	(7.0901252592192936, 4.430596611989472)	(3.0851814313772383, -1.5677715237073899)	1.0	slash	1.02782
12	M	A	M	B					N	4	3	shapes	B	2	False	55	(2.6239015656943625, -6.6521947373816959)	(-4.5070531636901041, -2.7113820220703868)	(6.3007992317729826, 8.1749442233501846)	(-1.0115457259151146, 3.1810040868803569)	1.0	slash	0.799388
13	M	A	M	N					M	4	1	shapes	A	2	False	55	(-4.5233609302128297, 6.5352974011646339)	(-5.7619556043004758, -2.0846943016232782)	(3.2657750618758392, -5.1889637224701053)	(2.8796578090454421, 1.0681892708767933)	1.0	z	1.95301
14	M	B	A	B					N	4	1	shapes	B	2	False	55	(8.378585400836144, -0.24817465166486485)	(2.2209678031281843, 0.058609921190720726)	(-7.5246499067688219, 3.9813007280544319)	(-2.0967334311634955, -6.5539722588953815)	1.0	slash	0.900645
15	M	A	A	M	B	B	N	N	N	8	2	shapes	A	2	False	55	(5.9804858895334849, -3.2403888111824486)	(0.70535896663420061, -5.8952328873690876)	(-6.0259662283375608, 1.7453940264615913)	(0.39410310200196008, 7.2658684414223949)	1.0	slash	1.31547
16	M	A	N	A	N	B	M	B	N	8	2	shapes	N	2	True	55	(-4.2357101863057913, 2.2794936792348164)	(-0.66668005082931359, -1.6241417715207618)	(-2.8121679137735685, -8.2022414359491069)	(1.2234379978535905, 2.1662891187114006)	1.0	z	0.967886
17	M	B	M	N					M	4	3	shapes	N	2	False	55	(5.6302699896822563, -2.5020806024922049)	(-3.3086833472522086, -6.5321356410625455)	(2.6043756792876014, 8.1480486763154012)	(-6.8722468139157389, 2.8464005047292371)	1.0	z	1.37556
18	N	B	M	M	N	B	A	A	N	8	3	shapes	M	2	False	55	(2.0523323425984703, 8.2284429354234199)	(-2.8136505665763947, -6.2135424844127805)	(3.8012900975055537, -6.5623367450387056)	(7.1479136311858689, 2.7590557855675737)	1.0	z	0.934738
19	N	A	B	A	N	M	M	B	M	8	2	shapes	B	2	False	55	(0.62872372674653043, 2.0900301809631507)	(-1.4701990197448556, -2.4072387316425559)	(4.2210065131539078, 4.868043415764955)	(7.870963320107105, -6.7730931375581438)	1.0	slash	0.894727
20	N	A	M	N	M	A	B	B	A	8	5	shapes	A	2	True	55	(-0.4031404484711949, 5.9284842239053042)	(-4.3196201401428533, -3.4986291065501556)	(-0.47691897788082116, 1.2329525544528703)	(4.8646245019985983, -3.6150678913111944)	1.0	slash	1.44633
21	M	A	A	B					A	4	2	shapes	A	2	True	55	(3.4326974829129711, 6.9075201241471476)	(-4.8480621426550474, 3.0264479178727601)	(-6.5142873107020591, -1.5967423595599133)	(2.0969736406785398, -0.81022894122482647)	1.0	z	0.928057
22	N	B	N	B	M	M	A	A	A	8	5	shapes	M	2	False	55	(-1.4597007749805311, 4.4814125196233512)	(2.4728863343340688, 7.584321714500792)	(8.3371187382453762, -2.0642205036539787)	(-7.4624058338567458, -8.0011767591935072)	1.0	z	0.921833
23	M	B	N	N					N	4	1	shapes	B	2	False	55	(-1.8763527498628498, -5.457794873036244)	(-1.2611854786005114, 0.97284962663600361)	(7.2663973141651717, -8.5736151505832368)	(2.5929900188492336, 4.4706632189207873)	1.0	slash	0.939325
24	N	A	M	N	A	B	M	B	B	8	2	shapes	M	2	False	55	(-4.546392379232703, 6.579463082428278)	(-6.0669916694569839, 1.0788825803534579)	(6.6458903952843702, 6.7023482660678049)	(2.4584684898281512, -7.0350902311925649)	1.0	slash	1.21839
25	N	A	M	M	N	A	B	B	N	8	4	shapes	N	2	True	55	(-0.27798545278138498, 7.2297126116514363)	(5.5766649218789137, 8.6243793370363164)	(4.0445373364979975, 4.3937486820897274)	(6.1129566369769499, -4.6901369551381773)	1.0	slash	1.27461
26	M	B	B	N	N	A	A	M	B	8	1	shapes	B	2	True	55	(8.0679805538014975, 0.38279013017868557)	(2.7539510085804455, -7.8889385998868509)	(3.6462636731816982, -3.3664303415147927)	(-8.0066639180667671, -8.2076190836840954)	1.0	z	0.846315
27	N	B	A	N					M	4	3	shapes	N	2	False	55	(-3.2956322030945122, -6.9296672219880708)	(3.8649018710488079, -4.860661890700924)	(0.73488828084273727, 5.2857129635210871)	(-2.8834283433535477, 2.561843048960565)	1.0	slash	1.11583
28	N	A	B	M					M	4	3	shapes	M	2	True	55	(1.1802180845633163, 2.9647073843021055)	(-2.141253088429047, -3.2767527588877678)	(-1.353160052773676, 7.7994315210512397)	(3.7132395311198021, -2.6880381310192742)	1.0	z	1.23955
29	N	A	M	A	M	B	B	N	B	8	5	shapes	B	2	True	55	(8.5579177473639874, -7.7933924067448546)	(5.0867975452453322, -0.8352336771014075)	(-3.6678297374173781, 6.518541607009233)	(1.8132465151526507, 6.7769384985736103)	1.0	z	1.58449
30	N	A	M	M					B	4	3	shapes	M	2	False	55	(-5.679160116395245, 4.3016385870539473)	(7.5864102311487187, -3.4176254679515115)	(8.6287687801614972, 7.390062414962113)	(-5.5925313143938418, -2.8295095801369055)	1.0	z	1.04667
31	M	A	B	A					M	4	0	shapes	M	2	True	55	(1.0055589469505612, 2.3759522720856712)	(3.1893715877759945, -5.657073657203906)	(-0.79907728024696212, -2.7453818863115957)	(-1.0324778822252361, 8.3972365135040867)	1.0	z	0.648298
32	N	B	B	A					B	4	1	shapes	B	2	True	55	(-4.9507888407840746, 4.1385152191281254)	(-3.6510741387847503, -8.6460174681457094)	(8.3808977463904775, 6.4895587267063366)	(7.1772439502237972, -2.4354568730995707)	1.0	z	1.22214
1	M	B	B	M	N	N	A	A	A	8	1	shapes	B	3	False	55	(6.9120826772936503, 4.5561449621607206)	(3.5873967982911452, -8.3999997210914579)	(-6.3943869741639405, -8.0802196189036639)	(-4.8483989736213138, -2.9833469713059255)	1.0	z	0.89722
2	M	A	M	N	N	A	B	B	M	8	4	shapes	N	3	False	55	(0.27542329956714617, 5.0886063153997121)	(1.9983867498285175, -1.2883560041477669)	(-7.4644965572770019, 3.2834233717477783)	(-3.5250498984401704, -8.6993255414754547)	1.0	z	1.23253
3	N	B	A	B	M	A	N	M	A	8	3	shapes	B	3	False	55	(-8.3684983136494822, -8.3839409368702267)	(7.3442827461586049, -5.025046932391092)	(-5.6242273510838219, 0.31624420329360348)	(-3.559796740571878, 4.7560895865311998)	1.0	z	0.822313
4	N	A	A	N					N	4	3	shapes	N	3	True	55	(-8.1442465666089614, -7.3466001628850837)	(-1.1391995192087014, 8.3725126851341649)	(2.1894814339947573, 3.6072753364295291)	(2.1331159927846972, -2.3714214253553889)	1.0	z	0.716577
5	M	A	B	A	N	M	B	N	A	8	3	shapes	A	3	True	55	(7.3615182946997599, 4.0256443277103848)	(-1.9572432164017046, -8.0274477547511705)	(5.5235920302122175, -5.4832985412390602)	(1.3310695006413926, -3.9211310997579325)	1.0	slash	0.825892
6	M	A	M	B					A	4	2	shapes	M	3	False	55	(8.1208424888564004, 1.5586023916734195)	(6.7346926868546326, -7.7740350630009836)	(-7.5805701503619094, 6.5642460617634679)	(-7.8328372018475356, -1.7441629118744117)	1.0	z	1.03783
7	M	B	B	M	N	N	A	A	M	8	0	shapes	M	3	True	55	(5.1165275247585189, 0.39602304263575938)	(0.97152282058239514, 0.77142367775958398)	(-4.2628895394038153, -3.2215102939491445)	(4.6103843814143666, -5.0907305518895569)	1.0	z	1.01757
8	M	B	A	A					M	4	2	shapes	A	3	False	55	(3.4874688352398735, -2.5810493876420439)	(-2.7604415795336292, -2.6875546010727112)	(4.177759351948426, 3.9103520965694631)	(-6.8422549249774063, 3.9560056174456619)	1.0	slash	1.07308
9	N	B	M	M	B	N	A	A	B	8	3	shapes	M	3	False	55	(-3.5314333532454425, -7.0900203695509214)	(-6.7472189891678482, -1.0842222344974415)	(5.3485303645459634, -5.6891275498089549)	(1.404590029162712, 1.9315394612805292)	1.0	slash	1.05274
10	N	B	B	M					B	4	0	shapes	N	3	False	55	(-6.6404415748052097, 0.68327344523618905)	(-3.5765537587457574, -8.2381847731732112)	(2.8646529208129259, -3.165583970012972)	(2.8874412378641257, 1.9079386293148399)	1.0	z	0.884399
11	N	B	M	A					N	4	1	shapes	B	3	False	55	(3.8487263068322353, -2.3052860813921221)	(-8.6860161159126701, 6.586312225898233)	(1.2602355683815514, 2.4593582597355947)	(-8.0686836842544025, -7.0963645078505291)	1.0	slash	0.797946
12	N	A	M	B					M	4	2	shapes	M	3	True	55	(-7.025191866179239, 6.7484469474344166)	(-5.0308275062044494, -0.13991188021792489)	(5.2288794949095312, -2.7402802889099167)	(2.5464074555810416, 1.4542568108022191)	1.0	z	0.903728
13	M	A	B	N					N	4	2	shapes	B	3	False	55	(2.9209059904268919, -7.063584578565508)	(1.1844729427324516, 5.9952918666049921)	(-3.9639342473540307, -0.19524130407322993)	(-5.8984799447857688, 7.882137455192094)	1.0	slash	0.877221
14	M	B	M	A					B	4	1	shapes	B	3	True	55	(-5.95727625492081, -0.12102508392806755)	(-6.0309860471634664, 4.7051444975212444)	(3.73894575421102, -2.0475537981588987)	(6.6264602603513119, 6.383064855660356)	1.0	z	1.40912
15	M	A	M	A					A	4	1	shapes	A	3	True	55	(4.4339633661334759, -4.3487971526841456)	(6.1308095641473912, 6.0347391683375964)	(-1.1905425168179162, 2.192167286351566)	(-6.0454310594633931, -6.2835432338472632)	1.0	z	0.76839
16	M	A	B	A	N	N	B	M	A	8	5	shapes	N	3	False	55	(-4.2719403972915044, 0.52793562633013025)	(3.3395492437304313, -3.8360818144645252)	(-2.7975588409129672, -3.2222838140783843)	(4.2408052892840526, 8.092037345444151)	1.0	slash	0.810249
17	M	B	M	A					B	4	1	shapes	B	3	True	55	(4.4071714197916201, -6.3452178953438745)	(-5.9850127097492241, 7.90629225687222)	(7.9582010917957859, 7.1029917927497763)	(-7.3311629278837298, -6.4152058838220398)	1.0	z	1.39375
18	N	A	M	M					M	4	1	shapes	A	3	False	55	(7.5735894770321224, -8.4264761188618973)	(0.29365966329653048, 4.5326317424110218)	(-1.6350018619582869, -1.0754046939792437)	(-5.4669031112438056, 1.6761051193632337)	1.0	slash	0.957544
19	N	B	M	B					M	4	2	shapes	M	3	True	55	(5.1942783875437932, 2.1938726043093357)	(2.9878033974708114, -7.1854231322778634)	(-1.7622084416856616, -0.094235995990542776)	(-7.1702328439723884, 6.8443789139228901)	1.0	z	1.01715
20	N	B	M	M	B	A	A	N	N	8	7	shapes	N	3	True	55	(0.85069534667866442, -1.1453583783498207)	(8.1603564785738456, -7.1264317431922137)	(6.0724968794895808, 1.2294379650768743)	(-8.2284576426110778, 4.9161383737559063)	1.0	slash	0.896316
21	N	A	A	B					B	4	1	shapes	A	3	False	55	(6.3219318791430457, 4.485066591288005)	(-6.5190604734984969, -4.4740683055816657)	(-1.3486770165182609, 6.2692890476053247)	(5.4090165422949497, -2.5966988080418494)	1.0	slash	0.974488
22	N	A	M	A					N	4	2	shapes	M	3	False	55	(-8.5570414057247639, -5.4405772756066071)	(2.3826811919714999, 8.3678290564706366)	(0.50350287607730948, -6.5889619778655444)	(-0.30237618726613391, 3.9288618232593979)	1.0	slash	1.37205
23	N	A	B	M	A	B	M	N	M	8	7	shapes	N	3	False	55	(-2.3255553834305491, -2.8694774781447263)	(-2.9593339963243501, 5.0907185631242342)	(6.1767121240541893, -3.9015111841291343)	(6.4222294194386969, 1.5373933884909228)	1.0	slash	0.763074
24	M	A	A	M	N	B	B	N	N	8	4	shapes	N	3	True	55	(-1.1762750282659447, -0.13147465187567953)	(-0.53367461135272976, 6.2031374711039202)	(-4.807709755068414, -7.4208628206126814)	(-6.0398538928696368, 3.4615627019734649)	1.0	slash	1.47942
25	N	B	A	A					N	4	0	shapes	N	3	True	55	(-0.98442438861655468, -2.4693972691046779)	(3.332870318903332, -6.8282772085896521)	(-1.4962468739211312, 5.1740275289563904)	(3.2588673137720612, 2.3835229339523512)	1.0	z	1.05718
26	N	B	B	A	A	N	M	M	M	8	1	shapes	B	3	False	55	(-3.224104733106401, -8.7377370982058657)	(0.22038703706208196, -5.3290667513545502)	(6.6931819307089135, 6.4227034556689677)	(-5.3167062030454995, 6.7991322671330376)	1.0	slash	1.22448
27	M	B	N	B	N	M	A	A	A	8	6	shapes	A	3	True	55	(1.021319149126807, 5.6515940454789746)	(8.4947848667581916, -8.286736002700442)	(-7.4913149508185883, -6.0752760809243398)	(-7.4666791798613268, 0.32181850742350271)	1.0	slash	1.50944
28	M	B	M	B					B	4	3	shapes	B	3	True	55	(8.5336153188046779, -4.8039746819444655)	(-0.75876776567553694, -4.0811048734619844)	(-3.5365587130924876, 8.2472156276272521)	(1.5348006157999414, 3.2175367915559061)	1.0	z	0.96179
29	N	B	M	N	A	A	M	B	A	8	4	shapes	A	3	True	55	(0.50295642853400402, 5.2470687998641719)	(-2.5324338762727816, 8.5595534263090762)	(-3.0161872196947836, -0.26115351707793621)	(-6.3053657996789534, -7.8114119648740967)	1.0	slash	1.25893
30	M	A	B	M	N	N	A	B	N	8	5	shapes	N	3	True	55	(4.9869409101121374, -3.03011695324673)	(0.77408249993311706, -6.1077533805695294)	(5.6513388141331031, 8.5374251194222452)	(-5.1267065130757743, 0.11504833808096926)	1.0	slash	1.37081
31	M	A	B	B	A	N	M	N	N	8	2	shapes	B	3	False	55	(2.8897498403765542, -6.2649668121410436)	(-6.5030002842112484, 7.0602268230190077)	(-7.152536863968816, -3.7515263988355141)	(4.2839645467584884, -1.9178554140977937)	1.0	slash	1.26002
32	N	A	A	B	N	B	M	M	N	8	0	shapes	N	3	True	55	(0.2874076273344528, 2.1314570182341264)	(7.0209740841419919, 5.4360801653246327)	(8.7231736256890997, -1.7276487130707343)	(-1.226453091773692, -5.4922204359106619)	1.0	z	0.915635
1	N	B	N	A	B	M	A	M	M	8	7	shapes	M	4	True	55	(-5.1241241321238897, -4.3673881288689076)	(-6.5420632604151479, 6.0709486294159536)	(7.4685039249382577, -6.3189847467649951)	(2.7234023527922471, -4.3649568858566949)	1.0	z	1.08743
2	M	A	A	M	N	N	B	B	M	8	0	shapes	M	4	True	55	(1.6689857154876009, 7.0633709238980344)	(-5.0255175244173138, 5.1219398962662659)	(7.9896959263080092, 3.5743176523560543)	(-0.47911875393784698, -0.0070188794456971237)	1.0	slash	1.30556
3	M	A	N	N	M	B	A	B	N	8	5	shapes	B	4	False	55	(4.901181086749764, -0.22676155285399702)	(8.3959297472641161, -4.0010762291289037)	(-4.6909569827238622, -0.28985359377246489)	(-0.72568164744544461, 2.6789159821405715)	1.0	slash	1.16666
4	M	A	N	M					M	4	0	shapes	M	4	True	55	(-5.8189946663249437, 5.1337269232741249)	(1.4405047287684827, 6.0086162709168001)	(4.7288885011488748, -0.86404545745416339)	(-2.8976073492883039, -6.3907429433098581)	1.0	slash	1.24672
5	M	A	N	N					B	4	2	shapes	N	4	False	55	(2.0873570750221653, -2.8750596709818392)	(-4.0413959108245043, 5.4336034036502827)	(8.464022578853001, 8.7213943513633225)	(-1.1515710761838864, -7.9117276505804179)	1.0	slash	1.16039
6	M	B	M	A					M	4	3	shapes	A	4	False	55	(-1.8550032877972269, 0.20916864757236198)	(7.7395654429794654, 8.6879202938795181)	(-8.0153303266803722, -5.4709785962843567)	(1.9862067144327913, -8.0065947677402569)	1.0	slash	1.16208
7	M	A	N	M	A	N	B	B	M	8	3	shapes	M	4	True	55	(-6.3068518738868251, 7.6903350797601213)	(-1.3543001356535438, 5.3405336093445257)	(5.7967889240027457, -6.0703751009808151)	(-0.93645840434400807, -3.4557171880288022)	1.0	slash	1.17254
8	N	A	B	M					N	4	3	shapes	M	4	False	55	(-5.7715044258672776, -3.7050025824492163)	(-0.9597297732068002, 0.51771262037463295)	(3.7341314624819155, -4.4380905412402534)	(5.0324772585436648, 4.0120638811404277)	1.0	slash	1.73118
9	N	B	M	B	M	N	A	A	A	8	1	shapes	B	4	False	55	(7.3114572821208696, -7.533744553707626)	(1.5029367330309533, -5.1522081599109875)	(-8.4535138570983168, 3.8596018212351044)	(-7.1345083031184533, -1.5960809914340857)	1.0	slash	1.53881
10	N	A	A	B	M	N	B	M	A	8	1	shapes	A	4	True	55	(-0.80580976220168754, -8.6762338223472337)	(5.3116736614570197, -7.42222235706517)	(-6.6627507927958298, -6.0695994188018378)	(-4.0508958267634831, 7.1835421622779378)	1.0	z	1.17098
11	N	B	B	M					M	4	1	shapes	B	4	False	55	(-2.9864456022731929, 5.1004520841960534)	(8.5470337462438764, -2.1125227102702144)	(5.1798023999088585, 6.8362801557584074)	(-1.261389741182585, -2.0038149517463335)	1.0	slash	1.16999
12	N	A	M	M					N	4	3	shapes	M	4	False	55	(-6.8806670240246408, -1.4194623404873816)	(6.4518539751731971, -3.0136210347316359)	(-0.048668468619501581, 7.1988177022040034)	(4.9598546459304345, 2.0938924658159195)	1.0	slash	3.84956
13	N	A	N	M					M	4	1	shapes	A	4	False	55	(4.2858702942184781, -5.1597591740753561)	(-2.3995959668321571, -3.8869663614141974)	(-6.6713896259742658, 3.1183034918850208)	(2.5034579691576209, 5.2643486736021448)	1.0	slash	1.297
14	N	A	B	B	A	N	M	M	M	8	4	shapes	A	4	False	55	(-2.5889757732648846, 7.9407096957389562)	(3.079185128025383, -7.4850822936298256)	(1.5900859341150877, -0.13435503597972698)	(2.6756604340538495, 8.7337640262485543)	1.0	slash	1.79283
15	M	A	B	B	M	N	N	A	M	8	6	shapes	N	4	False	55	(-0.15234604471243607, -5.2687320498158909)	(4.9690293202079605, 1.6783490920819801)	(-8.7091547796824749, 2.2157946424980821)	(-2.2004024023979047, -1.6080691696991583)	1.0	slash	1.81158
16	N	B	B	M					B	4	1	shapes	B	4	True	55	(8.5494988457887224, 1.3396793995648473)	(0.019924011576545553, -8.0858126803497772)	(-8.4802153305758274, -2.8476465649685787)	(-1.676922417253718, 2.9310631806713197)	1.0	z	1.06789
17	N	A	M	A	M	B	B	N	N	8	0	shapes	N	4	True	55	(-5.6610648754251738, 6.4246710924562329)	(-7.1559094534367382, 1.8357883826320176)	(4.3862416872959322, -5.3287803599951253)	(-4.791882969650155, -5.1747661559752505)	1.0	z	1.2515
18	N	A	M	B					M	4	2	shapes	M	4	True	55	(4.9379570123980034, -8.0485626432832067)	(-5.0701223959108646, 8.7077828296769759)	(-5.8377279030448586, -0.012029424227177898)	(6.3540758304915208, 6.7920254848102921)	1.0	z	1.35518
19	M	A	N	N	A	B	M	B	N	8	2	shapes	N	4	True	55	(-2.8076113547027584, 3.6782620706385387)	(1.3504889700910727, 0.61302055727728444)	(0.86461665956169043, 7.2077289456493077)	(-6.7830952378031029, 8.2203526306221839)	1.0	slash	2.5983
20	M	B	A	N	B	A	N	M	M	8	7	shapes	M	4	True	55	(5.3617606026236668, -1.2630532833529884)	(-0.038498556417543739, 8.4054345503995442)	(8.3547299067264262, 4.0313617375206707)	(-5.9868826334140151, 7.5477228973830286)	1.0	slash	1.67363
21	N	B	M	A					N	4	0	shapes	N	4	True	55	(-6.2665152908622268, -6.0531211957832474)	(5.4005374321875603, -4.5546941528204732)	(-0.86932193152780268, 6.9432802896681363)	(7.607907347806222, 2.9805292814247455)	1.0	z	1.24587
22	M	A	B	A					M	4	0	shapes	M	4	True	55	(1.2872860131896839, 2.6537089986884901)	(-5.4051698190726984, 8.2726847559455194)	(-2.1217942204553175, -0.58751766398721195)	(3.9719548774928004, -7.2464482020410195)	1.0	z	1.35949
23	N	B	B	M					N	4	0	shapes	N	4	True	55	(4.6090888457678272, 2.060756840958204)	(7.9212238844370226, -1.4092473782577368)	(-0.5154325258271566, -4.352612905177816)	(-4.4666119924711039, 8.2938580025407092)	1.0	z	1.97702
24	N	B	N	B					B	4	1	shapes	B	4	True	55	(0.34327629424208972, -6.2074731332654753)	(7.6799767119403128, 5.5712936023297939)	(-7.5040600642815791, 2.902461275312648)	(-2.4836570365517678, -2.6436855088980451)	1.0	z	1.52863
25	N	A	M	A	M	B	N	B	A	8	4	shapes	M	4	False	55	(1.6226693026709782, 5.6388835556629413)	(7.9372603327464049, 5.4536301158359368)	(-6.4058873487458321, -0.37729418257897152)	(2.3189235793336405, -5.4829912713694249)	1.0	z	1.75419
26	M	B	M	B					M	4	0	shapes	M	4	True	55	(-1.5190357207252232, -2.0210154489981447)	(-7.7931889122393407, 1.7178966948955789)	(0.62161355957154285, 7.8885177548726091)	(0.22786153432967104, -7.6835269289012027)	1.0	z	1.19783
27	M	A	A	B					M	4	3	shapes	B	4	False	55	(0.32640174027962487, 5.1655769012302386)	(-7.0600632963246523, -4.8818027300903246)	(-6.249950311497793, 6.1307661539978078)	(2.0341865511906967, -1.3280870926521127)	1.0	slash	1.29349
28	N	B	M	N	B	A	M	A	B	8	5	shapes	A	4	False	55	(2.0610360336049247, -4.604879981219689)	(7.2782505543605609, 5.2203624405298257)	(5.3119998909080675, 8.7113412595617206)	(-0.14283064566933312, 6.3260088383033555)	1.0	z	1.40504
29	N	A	M	B	B	N	M	A	B	8	1	shapes	A	4	False	55	(-8.1718139638761613, 1.1127761437501054)	(-0.39068444627114118, 3.5829390488475088)	(4.2076098955604184, -1.0345305882630687)	(4.3844667697008717, 4.5585922784198267)	1.0	slash	1.4621
30	M	A	B	M	A	B	N	N	M	8	6	shapes	N	4	False	55	(-0.90889008423055628, 7.5616678293043584)	(6.0460803813490003, 1.2957436316634308)	(-4.0766570124427126, -1.9992246268391671)	(-3.650292903920425, 2.7908852137744908)	1.0	z	1.34848
31	N	B	N	M	A	A	B	M	M	8	7	shapes	M	4	True	55	(-0.8853390244954511, -8.634396011568942)	(4.7461138696219436, 5.4592320979226301)	(3.1977806086808922, -8.0867339644557781)	(1.8146288880151751, 2.0943452530999505)	1.0	slash	1.40928
32	M	A	M	N					B	4	0	shapes	M	4	False	55	(-1.6684811673079265, 3.9939366533878324)	(4.4463156475145773, 1.1200852985206549)	(-8.3423415968367252, -1.9084130882270669)	(7.4368351688190941, -8.5663301988374805)	1.0	z	1.25549
1	M	B	B	A					N	4	0	shapes	M	5	False	55	(4.0091873313771771, -6.9802250158960568)	(-8.6533423693717815, 2.7545396679741199)	(-0.76438857282409689, -5.7723026014691623)	(2.7687920027798754, 5.0288196676446599)	1.0	slash	1.23503
2	N	A	M	B	B	N	M	A	A	8	4	shapes	B	5	False	55	(-5.6703835752290654, 2.8538985323484951)	(3.9629894892973123, 6.9345748490419155)	(-1.6868036967153213, -3.9858430271925025)	(8.4317253537338388, -7.6271512928003737)	1.0	slash	1.99027
3	N	B	N	M	A	M	B	A	M	8	3	shapes	M	5	True	55	(-0.23861074233646029, 1.1358279363726744)	(-5.0214065431859431, 1.7380278058622682)	(4.1700288603818905, -1.199030184884176)	(-4.1219476856155719, -4.2939832959237663)	1.0	z	1.30821
4	N	A	M	B	A	B	N	M	M	8	2	shapes	M	5	True	55	(-3.784786486721833, -2.975882858770551)	(5.0207108876692583, -0.24139900935556469)	(8.2323435508586229, -4.0587161462757892)	(-2.1094477698870513, 5.1487188496359746)	1.0	z	1.49735
5	N	B	A	A	B	N	M	M	B	8	1	shapes	B	5	True	55	(6.4463522916191707, 2.6093684836105115)	(-3.6536348014442339, 5.1744247074797709)	(2.6467812091341951, -5.7149148848008622)	(-3.5402774835632407, -8.2565445624942395)	1.0	slash	1.28078
6	N	A	B	B					A	4	3	shapes	B	5	False	55	(4.92950448807788, -7.3964835307107952)	(2.9493602621793364, 0.99141234051002947)	(-6.3816808231749382, 0.58791845133550424)	(-5.0557110493717685, -6.7195140548021079)	1.0	slash	1.44905
7	N	B	M	N	A	M	B	A	A	8	7	shapes	A	5	True	55	(-4.7463621495999062, -2.9537087379459113)	(-2.9666674869305396, 2.2852543217212435)	(3.5295526238149435, -0.79510474117356456)	(-7.3947912580438935, 1.8179155246094751)	1.0	z	1.23679
8	M	B	M	N					B	4	3	shapes	N	5	False	55	(-0.26667118177778448, -0.7859508642312969)	(7.5031188544990144, -5.6288351184145871)	(5.8973444792136398, 5.5343951123395438)	(-4.7971358224801612, 7.2823622070927385)	1.0	z	1.27826
9	M	B	A	B					M	4	1	shapes	B	5	False	55	(0.19307515116545559, -3.1462313688508416)	(-4.0194207835087825, 5.7076898394532272)	(3.0811424828291667, 0.53926609234244793)	(-4.1075740766105273, -4.2484032768496247)	1.0	slash	1.6561
10	M	A	N	B	A	M	B	N	N	8	5	shapes	M	5	False	55	(-4.5356667584919288, 5.4918282253016919)	(-2.0658928053301899, -0.32453284744613065)	(7.0670361122124419, 0.45946524534908839)	(0.59157395071455277, 7.4156601164450642)	1.0	z	1.5108
11	M	A	N	A					N	4	2	shapes	N	5	True	55	(1.0388846238763279, 7.2551951210150882)	(-3.0524379391995282, 6.8653032014246644)	(-1.0585794216204372, -4.9262290337385419)	(3.3566573423511716, -1.6949584055833817)	1.0	z	1.22508
12	M	A	M	N					B	4	0	shapes	M	5	False	55	(3.1310830764859201, 6.1520719528257004)	(-2.9638738795099462, -5.8384643749653016)	(8.5902650810487415, -6.5256984391116797)	(-4.7190946563072611, 7.6093226140502601)	1.0	slash	1.32694
13	N	B	A	B	A	M	N	M	N	8	0	shapes	N	5	True	55	(-8.3896129855760186, -5.4262588778155028)	(7.2566671373046603, 2.7182489200581905)	(-6.141017205857132, -0.90065499976162311)	(1.7922242692423467, -0.20450648646217928)	1.0	z	1.5119
14	N	A	N	M					N	4	0	shapes	N	5	True	55	(-6.0175402326645226, -6.5956287244864722)	(0.30540951133441041, 7.7105320800171882)	(1.5607846713396185, -7.4157273735119915)	(-3.5803534911241321, 6.2608042685939989)	1.0	z	1.61204
15	N	B	B	M					M	4	3	shapes	M	5	True	55	(-4.3821457797835004, -2.4777782280114184)	(0.011243779393661057, 7.7297653359934912)	(-8.0307794208716263, 4.3141430235518783)	(5.3485925114129742, -4.5045073993914047)	1.0	z	1.64935
16	M	A	N	M					A	4	1	shapes	A	5	True	55	(6.8842541969387785, 7.1982518644270517)	(-7.9308078390376506, -1.2813696590286723)	(3.6277064268598416, -4.0221868065577642)	(-0.9396957449990806, 7.1165916821595658)	1.0	z	1.32701
17	M	B	B	A					N	4	3	shapes	A	5	False	55	(0.81303419133974941, 7.8994952949665986)	(8.5305086282054177, -6.9911573888928649)	(-0.76886420446929904, -6.0226346643680078)	(-0.59598354661441633, 3.0919510380813087)	1.0	slash	1.4642
18	N	A	A	B	N	B	M	M	N	8	6	shapes	M	5	False	55	(-7.2443009462822783, 0.49377617837640919)	(7.7367115258065482, 6.6694829681347301)	(-6.5210370546755705, 8.112198157822526)	(2.6551032443346188, -7.6555207281154711)	1.0	slash	1.38958
19	M	A	A	B	M	N	B	N	A	8	2	shapes	A	5	True	55	(2.3072754873630821, -8.5106997283891186)	(-7.3848428118138569, 1.7420356074067396)	(5.5896039573948464, -2.4521417243958101)	(-8.0470575224339349, -7.3822398482662965)	1.0	slash	1.79524
20	N	A	M	A	B	B	N	M	B	8	4	shapes	B	5	True	55	(-2.3926264361302394, 7.7230965072941125)	(-7.1897152107406859, -2.1125787374733935)	(5.3435444133168399, -2.8360952294998603)	(7.1183942981910668, 5.6182421703979593)	1.0	z	1.59095
21	N	A	M	M					N	4	0	shapes	N	5	True	55	(6.7966944884569394, -7.0290784461137887)	(-0.96010040133927976, -1.8450172687578483)	(-2.8500894539622239, 3.4882764469310601)	(6.2340169667452532, 5.7673789747754363)	1.0	z	1.64318
22	M	A	N	A	N	B	M	B	M	8	1	shapes	A	5	False	55	(1.800370719819556, 4.687567287118366)	(5.4887148151890806, -3.8946092619125823)	(-6.0724212493574257, -4.7390064788644768)	(-5.8012242979863773, 4.0467293106588311)	1.0	slash	1.47662
23	M	B	A	A					M	4	0	shapes	M	5	True	55	(-0.99414196047114523, 4.4600646686819196)	(1.106114623362572, -8.2005475894928317)	(-2.3051361827656995, -5.5865538788119951)	(8.2653446664745083, 0.69205360324731657)	1.0	z	1.32039
24	N	B	B	M	N	M	A	A	B	8	0	shapes	N	5	False	55	(-1.7096233230903914, -7.2511155989589966)	(4.1333897362012717, -6.3637726929200591)	(2.8795711704914329, 5.1761796644155726)	(-8.6263530116697584, 3.6853718148070094)	1.0	z	1.31559
25	N	A	M	N	A	B	B	M	N	8	5	shapes	B	5	False	55	(4.6694374170097106, -4.1459064313347671)	(6.2141217268956161, -8.6115320331623018)	(-3.6196946410509048, 4.631479845747883)	(7.6888647934268448, 0.34980344438910116)	1.0	slash	1.5911
26	M	A	A	M					A	4	2	shapes	A	5	True	55	(8.0825519714516112, -1.7889939566962605)	(0.68311869046594076, 3.5598816351810019)	(-7.6033698176302762, 3.908326296006015)	(-0.61462176766513288, -5.6175807934555539)	1.0	z	1.26703
27	N	B	M	M					M	4	2	shapes	M	5	True	55	(1.3276887841092506, 0.43438075990927061)	(-4.5469767762574689, 1.3041766979524141)	(3.4942593522530476, -5.2328303633124627)	(-3.984335438212649, -8.3473383629044005)	1.0	z	1.27058
28	M	A	A	B	M	B	N	N	A	8	2	shapes	A	5	True	55	(-6.1612712307553208, -4.2841552493439776)	(0.10444459932829986, 3.9572576352667994)	(5.1101090540394143, -0.23509889640760662)	(-2.1881951216869586, -5.1393970976962304)	1.0	z	1.20377
29	M	B	M	A	A	B	N	N	B	8	3	shapes	A	5	False	55	(7.6314509203657508, -8.6385991878174018)	(5.9917095174829704, 7.2558246758515175)	(-6.9986486032258028, 5.2548823875755204)	(-0.2859413709085139, 8.5827014119107368)	1.0	z	1.39807
30	N	A	A	B					M	4	3	shapes	B	5	False	55	(5.5417142649200741, 0.34101456947628961)	(-5.5454164184917456, 4.8706883504448992)	(-0.80431130277214269, -4.9050164087374988)	(5.0880742858168997, -6.9712250318017697)	1.0	slash	1.70947
31	M	B	M	B	A	A	N	N	N	8	0	shapes	M	5	False	55	(-4.3909830432570729, 5.8993706727403143)	(-6.5317501867628467, -7.0620275679905404)	(-0.8970609354216954, 1.5215866365003663)	(3.2849473218174481, -3.6403443559645492)	1.0	slash	1.73102
32	N	B	N	M					M	4	2	shapes	N	5	False	55	(1.0963550852145652, -8.2288084511114796)	(-7.6324349746109368, -3.3148504915550738)	(-8.0534020375998292, 1.8183004534088916)	(3.9733072342337561, 4.3386287978889939)	1.0	slash	2.03471
1	M	B	M	B					M	4	3	shapes	B	6	False	55	(7.8047473698311016, -3.9960785160508445)	(-4.0836622048625983, 4.0885585020622379)	(2.8107099068594366, 2.2525079514561384)	(-1.2329050158387833, -7.5231000885054318)	1.0	slash	1.79439
2	N	A	A	M					A	4	1	shapes	A	6	True	55	(-3.474436020324271, 1.7726622319897167)	(-6.4854334502580908, -4.1365123681008882)	(1.4568102012494855, -7.4371305262810701)	(7.1580874999689055, 5.8677659781187312)	1.0	z	1.31781
3	N	B	B	M					M	4	2	shapes	B	6	False	55	(6.5837059447594335, -2.5775844857692105)	(7.3381838305326816, 2.2459838584719236)	(-0.76419047397087159, -4.1745590110093707)	(-6.4477432294929526, 3.3774694865976667)	1.0	slash	1.75158
4	N	A	M	N	B	A	B	M	B	8	5	shapes	A	6	False	55	(-1.9836754853186696, 4.4964023860847036)	(-1.9490798877968656, -7.7030208175124262)	(5.371456631472153, -3.4126228322130299)	(3.4793349511066776, 7.9183629035872123)	1.0	z	1.42645
5	N	B	B	A	N	M	M	A	M	8	6	shapes	M	6	True	55	(7.6389856224347739, 5.4535035224218351)	(1.1575777826125506, -4.8845604580644055)	(-7.9604203216575611, -4.3167679871987561)	(-2.8201305942536523, -7.4261316015157268)	1.0	z	1.48811
6	M	B	B	M	N	A	N	A	M	8	6	shapes	N	6	False	55	(0.65172786857214327, -8.074985153311264)	(4.6079056825433948, -3.8997021641561123)	(-4.5676811673479065, 5.4784968266192706)	(3.709592609928654, 8.6083160989256093)	1.0	slash	1.41035
7	M	B	M	B	N	A	A	N	N	8	4	shapes	N	6	True	55	(7.5679444852845386, 1.2919233354194315)	(3.0745329058753033, 5.6390602290559322)	(0.42794385109991673, -8.4707704771904968)	(-0.74725980573307993, 7.4885694388053992)	1.0	slash	1.76552
8	N	A	B	B					B	4	0	shapes	N	6	False	55	(-2.4899880528713307, -6.157457720704036)	(7.519399075494082, 4.680653330104672)	(7.396344202196925, -0.93388561577807927)	(-3.7300072503315924, 3.5609780655172152)	1.0	slash	1.44342
9	N	A	A	M	B	M	N	B	B	8	1	shapes	A	6	False	55	(-3.9674948780024595, 7.6343961612249984)	(-4.7127559501174368, -5.9203561762484629)	(4.0952779932959178, 2.9955786107335118)	(-2.0945169603324159, 0.89735283819554468)	1.0	slash	1.58025
10	M	B	M	A					B	4	0	shapes	M	6	False	55	(-1.8945620535568182, 2.5660627329331742)	(-6.3889525546888795, -2.877466709402972)	(8.1331280595883158, -2.3695389294530864)	(5.5553062275174554, 7.4504282230557415)	1.0	slash	1.46454
11	N	B	N	B					B	4	3	shapes	B	6	True	55	(-6.7216007245635838, -0.67795268550193022)	(6.2603496565224912, -2.0198320823642035)	(-3.5789114838969818, 3.880703790086093)	(2.2421318322140671, 3.3158051414832261)	1.0	slash	1.74227
12	N	A	N	B					M	4	3	shapes	B	6	False	55	(7.9744918922937984, 0.31884370572797494)	(-6.0536494016447886, 5.7697756097432098)	(-1.5711511334918002, -6.1283053113741817)	(7.2907491060102032, -4.8900542305628409)	1.0	slash	1.62738
13	N	B	B	M	M	N	A	A	A	8	6	shapes	A	6	True	55	(-4.0641606295573647, 1.1907996895860453)	(-4.4938751829834906, -3.4240968876286475)	(-0.74294994292233163, 5.0960387436348515)	(4.7544475315320849, 5.3281972453765061)	1.0	z	1.64049
14	M	B	B	N	A	A	M	N	A	8	5	shapes	A	6	True	55	(8.7019515004263397, -8.3048839749088117)	(-4.4275631053454347, -3.3634656100423754)	(5.9674953929914771, 1.3629787346784248)	(3.8649396978493904, -5.3416699416879867)	1.0	slash	1.35828
15	M	A	B	B	A	N	N	M	A	8	0	shapes	M	6	False	55	(-3.7445642107586847, 4.6580496796289914)	(0.11536761618371649, -8.0911513650008828)	(-0.7458430335439612, -2.0723307246062044)	(6.4010983159900778, 8.5233975959842709)	1.0	slash	1.35409
16	M	A	M	N	B	A	B	N	A	8	5	shapes	A	6	True	55	(5.4243795659782972, -5.3049726574540514)	(2.6033547917102116, 2.3369846667396921)	(2.0693560386995564, -7.5656905335211313)	(-6.959165612765065, 3.0051116182851114)	1.0	slash	1.36735
17	M	A	B	B					M	4	0	shapes	M	6	True	55	(8.3935645111543771, -3.8095830098036325)	(5.8042948405345296, 4.7838108581691507)	(-3.3559283419281973, 4.1702298016179711)	(-5.561315096850505, -8.0744211671934565)	1.0	z	1.34401
18	M	A	B	N					M	4	0	shapes	M	6	True	55	(6.99366277054148, -2.7299734275841141)	(-7.6660961189380794, -4.6869382593232229)	(8.0292998788226946, 6.1535705354034729)	(-6.5450846382359096, 3.9144581303725072)	1.0	z	1.38935
19	M	A	N	N					N	4	2	shapes	N	6	True	55	(2.1092190257541077, 8.5770017025600573)	(0.88660730905325202, -4.6071335631582686)	(-5.3549875247295322, 2.1907881555950439)	(-5.3989127510988748, -4.2062252554998434)	1.0	z	1.00109
20	N	B	N	A	M	M	A	B	M	8	6	shapes	A	6	False	55	(-5.5480487854750411, -6.9534500975977158)	(-2.7025809690148463, 5.9140960462802461)	(4.3283500264285077, -1.6691687433790534)	(-6.2865266196431939, 1.1427597140601335)	1.0	slash	1.69817
21	N	A	A	N					A	4	2	shapes	A	6	True	55	(6.1867248588709529, -2.9160216426522751)	(-8.5722985727255345, 6.0141373064059067)	(-3.1753577756230813, -2.7373561102533808)	(6.6019845602094271, 6.9255623203781926)	1.0	z	1.83144
22	M	B	M	B	A	A	N	N	N	8	7	shapes	N	6	True	55	(2.9001047297493976, 0.81847148359736543)	(0.21016042661529255, -3.3198241791876288)	(-6.2610174943277235, 3.1348094986383561)	(-7.1761475425023074, -3.599730697284512)	1.0	z	1.21936
23	N	B	A	N	B	M	A	M	M	8	1	shapes	B	6	False	55	(5.4861768875150858, -8.2243293319603232)	(6.8054054373118973, 5.7633576720904269)	(-4.7941916270565219, -0.85066578932172288)	(0.87949096133421989, -4.2440552852640234)	1.0	slash	1.22698
24	N	B	N	A	M	B	M	A	B	8	5	shapes	B	6	True	55	(-5.5485202356568069, -0.90183878166300779)	(-5.1190372083606048, 4.376589160932248)	(-0.011049328464297403, 7.7459352393809944)	(5.2205250060134532, 7.1527292852061475)	1.0	z	1.42536
25	N	B	B	A					N	4	3	shapes	A	6	False	55	(4.0765602695897662, 8.1212250784189237)	(2.0090963996934263, -3.566355939388469)	(-4.123797222762958, -7.5676131991854785)	(-5.7837695566249501, 1.8671313287809443)	1.0	slash	1.34899
26	M	A	M	B	A	N	N	B	M	8	6	shapes	N	6	False	55	(-0.58149671618538612, -5.3185211530678007)	(-4.0503522771987166, 4.1722480669048174)	(-0.70074184596862032, -1.1234604986258248)	(4.9817739930859961, 4.9473806274000207)	1.0	slash	2.15382
27	N	A	M	B	M	N	B	A	M	8	2	shapes	M	6	True	55	(-1.0512491143157368, -2.1789055449721113)	(6.8856869385156507, 6.6234940789825529)	(-6.3206432597942239, -3.7657005451770695)	(3.2712770737002916, 0.47722949000220716)	1.0	z	1.14997
28	N	B	M	N					N	4	3	shapes	N	6	True	55	(-3.6276879882465183, 6.245439200240499)	(6.8494905251327847, -8.5914564790029004)	(-8.7241359288028271, -6.0836154207333974)	(0.28809399423905191, 8.1998118317071267)	1.0	z	1.39353
29	M	A	B	N	A	B	N	M	A	8	6	shapes	N	6	False	55	(-5.230891262359048, -1.7122567876603698)	(-7.8337823138930434, 3.727947296936664)	(1.0812619524006539, -3.8349391358747793)	(3.4055519112967527, 2.657305824458275)	1.0	z	1.24478
30	N	B	A	A					A	4	3	shapes	A	6	True	55	(4.9421381278994119, -2.9482144224707136)	(-7.2750547343872176, 0.69129915388197816)	(7.6816281730019469, 3.6739397102907994)	(-3.626852052195642, -4.2119628237323621)	1.0	z	1.26056
31	M	B	M	N					M	4	1	shapes	B	6	False	55	(-4.3041163914350857, -8.3046785721493652)	(-4.8754069857192892, 7.5598773085240509)	(0.096212432235125434, -3.1041561933756929)	(8.5143531088783142, 7.1291271308056494)	1.0	slash	1.35427
32	N	B	M	B					A	4	1	shapes	B	6	False	55	(-1.5426382650064996, -7.6665043663730827)	(1.8185381558924636, -3.7720912978190793)	(4.2359168414343937, 1.2176405832447887)	(-7.8259210809080795, 6.5138359261575438)	1.0	slash	1.30201
1	M	B	A	N					N	4	1	shapes	B	7	False	55	(-3.5504139678161248, 2.736444485982334)	(2.5010408744060619, 5.112488092633301)	(6.5181082317476253, -3.2712953604516262)	(-6.5124107633223032, -0.7565624967123572)	1.0	z	2.1588
2	M	B	M	A	B	A	N	N	A	8	1	shapes	B	7	False	55	(0.55874162108923819, -5.02046370989639)	(5.4494382178616139, -4.0268224278569242)	(-7.6321209365064693, -8.5483118084025911)	(-5.735566701286066, 2.1980503117447903)	1.0	slash	1.96313
3	M	A	B	M	B	A	N	N	M	8	0	shapes	M	7	True	55	(4.6465256807011173, 2.7392087706660124)	(3.3904613492426918, -6.7545301987461919)	(-8.0597275904423018, 2.24628024486511)	(-5.8525290016366558, 8.7089956304949219)	1.0	z	1.26084
4	M	A	A	N	B	N	M	B	N	8	1	shapes	A	7	False	55	(7.759847050735285, 7.8275295148523014)	(8.275632523049488, -0.5435666239794763)	(4.318113554993154, 3.0970317736356812)	(-3.8368330745954387, 7.9261327400357047)	1.0	slash	1.66583
5	M	B	B	N					N	4	0	shapes	M	7	False	55	(7.6443394320235711, -3.7975974308091915)	(-6.8645781584101577, -4.7666340009735819)	(1.1768152695759042, 8.0185694087370827)	(-7.7377916587126494, 7.6840765143661187)	1.0	slash	1.66178
6	M	A	B	B					A	4	2	shapes	B	7	False	55	(5.2090563633983606, 1.6109314589387438)	(-3.9644803338070806, 7.0350265078230212)	(-0.29815713892539364, -3.8028041437592321)	(2.5737603709538242, -6.8285046409172088)	1.0	slash	2.17935
7	M	A	M	N	A	N	B	B	A	8	7	shapes	B	7	False	55	(-8.0244198244310354, 1.4034409747723604)	(-0.22836741771852331, 1.9687482822244462)	(5.0864001221383219, 1.8758849930609589)	(-3.1519711923692393, -2.0265263215173759)	1.0	slash	1.41972
8	N	A	A	M	N	B	M	B	A	8	7	shapes	B	7	False	55	(2.6978000272031348, 2.7205392897762177)	(-7.0546137771882158, 1.69943779641671)	(1.22597444822655, -6.0753042342010346)	(7.5612109689216638, 0.52706567240387159)	1.0	slash	1.53433
9	M	A	N	N					M	4	2	shapes	N	7	False	55	(6.5949007067983381, 0.60905409536139032)	(-4.0422279132155445, 8.0080646194314866)	(-5.8610783945130249, -1.7062207524162334)	(7.1366430557250791, -8.4857073304881432)	1.0	slash	1.29229
10	M	B	A	A					M	4	3	shapes	A	7	False	55	(2.7200398026315948, -3.5484984521726401)	(4.3128909664877586, 2.4688556856228168)	(-3.4168803546293383, 8.3218830958688024)	(-6.436904337855303, -1.8526406885849251)	1.0	slash	1.46515
11	N	B	N	A	A	B	M	M	A	8	4	shapes	A	7	True	55	(3.7032355164440798, -6.0511856780685029)	(-6.0978581391574807, -8.4805176786400143)	(0.72676329614604107, -3.024126612645067)	(-0.3920204041819435, -8.6353501592889579)	1.0	z	1.58301
12	N	A	M	N	B	B	A	M	A	8	0	shapes	N	7	False	55	(-7.1458696587668378, 3.34709671990184)	(-8.1740670103001438, -5.7751567125392178)	(-2.6262662689252787, 2.6627737967302565)	(0.28615655516489191, 8.5416628388887261)	1.0	slash	1.34082
13	N	A	N	A					M	4	3	shapes	A	7	False	55	(4.434524098476393, -3.6802866533504099)	(8.1612380900626533, 2.6721651206177803)	(-8.5162661550335681, -8.0416618619762765)	(-7.8469828504478869, 8.0284267055203706)	1.0	slash	2.09064
14	M	B	M	N					N	4	3	shapes	N	7	True	55	(1.3992059863881376, 7.9024840060441797)	(-6.0491618008937227, 6.6527735253541262)	(-0.98631635034623688, -5.4984874629448655)	(2.7470488349573401, -7.5809862907909489)	1.0	slash	1.4903
15	N	A	A	B	M	N	B	M	M	8	4	shapes	M	7	True	55	(8.0666794760086553, 1.3593419562242239)	(-8.665497322894014, 6.6091024860183545)	(1.829076498940875, -7.4543193826438321)	(3.2514506729167394, 4.6789794440942067)	1.0	z	1.09893
16	M	A	N	M					M	4	3	shapes	M	7	True	55	(5.3007090446558642, 1.7453922496367085)	(-6.2259574829669777, 2.6981910443506898)	(-4.8431884733432682, -8.3625763816905057)	(8.5975660777229344, -7.6419545534499438)	1.0	z	1.18328
17	N	B	M	B					A	4	3	shapes	B	7	False	55	(5.6634057452687259, -5.2246687845769832)	(5.9682746556271269, 1.3285613314617883)	(-5.2794511899870091, 7.7240569621348811)	(-1.2009993142644806, -1.8446795380877115)	1.0	slash	1.22106
18	M	B	A	M	B	A	N	N	M	8	5	shapes	A	7	False	55	(-3.9984832681833948, -5.5510360935394321)	(-4.6138195792975862, 4.8720380392847389)	(1.7000904042754215, -5.6196657299596104)	(7.7773860649095887, 1.3649515461790145)	1.0	slash	1.44223
19	N	B	B	N	M	A	A	M	B	8	2	shapes	B	7	True	55	(-1.5207393709395696, -1.0912081157182714)	(-1.9930979768860873, 8.5423659770336293)	(-3.5336370939989532, -8.3022918988381722)	(-6.9905258082203545, 7.7501240698855405)	1.0	z	1.53185
20	N	B	B	M					N	4	0	shapes	N	7	True	55	(7.5113188892791989, -0.65647642154406682)	(-7.8213880176049253, 7.3497573622456542)	(-0.16804947865023401, -2.3615894276731568)	(6.3135802478438627, 3.4124070790185979)	1.0	z	1.45189
21	N	B	M	B	M	N	A	A	M	8	2	shapes	M	7	True	55	(-6.1218418131901746, 8.6847160623278334)	(0.083800342003057082, -2.341700449793743)	(2.2850331399914658, 2.5415416952886645)	(2.3676662545305529, -6.3321044799782147)	1.0	z	1.18823
22	M	B	A	M					A	4	2	shapes	A	7	True	55	(-4.2266457608253285, -5.9424755738617847)	(6.5528805457143537, -0.21562313612667516)	(-5.6811941575366367, 0.051660710699140466)	(1.2663724600950736, 6.5973643897184964)	1.0	z	1.359
23	M	A	A	N					N	4	3	shapes	N	7	True	55	(0.34763616967721944, -6.6924246734257231)	(-5.0189414657218085, 5.800156076346461)	(3.4555114484633229, 4.7385150515456953)	(-7.9724746251794798, -5.065923162769904)	1.0	z	2.20065
24	N	A	B	A	M	N	M	B	B	8	7	shapes	B	7	True	55	(-1.8124927148982586, -3.7183019059981195)	(6.7493123277517117, 1.6186762408818645)	(-0.87198246191180928, 1.8317711738619469)	(-7.357806337904341, 7.2117774436821289)	1.0	slash	1.5157
25	N	B	B	A					B	4	2	shapes	B	7	True	55	(-4.1816472567615106, 1.6075834024135407)	(-4.8560503977830685, -2.4387499617492283)	(0.32081608962717034, -4.1397114443922476)	(7.7811141583553258, 8.39395510308659)	1.0	z	1.42182
26	N	A	M	N	B	A	M	B	B	8	4	shapes	B	7	True	55	(-7.9247084269666699, -7.7859592013403169)	(4.4670631507996355, -4.4540909525534147)	(-4.358547735490113, -4.7141492351518082)	(7.0302318387513782, 0.24776560087894595)	1.0	z	1.31491
27	M	A	M	A					A	4	3	shapes	A	7	True	55	(1.4187978451892693, 8.153422241678733)	(1.9156448656913643, -0.9937890269389742)	(-6.4336838070719242, -0.78158236809634918)	(-6.4145350527181169, 7.0388097366987434)	1.0	slash	1.38319
28	M	B	A	M	A	B	N	N	M	8	1	shapes	B	7	False	55	(7.8986830302577751, -1.5184725687984253)	(-5.293017502141196, -1.4680072335133758)	(3.1098181405759995, -1.1781204355369885)	(1.9243287254607075, 3.0219833843204853)	1.0	slash	1.34875
29	M	A	B	B					B	4	0	shapes	M	7	False	55	(0.81003256702020821, -0.77201221943008047)	(-8.6647489341454982, -2.7717587567596249)	(-3.5194091472471429, 7.6102537342569399)	(2.7746015126251535, 2.9216659335527702)	1.0	slash	1.11971
30	M	B	A	N	B	A	M	N	A	8	5	shapes	A	7	True	55	(-8.0282166243109234, -2.0339455646846698)	(-8.0999451144329857, 5.1653510430313698)	(-4.9463254032819632, -6.2493285160927341)	(5.3187367827770693, -6.2540203033346691)	1.0	slash	2.21147
31	M	A	M	B	B	N	A	N	B	8	6	shapes	A	7	False	55	(0.48150075430979378, 6.8437788298167206)	(-7.8184160455952947, 4.8813324174320503)	(-6.6946767902929674, 0.91741725677009711)	(-2.0957353247498993, -8.1883956127738386)	1.0	slash	1.55488
32	N	A	B	B					N	4	0	shapes	N	7	True	55	(-6.3866872260082541, -3.854609294552831)	(3.0348465287493163, -5.8569745802241489)	(0.24885088620280094, 4.6391495056528917)	(-5.7175923342613704, 5.363945737898975)	1.0	z	1.52519
1	M	B	M	A	B	A	N	N	N	8	6	shapes	N	8	True	55	(2.170883212663572, -5.9355652117812854)	(7.7437521603879098, 8.310003304621663)	(2.709288006062101, 5.6973443856042447)	(3.2282222250639752, -0.087733080109444472)	1.0	slash	1.45843
2	N	B	A	B	N	M	M	A	N	8	0	shapes	N	8	True	55	(-2.8240734859073164, -5.1599132996831329)	(1.9895243226517039, 5.5003531890201227)	(3.510516991967533, -1.4011950022162356)	(1.0121827835598367, -7.914075250204319)	1.0	slash	1.32181
3	N	B	N	B					M	4	3	shapes	B	8	False	55	(8.2703168531489695, 6.9061110538577495)	(-2.7869864165217715, 3.8149376467372136)	(-1.8434378599393781, -7.6131269981083953)	(6.157496169186226, -6.4532158011220577)	1.0	z	1.57989
4	M	B	N	B					B	4	3	shapes	B	8	True	55	(2.8329435885667813, 0.51030204227819098)	(8.0610088408772747, -6.8912299295094464)	(-2.8290277159737158, 8.6666545993612978)	(-5.1260769546721265, -5.4356737268406077)	1.0	z	1.24093
5	N	B	A	M	A	M	N	B	A	8	7	shapes	B	8	False	55	(6.4026605463438315, -1.8104753649631702)	(6.5467041942141275, 4.0999405324149176)	(-1.5377681013047777, 6.9748182942802845)	(-0.54690319867841986, -6.5733801625834678)	1.0	z	1.27104
6	N	B	N	B	A	A	M	M	B	8	0	shapes	N	8	False	55	(2.1446144956563842, 7.8322817623283498)	(-2.595434073228942, -0.49937399663907556)	(7.7534058031382642, 7.4482897300302255)	(-5.1150728414845155, -6.694967641399586)	1.0	slash	1.44407
7	M	A	B	B					A	4	2	shapes	B	8	False	55	(0.96548946513241951, -4.7793458263292834)	(-3.9929850208155537, -6.4339394932046554)	(6.74641209072864, 7.7905140433457341)	(-0.76826594052152242, 0.48305665210328996)	1.0	z	1.35844
8	N	A	M	A	N	B	M	B	A	8	1	shapes	A	8	True	55	(1.1554234894300084, -4.5070809898386806)	(6.5573275019891764, -2.8729051306903681)	(-5.76046840477927, -8.0168681601584062)	(4.2037786399602393, 8.2704106941649158)	1.0	z	1.29708
9	M	A	B	B	A	N	M	N	A	8	4	shapes	A	8	True	55	(-0.062073889360522827, -2.9224611568110266)	(-6.9722160047626858, 4.9926961425808081)	(4.4162919977660202, 5.529072254180031)	(-2.7088206514490079, 8.6661728469900154)	1.0	z	1.84092
10	M	B	A	B					B	4	1	shapes	B	8	True	55	(0.30467382322617809, 0.65280520094650107)	(0.91569752007975147, -8.5719507074379298)	(-2.1511600518449825, 4.9762222646495395)	(-6.1469123604761062, -7.6170836098558095)	1.0	slash	2.17857
11	N	A	N	M					N	4	3	shapes	M	8	False	55	(7.0064944888321534, -8.2398265541819331)	(-3.6295478576663189, 3.6857104237580849)	(7.3230039835748393, 2.3528792389173816)	(-3.6982151708775071, -0.47893831004255638)	1.0	z	1.20058
12	N	A	N	M	B	A	M	B	B	8	4	shapes	B	8	True	55	(5.7468081931809376, 8.454703058704812)	(8.5537995986217545, -6.1925318620507639)	(-2.4734818080008507, -8.1565703985071192)	(-2.2163098713009397, 6.6303348944360856)	1.0	slash	1.22771
13	N	B	A	M					N	4	1	shapes	B	8	False	55	(8.269843543713101, 2.8609453179538669)	(-5.2355576530815098, -2.639405599524582)	(2.9760951258213151, -4.4768336821837051)	(-3.1452305967601344, 4.6329669067099744)	1.0	slash	1.22202
14	M	A	N	N	B	B	A	M	A	8	3	shapes	N	8	False	55	(-5.1496324438500283, -3.4331322994401097)	(-5.9691822610515484, 5.2586775120253773)	(5.9554553947579283, 4.7538061911769365)	(6.5795434251103853, -2.3899394944261614)	1.0	slash	1.15499
15	N	B	N	A	B	M	M	A	B	8	7	shapes	A	8	False	55	(0.63782078701168032, -1.2953775094224609)	(-4.3955522587160294, -2.5854751836793133)	(-7.6912415820165343, -5.057317434200689)	(4.2914931163925871, 4.705826616554349)	1.0	slash	1.31044
16	N	A	A	N					A	4	1	shapes	A	8	True	55	(8.5395227705513754, -7.1704552281104759)	(-1.431660511582483, -5.019237787571921)	(3.3131402813447934, 0.74085552032179258)	(-7.1907234999414422, 5.8646931904966291)	1.0	z	1.21678
17	M	A	M	N					N	4	2	shapes	M	8	False	55	(-7.1273320163154139, -3.868104693813585)	(5.7455037601373675, 6.6445389953031313)	(6.3839726070719003, -5.7023274280985934)	(-0.56339553847981172, 4.0284788817263077)	1.0	z	1.13645
18	N	A	N	A	M	B	B	M	B	8	3	shapes	A	8	False	55	(-1.7306772355603224, 5.2929222233645845)	(0.88693512331171398, -0.63709974758564769)	(-3.6049167511143532, -7.5954734793068184)	(-7.2668448586528855, -0.46377103599678371)	1.0	slash	1.19146
19	M	A	M	B					A	4	1	shapes	A	8	True	55	(-6.1583089500861963, 5.2157603402310198)	(-4.7942936028695335, -4.4149259942086916)	(1.7127479676230344, -1.4579001661668576)	(5.7344377301255776, 2.0860255522945828)	1.0	z	1.1398
20	N	B	N	A					N	4	2	shapes	N	8	True	55	(-0.83251655894518528, 5.8780853381382645)	(-0.42434098873979664, -6.744024101674392)	(0.35997404282905521, -0.49051548201219219)	(7.213467930057254, 3.9789301573964266)	1.0	z	1.2412
21	M	A	B	M					A	4	1	shapes	A	8	True	55	(6.9078122780180387, -1.2464857893634722)	(-1.2172139891675648, 3.6531481407614788)	(6.864259727957057, 5.8918202677175024)	(-4.9280208495171722, -2.2736037758722194)	1.0	slash	1.26698
22	M	B	M	A					B	4	1	shapes	B	8	True	55	(-5.6084748962229698, -8.3019976456088642)	(4.0707981783418763, -0.96896396397228024)	(0.36488950479885496, 1.856291457269899)	(-6.8235530870070846, 2.2149201627442725)	1.0	z	1.39254
23	M	A	M	N					A	4	1	shapes	A	8	True	55	(4.3020952849811245, -1.1555671130094431)	(-6.1673344204988858, 7.0461887711750961)	(8.5896917703730793, 6.8692487820659114)	(-2.6683842466075127, -6.9036524905977341)	1.0	slash	1.5559
24	M	A	A	M					B	4	3	shapes	M	8	False	55	(-6.4952373524167868, -4.9666178585725946)	(1.6033269701547841, -5.6299793155501341)	(-3.3731242127578218, 4.8320963760084901)	(3.311492631559565, 0.58447397495463704)	1.0	slash	1.16575
25	N	B	N	A	A	B	M	M	A	8	2	shapes	N	8	False	55	(-1.4592207621378046, -7.9992461412649005)	(2.1293015933405925, 1.016544466510684)	(7.556031500753484, -6.2131088369750618)	(-3.9825208918000801, -0.45641010889283962)	1.0	z	1.19067
26	N	B	M	M	N	B	A	A	A	8	7	shapes	A	8	True	55	(4.706419722231761, -6.3949644764559466)	(3.1630002508574737, 1.4988512812934136)	(-3.9154819957525833, 4.2797263390311429)	(8.5427710587800689, 0.64329456784189709)	1.0	z	1.17308
27	N	B	N	B	A	A	M	M	N	8	6	shapes	M	8	False	55	(6.3560931641409759, -7.678553992249701)	(-0.37779831726683355, -7.0882625991592541)	(4.4854193830393818, 7.4352761297021921)	(5.3436240384010993, 1.7709813208848999)	1.0	slash	1.14818
28	M	A	M	B					A	4	0	shapes	M	8	False	55	(7.2155362111581756, 4.1046763676775715)	(8.289518561632363, -5.4356328286991875)	(-0.1255478903048779, -7.0978857396760473)	(-6.3333917191299811, 5.352161732116766)	1.0	slash	1.67819
29	N	A	N	A	B	M	B	M	B	8	6	shapes	B	8	True	55	(-6.2509205566521793, -7.1262645892638767)	(1.6360070058442417, -5.8200353926696202)	(-2.8554311722936969, -3.2349229267050497)	(-1.2041880483449194, 4.2962796770823815)	1.0	slash	1.44111
30	N	A	M	B	A	B	N	M	A	8	1	shapes	A	8	True	55	(0.0069174775010960587, -2.537930250619377)	(5.4390346944519266, -7.1845597794260687)	(7.8288256616912477, 5.3626766684130427)	(-4.5515455018193949, -7.5910774403349102)	1.0	slash	1.39473
31	N	A	N	B	B	A	M	M	M	8	1	shapes	A	8	False	55	(-8.2191068172690525, 3.2800993358382851)	(-0.41609812730161089, -5.4443952651665901)	(8.0782426544193981, 6.6644955462233)	(-1.2085826488767824, 3.6893142064515878)	1.0	slash	1.18255
32	N	A	A	B					B	4	1	shapes	A	8	False	55	(-3.8231302555326003, 7.2843614652835953)	(1.6053206755013534, 2.8523667667985979)	(-6.1725390280069501, -5.7537026317927733)	(5.9692358677847714, -6.7825231720429606)	1.0	slash	1.37198
