TrialNumber	stim0	stim1	stim2	stim3	stim4	stim5	stim6	stim7	stim.probe	ttl.stims	corr.num	trial.type	stim.corr	block	match	Subject	stim.pos0	stim.pos1	stim.pos2	stim.pos3	ran	resp	RT
1	N	B	N	A	B	A	M	M	A	8	3	shapes	A	Practice	True	57	(4.8502935205142474, -7.8355837676599496)	(3.7748506785020908, -0.77165530006864813)	(8.3533508079972307, 5.4325719032064974)	(-4.6186064103640021, 1.7190616175290234)	1.0	slash	1.88574
2	N	B	M	M					B	4	2	shapes	M	Practice	False	57	(-4.2082199127220168, 0.61333413833238914)	(4.8608017068749554, -5.5338525439383215)	(7.4958736664169336, 6.5751096223690055)	(-3.963180447471256, -3.5112417486411811)	1.0	slash	0.975135
3	M	B	M	A					M	4	0	shapes	M	Practice	True	57	(-0.78269612916446185, -6.3522813452269169)	(6.7666992919289974, -4.4412339543977328)	(-4.9756273812469347, 6.9235558019055929)	(6.2636663389780836, 6.6533257325506394)	1.0	z	0.734712
4	N	B	B	A					B	4	1	shapes	B	Practice	True	57	(-0.4798796735294939, 8.3709541803983214)	(-8.2861919143651885, -5.1201697714531988)	(6.8196857221971126, 3.8928125098786364)	(3.4270214674862345, -0.35761057643041383)	1.0	slash	0.72382
5	M	B	A	N	N	M	B	A	B	8	3	shapes	N	Practice	False	57	(2.6212167409987721, -3.4412395141529508)	(-6.4839769803491585, -6.1134899308320705)	(0.39876491135891179, -8.3837743934855204)	(7.7424242018656848, 5.4767589816824991)	1.0	z	0.925435
6	N	B	B	A					N	4	2	shapes	B	Practice	False	57	(-5.7904108054358669, 1.4359112543773573)	(-0.44382176948438889, -4.7726578850730927)	(6.5197867687770739, 0.69058036239412424)	(5.1564581763729258, -8.247346525638811)	1.0	slash	0.982931
7	N	A	A	M	B	M	N	B	N	8	7	shapes	B	Practice	False	57	(1.938090873378215, -1.2082127648899084)	(-5.9356481791690117, -3.8647472895799115)	(-8.0472544239139836, 8.5544318672773265)	(-7.3391261208956848, 3.5800549312118051)	1.0	slash	0.860874
8	M	A	M	N	B	A	B	N	A	8	1	shapes	A	Practice	True	57	(6.8968589197560917, 7.0963071010490779)	(0.58252705495832302, -6.3215886354682151)	(-7.9013726162600832, -8.0349691026396428)	(-3.4267829562773544, 8.143431215574509)	1.0	z	1.35052
1	N	B	N	B	M	M	A	A	M	8	6	shapes	A	0	False	57	(-8.3421009171467251, 3.7680408924551774)	(6.2552575976031441, -4.7426002192840135)	(5.2042345571228381, 8.5968049271136202)	(-1.2214003023819151, 0.56599423182900921)	1.0	slash	0.866624
2	M	B	M	B	A	N	A	N	A	8	6	shapes	A	0	True	57	(-2.0475972427468765, -2.0593127743504258)	(3.9740541072861166, -2.62675929392163)	(8.3663721551404464, -6.0162409679770246)	(3.7366503047086539, 6.2361504331475022)	1.0	z	0.968042
3	M	A	N	A					N	4	1	shapes	A	0	False	57	(-0.31905450454439688, 2.2467748834765029)	(4.2295670789496693, 7.2175184658123008)	(-7.0583467282963106, -0.12579107715346716)	(7.9686145565009667, -0.91947137738984264)	1.0	slash	0.638191
4	M	A	A	M	B	N	N	B	N	8	6	shapes	N	0	True	57	(-0.65764999058736784, 6.2892177455125982)	(6.0727606346296241, 7.0560015592637253)	(8.3936864966343769, 3.1507163892424437)	(-5.4488020403533746, 0.93091996672479915)	1.0	z	0.971408
5	M	A	A	M	B	B	N	N	A	8	2	shapes	A	0	True	57	(-1.4274109905870436, -6.656208280004253)	(4.1156244721981761, 1.1366702234425432)	(-7.4470127583750836, 0.91677131305331194)	(-8.0385509319883273, -4.1257720023597049)	1.0	slash	0.827504
6	M	B	N	N	B	A	M	A	M	8	1	shapes	B	0	False	57	(-0.95302054705311257, 5.891341984424729)	(-6.7401065048639381, 7.4183979721670745)	(4.9951703553056142, 2.4818202279823609)	(2.6891420388654268, -7.681095381462872)	1.0	slash	0.93717
7	N	B	M	N					A	4	2	shapes	M	0	False	57	(4.2478566818615011, 4.9355447271259028)	(-5.1773566329515308, -0.051239842834784)	(3.9823952343798368, -0.30654446125585366)	(-1.3871397767006686, 6.6052726925458938)	1.0	slash	1.12415
8	N	B	M	M	A	N	B	A	M	8	6	shapes	B	0	False	57	(6.6316038963913027, -3.4632319350026171)	(0.54038047792035826, 1.9081800712556873)	(8.6964966722086174, 5.0023511201767565)	(-2.6379884885223159, 7.3857972411277402)	1.0	slash	0.741761
9	M	B	N	B					A	4	3	shapes	B	0	False	57	(-6.2223668511890953, 0.95124535931686971)	(3.5422810544938397, 0.75223161217986068)	(-1.4479230562264922, -1.796473811583664)	(7.3667276809962914, -1.096542431210672)	1.0	z	1.5073
10	M	A	N	B	N	A	M	B	B	8	6	shapes	M	0	False	57	(3.5708060940684057, -2.9791908385584511)	(-8.6705341449614206, -1.5470992108666541)	(7.89919482398928, -8.2608277478875678)	(-4.2477317093938547, -3.280208635979041)	1.0	slash	0.697364
11	M	B	M	A	N	A	B	N	N	8	4	shapes	N	0	True	57	(7.8576989271708051, -6.9386430377516497)	(1.6380425018577451, -7.1771906894587492)	(-6.0248054621116598, -3.9685966468864997)	(4.4832040178293777, 4.1005277173138541)	1.0	z	0.936616
12	M	A	M	B	A	B	N	N	M	8	2	shapes	M	0	True	57	(-0.48309710612930701, -6.8753062954686444)	(-7.2360483874384727, 4.7660612976368615)	(4.3246682155067528, -1.6843631162375416)	(4.7516305608803098, -6.3033111542674529)	1.0	slash	1.47284
13	N	A	B	N	M	A	M	B	M	8	7	shapes	B	0	False	57	(3.2332304437998403, -7.5425148798077268)	(-4.874173843836342, 8.5579486659483734)	(4.9953571449958787, -2.7978736450571269)	(-6.9313827682856628, 0.5639773898958893)	1.0	slash	0.772132
14	N	B	N	B					N	4	1	shapes	B	0	False	57	(3.6207137925366517, -7.2390893881092389)	(5.4435567470762702, 3.4879632150676461)	(-0.67518857091463147, 6.78820681250129)	(-7.1282519650495448, -5.7424820590837484)	1.0	slash	0.876367
15	M	B	M	B					M	4	0	shapes	M	0	True	57	(-2.5766934738162526, 0.36287255751235747)	(-6.8332866320386616, -4.6099887848790297)	(0.13576227142096542, -6.0273815438924814)	(1.991936194161779, 7.428554423866963)	1.0	z	0.839913
16	N	A	N	B					B	4	3	shapes	B	0	True	57	(-7.3682767832648555, -0.38058451327685816)	(0.60154795556766238, 8.382556921128522)	(-3.7586821859597732, 1.9347967522863669)	(5.7072842772780241, -5.3592712997704464)	1.0	z	1.593
17	M	B	M	A	N	A	B	N	N	8	3	shapes	A	0	False	57	(5.453035906732195, -3.8194055158374587)	(-7.7426538418711823, 5.9147581654199186)	(-2.3994653420754259, 4.7718901423552005)	(6.0542333762076499, 7.8902538465667647)	1.0	slash	0.589735
18	N	A	B	M	B	A	N	M	B	8	1	shapes	A	0	False	57	(1.2914468158106409, 6.9820854131235759)	(2.0112700073196397, -3.447147273772079)	(7.0760053991265242, -3.3646127744248817)	(-2.4640340421259479, -7.8148505348281736)	1.0	z	0.973006
19	N	A	M	B					N	4	0	shapes	N	0	True	57	(0.18608473490075816, 1.8944204066479227)	(-4.6050223156132528, 2.3667468403142227)	(1.1154070784432086, -2.1542922882620372)	(-5.7713907514541596, -1.8366535171904044)	1.0	z	0.771871
20	M	A	M	B					B	4	2	shapes	M	0	False	57	(-6.2594019912673522, 1.2247185404049024)	(4.6481654960707335, -1.6502893803860754)	(3.2682953190377457, 4.3011409267857665)	(-1.4976379999464369, -4.1669091579427953)	1.0	slash	0.866023
21	M	B	M	B					M	4	0	shapes	M	0	True	57	(-3.077081238032255, -4.8341227409753449)	(5.7093336795794585, -5.0554545669355324)	(0.32083266685055101, 7.036556353271969)	(-7.7473907880405921, 7.5894560709321546)	1.0	z	0.759803
22	N	B	B	A	M	A	N	M	B	8	3	shapes	A	0	False	57	(-5.8984637925939829, 7.5925142013114844)	(0.86773173613204335, -5.196262166503324)	(-2.8759922031854019, 2.9158178010855096)	(7.9849925317821224, 5.960532628727135)	1.0	z	2.00286
23	N	A	A	M					M	4	1	shapes	A	0	False	57	(5.3794427442765258, 2.1627523729906226)	(6.8969791121209898, -7.8271024757536996)	(-0.3935030505562267, 7.5980676517560077)	(-2.1798471864422728, -6.0077208535794222)	1.0	slash	0.700359
24	M	A	N	B					A	4	0	shapes	M	0	False	57	(-5.1799764803180626, -6.7756724700704192)	(7.5788765693787887, 3.6773811031075478)	(-5.2215805945239353, 6.4228321891411202)	(7.7648671911636811, -4.826723591631664)	1.0	slash	0.768708
25	M	B	N	A					A	4	3	shapes	A	0	True	57	(1.2143446653839813, -7.552148379182448)	(4.1996625813676793, 4.4000146520257122)	(-1.389938257883677, 4.3648174780150626)	(-1.5288723277713654, -4.2748541119059347)	1.0	z	0.872284
26	M	A	A	B	N	B	M	N	B	8	5	shapes	B	0	True	57	(-4.41317419554961, -4.176814032691551)	(0.94389083226305637, -4.2966320431368974)	(0.24687213674020114, 1.0705905789085612)	(3.8452661352519399, 3.8325032996742507)	1.0	z	1.02957
27	N	B	N	B					B	4	0	shapes	N	0	False	57	(8.7008870885715766, -0.72047281237135863)	(-2.4208933607600711, 7.5232042032275892)	(-4.4776154707820002, -0.27535068567372889)	(8.4981409946377404, 5.7792668921178372)	1.0	slash	0.833604
28	M	B	M	B	A	A	N	N	B	8	3	shapes	B	0	True	57	(5.6605252339893308, -2.7718071404327347)	(8.1257351999245238, -5.9589727352915336)	(4.4499333238233998, 4.5612984043117812)	(-2.8057191166988602, 5.1747666515374693)	1.0	z	0.878485
29	M	B	N	N					N	4	3	shapes	N	0	True	57	(1.7250767303939849, -0.87820809631491681)	(-4.1467836898964112, -4.787244174690608)	(8.2716544473828897, 2.7036321724092449)	(-2.7463280657585925, 2.3596859609536711)	1.0	z	0.616847
30	M	B	A	A					M	4	0	shapes	M	0	True	57	(-5.6920046579017898, 4.5291470959453708)	(6.9626522655840155, 6.0984230759798894)	(0.88423686650466138, -7.6678201192028661)	(-8.0745513258608312, -8.3657929041971233)	1.0	z	0.728749
31	N	A	N	B	B	A	M	M	M	8	7	shapes	M	0	True	57	(7.5881740912837685, 7.1773849427988612)	(4.5934729841051656, -0.63892727856675435)	(-7.320288831226561, 5.8821543751942453)	(4.1043256407982387, -7.094347688007745)	1.0	z	1.26547
32	M	A	B	N					B	4	2	shapes	B	0	True	57	(3.3792234960166745, 1.6665909574004871)	(-0.34933332174655973, 3.5023873658639886)	(2.3890345802456636, -5.1800359619072394)	(-5.2247969204984841, -0.9652670989806662)	1.0	z	0.639255
1	M	A	A	N	B	B	M	N	N	8	0	shapes	M	1	False	57	(3.2924833134301554, 8.3990529568008832)	(-0.52441267178355311, 1.1972517926198307)	(-5.0329635865080578, -5.1740307771776672)	(-6.1439729042585141, 0.60851539011014211)	1.0	z	0.744858
2	N	B	B	M					B	4	1	shapes	B	1	True	57	(1.1618928383942357, 6.8616256200424477)	(5.5469276909255409, -8.6398122793084173)	(-8.7178290794859183, 1.2368032059872505)	(-0.18746629798565806, -6.9961423595445797)	1.0	slash	1.34256
3	M	B	B	A					B	4	1	shapes	B	1	True	57	(3.0299284177502201, -6.731280816434138)	(-4.3142845477314298, -5.8805600603712538)	(6.0665761415490369, 5.7160365508016664)	(-2.0804764007290464, 5.6292926911849879)	1.0	z	0.812796
4	M	B	M	N					N	4	3	shapes	N	1	True	57	(-6.609610231007002, -3.5140593122787243)	(5.8041200384454434, -3.2922812959663066)	(3.0726610072131759, 3.4174965646598512)	(-2.2254815078021641, 6.4973428768682027)	1.0	z	0.652581
5	N	A	A	N	B	B	M	M	B	8	5	shapes	B	1	True	57	(7.6757779308899821, 6.3679372298390611)	(6.7259265008942375, -8.2329875358104196)	(-8.6302647898790923, -1.2442015529655768)	(0.5740617290403609, 5.2628871068844454)	1.0	z	0.678274
6	M	A	A	N					M	4	1	shapes	A	1	False	57	(6.6531117783336438, -3.7659289323060392)	(5.8843106396127336, 7.5086381431952596)	(-3.7177672760931264, -6.9878072026882325)	(-6.274353487373773, 4.0096666222066926)	1.0	slash	0.981413
7	M	B	N	N	A	M	A	B	N	8	3	shapes	N	1	True	57	(6.2961818368904652, 3.582002457166908)	(2.9236701870810915, -1.5458531679659959)	(-0.31045204988094, 6.3929874061491105)	(-2.8432407541250528, -5.488939890428072)	1.0	z	0.823049
8	N	A	B	N	A	B	M	M	A	8	4	shapes	A	1	True	57	(-2.7035187647179022, 0.04999359605431053)	(8.2827203518002719, 7.6870556718448988)	(1.4995422002320069, 5.4754517488912811)	(-3.9282697129994579, -6.2381505905995507)	1.0	slash	0.781214
9	N	A	B	N					B	4	1	shapes	A	1	False	57	(0.49231487793801243, 5.6856943703324596)	(-7.3718859783210284, 4.7176499875504252)	(1.1308708112066377, -4.3081830384365922)	(-2.3934984583406163, -6.6678339388436303)	1.0	z	0.802504
10	N	A	B	A					A	4	0	shapes	N	1	False	57	(-6.0379624667224192, -8.4151381101392655)	(0.92800282892332575, -3.4851724733318772)	(-2.2990470691815306, 7.3662007219593946)	(4.8636693611963686, 0.48142336225177651)	1.0	slash	0.620462
11	N	A	A	N					N	4	0	shapes	N	1	True	57	(-3.4449138327169981, 1.8592027004640457)	(-6.06098589315443, -4.1263253412343719)	(2.8046829061439649, -8.3369159703188718)	(2.0010508612851723, 0.36123524902004611)	1.0	z	0.577984
12	M	B	A	A	B	N	M	N	A	8	7	shapes	N	1	False	57	(-1.2671204371239559, 5.7987836686799152)	(7.4576262204802717, 5.7729882531649093)	(-2.1387934577338932, -4.300555307699053)	(0.52404911202027016, 0.4592733801744302)	1.0	slash	0.985278
13	N	A	N	M	B	M	A	B	N	8	4	shapes	B	1	False	57	(8.3433071642177872, -6.5343312958415591)	(-5.7600638761670426, 8.2897672939235676)	(-1.2896533284592744, -7.7194580674361077)	(4.2497605652238128, 7.3218836151469269)	1.0	slash	0.687381
14	N	A	B	B	N	M	M	A	B	8	0	shapes	N	1	False	57	(-3.1813870623440392, -2.3466744802508455)	(2.7274250642747617, 1.63237609368203)	(6.1835545583338849, -4.0694191829864677)	(5.8020313171123021, 6.6696689501978632)	1.0	slash	1.01723
15	N	B	M	A					A	4	0	shapes	N	1	False	57	(4.9507329945502008, 6.5940712894706532)	(-3.5756605581028378, 6.3357481288675555)	(-6.1086607947677809, -4.8743704465659992)	(1.0619702848533379, -6.639709719860539)	1.0	slash	0.545852
16	N	A	M	N	B	A	M	B	N	8	5	shapes	A	1	False	57	(-7.2978312766546392, 1.9560798468137932)	(-4.0757324536300494, 6.8267054086452923)	(-7.5369201087831623, -7.7318393862385371)	(8.6463080234897696, -8.2070305799278493)	1.0	slash	0.593933
17	N	A	N	B					M	4	2	shapes	N	1	False	57	(2.836674082579993, -2.6159165403869364)	(8.0789131948547777, 3.9524252265868185)	(-0.67749917360616863, 1.7150793124894292)	(-0.46008261634670333, -6.1056207792595565)	1.0	slash	1.30136
18	N	A	A	N	B	B	M	M	B	8	5	shapes	B	1	True	57	(-7.5197942042033219, 5.8026886899999468)	(-4.7264289048632993, 0.66699660850419562)	(-6.0673889720112673, -7.6184107718518312)	(6.6605335717131275, 1.2825675938557914)	1.0	z	1.043
19	N	A	A	B	B	M	N	M	M	8	4	shapes	B	1	False	57	(6.3935440918753805, -6.0485658027978975)	(-2.3490910522598938, -4.2038783051449453)	(3.3449079640086179, -0.16554057777605102)	(-7.8926925710684834, -4.9452499346082845)	1.0	slash	0.655479
20	M	A	M	B	N	A	B	N	M	8	0	shapes	M	1	True	57	(2.3050899432203931, -4.3328939193984564)	(4.0795155035137025, 5.5745123875184284)	(-2.60353757500594, -2.8174167903627705)	(-1.0911932764666625, 4.2002097423088234)	1.0	z	0.797026
21	M	A	B	N					B	4	2	shapes	B	1	True	57	(-4.3808818657885764, 8.041002118957163)	(-2.956181624308253, -4.0115204709542942)	(7.3881385255341065, -2.8541708789854008)	(2.3478787260745655, 4.1783859344481655)	1.0	z	0.510702
22	N	B	N	B					A	4	2	shapes	N	1	False	57	(2.69933949951076, -8.558781675638043)	(-0.098397732500689727, -5.0261596305308558)	(-3.8040915910875421, 0.79500176429889713)	(5.4964374435440995, 2.2072384261438707)	1.0	slash	0.618061
23	N	B	B	M					N	4	2	shapes	B	1	False	57	(5.9995006312253931, -6.6290116184113961)	(-2.8860136308328315, 2.4075125385661202)	(-6.5737458519435128, -7.5767909302708425)	(2.52124915577261, 4.0760595231611365)	1.0	slash	0.561941
24	M	B	A	M					A	4	2	shapes	A	1	True	57	(-4.9932676931919895, -4.3472104887272023)	(0.6752763525987735, 5.4629985303306317)	(5.2333536812922254, -5.3226074093250695)	(-6.5004749718347963, 7.1657361200090204)	1.0	z	0.897747
25	M	B	N	A	N	A	M	B	B	8	7	shapes	B	1	True	57	(4.1164182580361093, 3.7442250553501388)	(7.5740226306028617, -5.4101105380762187)	(-0.91745459843581401, 2.2605274320586428)	(-2.5229846933860545, -8.6705082574609502)	1.0	slash	1.00131
26	N	A	A	B					N	4	0	shapes	N	1	True	57	(-0.49351652157468529, -4.7912376864161592)	(2.785545942041443, -1.2345246052209857)	(-6.1402648766083239, 8.2425317124399982)	(5.8702833123895477, 3.6403579514446101)	1.0	z	0.73837
27	N	A	N	M	B	A	B	M	A	8	0	shapes	N	1	False	57	(-3.0847808399009091, -0.34607812915761649)	(0.91382652180298507, 6.0599875063839246)	(-4.9034925361259347, 6.9034208956458443)	(1.5014739319660286, -7.0466664929749232)	1.0	slash	0.730705
28	N	B	M	M					B	4	2	shapes	M	1	False	57	(-6.4275467508606159, -4.8091120652059107)	(3.9076042022328341, -2.1917549863345105)	(-5.4349865721448278, 0.27412841714000535)	(1.5205110178730923, 1.0266761580294155)	1.0	slash	0.94561
29	N	A	N	A	B	B	M	M	M	8	6	shapes	M	1	True	57	(-0.34787897653057698, -0.07869007566895192)	(-6.3875975433026486, -0.79589683824982593)	(3.9402003689719809, -7.7570728334213532)	(-8.3791370029019241, 6.2326235211886782)	1.0	z	0.5694
30	M	B	M	B					B	4	3	shapes	B	1	True	57	(4.0561411961623097, -7.5281341289316348)	(-5.7025109616536929, -3.6321951897697424)	(-4.6130755598297819, 6.6405658305840287)	(5.8965762164628153, 7.429483049185631)	1.0	z	0.57703
31	N	B	A	N	B	A	M	M	A	8	6	shapes	M	1	False	57	(-7.8539913612243533, -2.2048954024410481)	(-2.8406082113828983, 8.5048277649012682)	(4.6364251869040434, 6.9957216245435205)	(-1.3783385696342396, -6.8351935216646833)	1.0	slash	0.64879
32	M	A	N	A	M	B	N	B	M	8	0	shapes	M	1	True	57	(8.5829677919196605, -3.2336647371872784)	(-0.69386131908368753, 4.437937216770738)	(-5.1563505903822335, 5.2005908342419325)	(8.5675198082678961, 7.6011533766675257)	1.0	z	0.594392
1	M	B	B	A	N	A	N	M	A	8	4	shapes	N	2	False	57	(5.7399864617412035, -7.2089378455474806)	(-6.3508488288448355, 3.2151997158852161)	(-3.3726537186931314, 0.30967215025595607)	(1.6134876369053508, 1.4534484476852825)	1.0	slash	0.560636
2	M	A	B	N	A	M	N	B	B	8	1	shapes	A	2	False	57	(-7.5983220642352842, -4.8291929912813334)	(7.7670528794543117, 0.0094907832344315324)	(-4.0151248269079076, -2.7478511367974603)	(-7.4948298949585102, 7.3250201518771938)	1.0	z	0.841698
3	N	B	A	A	N	B	M	M	N	8	1	shapes	B	2	False	57	(-8.5156857035891456, -6.4616765755046348)	(7.0951255645728128, -5.6903717874761881)	(7.8737494445873999, 1.3709346032692107)	(7.8600062120310383, 6.9626696381954165)	1.0	slash	0.589313
4	N	B	M	A	B	A	M	N	M	8	2	shapes	M	2	True	57	(-5.6299144877805531, -4.343859598448649)	(-1.7322845522051571, 8.1212937114907291)	(1.4152453235456264, -3.2688860154241643)	(6.8902505593517951, 4.4867715601285898)	1.0	z	0.674876
5	M	B	N	B					A	4	2	shapes	N	2	False	57	(1.2829743184642428, 2.2377291473058367)	(4.9182827028396456, -7.6456425684976033)	(-0.20446623684878595, -5.0080721965553003)	(-5.9831255620702084, 2.5178040017149961)	1.0	slash	0.894793
6	N	B	N	M					N	4	1	shapes	B	2	False	57	(6.3584625743544123, -2.910719074785475)	(1.2568847156555929, 3.3957630943179886)	(-7.9545839849954234, 2.4655164781261298)	(-1.9654669477828666, -7.3189156213652078)	1.0	slash	0.630915
7	N	B	M	N					M	4	1	shapes	B	2	False	57	(-8.4205782130629139, 3.5987917181433051)	(6.4715052378772224, -6.7919779497028223)	(-2.5109590916506592, -4.1721654763126423)	(1.3390001065665391, 1.7731748081264698)	1.0	slash	0.642607
8	M	B	A	N	M	B	N	A	A	8	7	shapes	A	2	True	57	(-3.5299892815906952, 5.9041245236389894)	(-8.5007936718635637, -3.4792664244220388)	(1.91790185163795, -8.5167988170649345)	(1.2350842415722454, 6.9241384360961504)	1.0	slash	0.557675
9	N	B	N	A					A	4	3	shapes	A	2	True	57	(4.0401930106783652, -2.965708665434442)	(6.9329899922450409, 8.1367311303412748)	(-6.2985331857059297, 8.6499985927333789)	(-5.4661122205267301, -0.33448801057806676)	1.0	z	1.65537
10	N	B	A	B	A	M	N	M	M	8	0	shapes	N	2	False	57	(-5.3486209410433823, 4.2278099438289356)	(8.4297155078509398, -2.7358104629951789)	(6.2290272909374025, 7.4005468318632879)	(-0.064915807394681835, 1.8117633717367791)	1.0	z	1.08157
11	M	A	N	M					B	4	1	shapes	A	2	False	57	(-8.5674278173434981, -8.2904428227396192)	(5.3603923469112917, 6.1853133746418631)	(5.3556900505864924, -8.2947250837845665)	(-1.4707552355265747, 4.4160775850109886)	1.0	z	0.656858
12	M	B	M	N					B	4	1	shapes	B	2	True	57	(-6.7935656942011153, 8.6613006632753375)	(-2.8616381726719959, -5.3429910393203555)	(4.2725948545279131, -0.41222423922204854)	(6.0445517302122784, 6.3334955907837944)	1.0	z	0.536001
13	N	A	B	M					A	4	1	shapes	A	2	True	57	(-3.0678901292935246, 8.6823079797393241)	(-3.4192394328177089, -1.1606142904201162)	(2.3436100778978588, 3.9331983190850242)	(3.5412035404374507, -5.9505272297369229)	1.0	z	0.5353
14	M	B	M	N					M	4	0	shapes	M	2	True	57	(3.2071102214971265, 5.1688303606044812)	(3.3737661922630338, -0.49223212335748023)	(-4.0034075686587833, 0.41683051507997959)	(-2.0551640617004496, -8.4110615746567348)	1.0	z	0.620188
15	M	B	M	B					B	4	3	shapes	B	2	True	57	(-8.6396419216963825, 0.403153228296528)	(-1.6331184738049735, -2.453482819695548)	(3.1673642492975578, -4.1174886009455198)	(7.4792647474346765, 2.7790452485521957)	1.0	z	0.577858
16	M	A	N	M					B	4	2	shapes	N	2	False	57	(-2.6785308130788339, -2.0226589732551066)	(5.645094219971714, 4.0307953122373661)	(8.6454945110538333, -1.3858582670913453)	(-2.9867504459902401, 6.9553877624072662)	1.0	slash	0.584933
17	M	B	M	N					B	4	1	shapes	B	2	True	57	(-1.3325055052034598, 4.1107236727467455)	(-7.0372535642116709, -4.18133772316774)	(5.9415867956434507, -3.9754076568617078)	(3.0346685583877377, 1.6927317335508221)	1.0	z	0.702316
18	M	A	A	B					M	4	3	shapes	B	2	False	57	(5.7042445448037782, 5.0321076043653825)	(5.18289201796299, -3.828423517378245)	(-4.2511421307919628, -5.5194075846876736)	(-8.0714967965324593, 4.8627928738284893)	1.0	slash	0.634648
19	M	A	M	N	B	A	N	B	M	8	0	shapes	M	2	True	57	(5.8651594194080392, -6.1042642282323358)	(-7.0469830590589257, 1.4660310349126924)	(-7.5799663722533728, 7.2089340879694959)	(-0.94535870676525491, -0.32934408192689091)	1.0	z	0.501788
20	M	A	N	B					N	4	0	shapes	M	2	False	57	(3.3551122945682188, -4.1869745939529164)	(-2.2709676291183207, 1.9652242856282225)	(1.9571690014328844, 1.4638535353040396)	(-3.5602661358526264, -4.2735807881050443)	1.0	slash	0.563999
21	N	B	B	A	A	N	M	M	N	8	0	shapes	N	2	True	57	(6.4349896873739851, 2.8070284549317321)	(-8.4448768183576828, -4.389444863779139)	(-3.4899579516230697, -1.1980683770505909)	(6.4766861807724005, 8.5896906603686816)	1.0	z	0.549992
22	M	B	B	N					A	4	0	shapes	M	2	False	57	(-7.5560305426447592, 4.1764157872544221)	(1.5177599585094725, 6.1416346383159048)	(-8.5783580020060359, -3.4157071629995581)	(0.68198073311551077, -4.0804288643009325)	1.0	slash	0.551592
23	M	A	B	B	M	A	N	N	N	8	1	shapes	A	2	False	57	(0.93864168938935322, 0.097799044306668748)	(0.59244586334299321, -6.4839914449929408)	(-6.8110580568801105, -2.2080874862765683)	(-3.3322882503255, 0.3416191741219663)	1.0	slash	0.683082
24	M	A	B	A					B	4	2	shapes	B	2	True	57	(4.1541586877066692, 2.0992901696996764)	(8.1479741360233504, -8.5781529986296459)	(-6.7568904798684351, -2.9211430269759031)	(-4.3150366845432311, 0.36624221327944184)	1.0	z	0.476204
25	M	A	B	M	B	A	N	N	B	8	2	shapes	B	2	True	57	(6.7592994355890195, 4.4388871921627349)	(-0.79019860032422073, 2.0557383687531896)	(-5.7656884415340741, 6.3196476965342008)	(2.6294393819115918, 5.4378120611300567)	1.0	z	0.797703
26	M	B	N	N	B	A	M	A	A	8	2	shapes	N	2	False	57	(-1.0189825232730385, 4.6655603598323534)	(4.4264946003267038, -1.2249741490200305)	(-6.8508151004271021, 8.5482363756791067)	(5.8149263785139738, 7.759714118284549)	1.0	slash	0.727992
27	M	B	B	N	A	A	M	N	N	8	3	shapes	N	2	True	57	(8.6682118270103174, 8.2948416879677112)	(6.1781834530890762, 3.0418820251525993)	(-2.6702881183360603, -3.0643652894121667)	(-7.3075091828544281, -7.9926909739602658)	1.0	z	0.513653
28	M	B	A	A	N	N	B	M	A	8	2	shapes	A	2	True	57	(-0.81909338575711832, 6.2544898577006371)	(-1.7959413769702346, -2.7588599496706818)	(6.5935418832054467, 8.6639938854323759)	(8.2254496531951524, 3.0561731398102427)	1.0	z	0.666703
29	M	B	B	N	N	M	A	A	N	8	4	shapes	N	2	True	57	(1.0011688265308756, -6.7166911457286229)	(-2.7690080090750397, 2.7929915589605656)	(1.9868051717707012, -2.4966114185325337)	(-6.9755876143808653, -3.9576187471595841)	1.0	z	0.744834
30	M	B	A	M	B	N	A	N	N	8	4	shapes	B	2	False	57	(-3.225801661849701, -6.1246974121116438)	(-7.2960813059363083, 3.211492271608023)	(0.12324760596778006, 0.11461030434499797)	(-0.0518471694066438, 4.7902099700197489)	1.0	slash	0.52641
31	M	B	A	M					M	4	3	shapes	M	2	True	57	(2.3878113589465748, -1.9422128489584765)	(-4.3827279090881053, -1.3673577049540011)	(4.6643440824662079, 5.2684288905515189)	(-0.25531013314895112, 1.1749321554531171)	1.0	z	0.621828
32	N	A	B	M	A	N	M	B	A	8	7	shapes	B	2	False	57	(-8.6711977496199353, 2.4789654936686905)	(-1.0121240745905808, -0.15434684992142067)	(5.1998973153764823, -8.4537173014952014)	(5.8458294524100349, -2.9827482531099383)	1.0	z	0.477689
1	N	B	N	B	M	A	M	A	A	8	7	shapes	A	3	True	57	(-4.0673084882277397, 8.1920585455955006)	(5.572150304732375, -0.8303692220752783)	(3.8679413493973414, -8.0548494006293314)	(2.0929681499518971, 6.0681301105859511)	1.0	z	1.05758
2	M	B	B	A					M	4	2	shapes	B	3	False	57	(5.1470438170825954, 8.5324498885083671)	(-4.4029263502397589, 8.0755122218890385)	(-1.917353464579187, -7.8320958979430619)	(6.8115167533579601, -1.6983941041686084)	1.0	slash	0.567098
3	M	A	M	B					A	4	1	shapes	A	3	True	57	(6.2825530216525394, -0.54966151969121135)	(0.75403171027778271, 5.8420134564082016)	(-3.3169570585369055, -3.4457491035680867)	(-2.5923508749270576, 8.4234028812489932)	1.0	slash	0.777149
4	M	B	N	B	N	M	A	A	M	8	7	shapes	A	3	False	57	(5.7915419830114594, -3.6034966756977997)	(-4.4352355118654918, -5.2633953574651855)	(7.6834859077047426, -7.3226511819342033)	(-5.3796173583139293, 7.6912508909437456)	1.0	z	0.562159
5	N	B	A	M					B	4	3	shapes	M	3	False	57	(3.0750065362080612, -5.6519226136955387)	(-7.3463877349778262, -4.2565663200990729)	(-2.4162253834492446, 2.2855129309746491)	(4.7799527573171208, 2.3142881461069091)	1.0	slash	0.562364
6	N	A	N	M					A	4	1	shapes	A	3	True	57	(-0.79899608453725701, -3.3907389021844008)	(4.9605947740996843, 7.6806226017399908)	(-7.3424413296461122, 8.0462783520287857)	(4.1686579137864612, -2.0230375061386034)	1.0	z	0.779481
7	N	A	A	M					B	4	1	shapes	A	3	False	57	(-5.3390861118976094, 0.025214995375975491)	(4.2121471107392843, -4.4203733759459682)	(2.0429313367929876, 0.25617148612676921)	(-5.5248998950819637, -6.7465918225603723)	1.0	slash	0.575719
8	M	A	A	B	N	B	N	M	B	8	5	shapes	B	3	True	57	(0.26577761133271949, 5.7039228192245286)	(-3.9177486936205677, -4.6617019976648706)	(-3.7485795817634413, 7.0108490216383874)	(1.0739645971349603, -7.9233123154122538)	1.0	z	0.582867
9	M	B	A	M	B	A	N	N	M	8	6	shapes	N	3	False	57	(-7.1344039420927832, 2.3167507177314288)	(7.8414080278201936, 4.3828362261076688)	(1.0878980293794118, 6.4637547873860459)	(-4.1182231785960042, -1.4497361312444372)	1.0	z	1.92519
10	N	B	B	A					B	4	2	shapes	B	3	True	57	(-4.4468992323661034, 4.9166063328909786)	(6.3829994454767185, -4.2649046865695484)	(6.1469171087403289, 6.3869250887048814)	(-1.9808081769614452, -1.5219721307731024)	1.0	z	0.388611
11	M	B	A	A	N	B	M	N	B	8	2	shapes	A	3	False	57	(6.0305180854975386, 1.1798372122476533)	(0.17443534418706008, -6.9190042508844618)	(-2.502137698398136, -2.2972543436357018)	(-7.2088190581650498, -1.7028275418383014)	1.0	z	0.955873
12	M	B	A	B	M	A	N	N	N	8	1	shapes	B	3	False	57	(6.3287371837378483, 0.007386198170980407)	(3.6534459731446525, -6.099948768970016)	(8.0438519874403234, -6.7219996744819008)	(-2.8325599789454792, -7.4595069206497815)	1.0	slash	0.568004
13	M	A	M	A					M	4	1	shapes	A	3	False	57	(3.6747746192130251, -7.3273037013214903)	(-6.8798630863171759, -1.0032971744115677)	(1.2156536538496283, 6.1747388802429892)	(-3.10163389473471, 7.9660928315844615)	1.0	slash	0.575188
14	N	A	M	M	N	A	B	B	M	8	4	shapes	N	3	False	57	(7.0890446528997852, 8.2691551008566435)	(4.1884112858867901, 4.3753084417258226)	(-2.1250240500758695, -4.1017485165344363)	(-6.7672223348099454, 1.6622917431666675)	1.0	z	0.849174
15	M	A	M	N					A	4	2	shapes	M	3	False	57	(1.528845534900551, -6.1799372228290146)	(1.4379006009735473, 8.0433750216886644)	(-1.5016981118539316, -0.12737026135732066)	(-5.9022003868455686, 0.96356424074548386)	1.0	slash	0.600479
16	N	B	B	A	N	M	A	M	B	8	1	shapes	B	3	True	57	(3.7726538887367074, 0.76155766516107093)	(2.2330954183469256, 7.4002273768845193)	(-3.3519107737417331, -0.75517643634296228)	(-3.9748035568983111, -6.485547992684694)	1.0	z	0.85316
17	N	A	B	M					M	4	2	shapes	B	3	False	57	(-0.098047355210860943, -4.6213107784824645)	(4.5569482547120632, 0.91122281914596748)	(-4.4315791011732433, 3.3670995633806307)	(3.7297721371219428, -6.1768359872160357)	1.0	slash	0.537743
18	N	B	A	M	M	A	B	N	M	8	7	shapes	N	3	False	57	(-3.5173570520622057, 6.099447492841632)	(-6.6538320773465713, -6.3228532677396192)	(0.44335663490913291, -6.2536318816779009)	(1.5244999832441763, 5.6559344623759937)	1.0	slash	0.673143
19	M	A	A	B	N	M	B	N	M	8	0	shapes	M	3	True	57	(-6.5606506048966899, -1.123961515786478)	(-2.7739294845574403, 6.7652867365118929)	(5.3570466858375259, -5.6477099616174025)	(-3.3151819974068992, -8.3175706377242342)	1.0	z	0.694995
20	N	B	B	A					A	4	2	shapes	B	3	False	57	(7.2601450647740968, 2.5701122858764975)	(-1.2735566421465734, 2.7860658705454266)	(0.021488030469116737, -1.9120257019908307)	(-6.2090964102470192, -6.162199335586128)	1.0	z	0.892797
21	N	B	M	A	M	A	N	B	B	8	7	shapes	B	3	True	57	(0.82831995387434176, 6.8133093872087738)	(6.0890435596542023, -4.8782662979741414)	(4.9826830600057157, 1.2731204841346813)	(-4.9437575820009529, 4.4920046151304227)	1.0	z	0.662532
22	N	B	A	A	B	N	M	M	A	8	4	shapes	B	3	False	57	(-8.471627439492508, -5.8182307283283565)	(7.263691358233423, -1.1237525000867592)	(6.6808136442646138, 7.8043432373370756)	(5.2291739179444452, -7.1435157113405179)	1.0	z	0.726654
23	M	A	A	B	M	B	N	N	B	8	4	shapes	M	3	False	57	(6.1505374411936788, 7.0984927330336074)	(-2.9748525611682259, 7.3255299330933283)	(2.1673543749226329, 8.2749991424856439)	(2.3393153494845027, -7.5838575660036192)	1.0	slash	0.543609
24	M	B	B	M					M	4	0	shapes	M	3	True	57	(2.5386142357748724, 5.1487782281273109)	(-3.7957957687894446, -7.516732044082322)	(-0.85909180644807837, 2.2454711422868439)	(7.7038653282838219, -2.4692025014231183)	1.0	z	0.62983
25	M	A	M	A					A	4	3	shapes	A	3	True	57	(3.3785066341602654, 1.1933933965113219)	(-5.2427040139325012, 7.1878022169434281)	(-1.3701343660501379, -2.4532022583199176)	(2.8554269415195055, -6.3664220799098095)	1.0	z	0.544755
26	M	B	B	A					N	4	0	shapes	M	3	False	57	(-8.7292131272192108, 5.7986815199652906)	(1.775609089440005, 6.600877737462179)	(8.4388708706144619, -3.5236528755929744)	(-5.1054859491393971, -3.763049355207249)	1.0	z	0.695849
27	M	A	B	A					B	4	2	shapes	B	3	True	57	(-6.5429462033174994, -5.0902035695816696)	(-2.9723516875534814, 6.7243123184672751)	(4.1418969067198681, 3.6629249471264238)	(1.4592804427984412, -0.090091029879882711)	1.0	z	0.854541
28	N	A	M	B	B	M	N	A	B	8	4	shapes	B	3	True	57	(-5.3379522125108299, 0.50486370662636659)	(-2.6316494897065628, -7.6920781639260021)	(7.1752434798211109, 7.7572686478598953)	(-7.9324292176085276, 4.067271456440535)	1.0	z	0.734713
29	M	A	B	M					A	4	1	shapes	A	3	True	57	(-5.4842698802654333, 0.21487422183298577)	(-7.9806951666168455, -5.4976090882130215)	(2.4686608822863807, 4.5096971425729198)	(5.6472922185095324, -6.1633872214504244)	1.0	z	0.541934
30	M	B	A	B					A	4	2	shapes	A	3	True	57	(-5.6301289352245449, 1.2984606398216822)	(-1.4317178947152627, -7.2251884817605045)	(3.073734247400207, 1.1900417869201529)	(3.463561203655523, -6.7596962912429115)	1.0	z	0.587268
31	M	A	M	B	B	A	N	N	M	8	2	shapes	M	3	True	57	(-5.0505367835964954, 1.346856116031109)	(5.9790390868393697, -1.0872613867047294)	(-0.10303307095831826, 4.4634161395387242)	(1.1600713663767195, -1.3398045296375276)	1.0	z	0.63314
32	M	B	B	M	N	N	A	A	M	8	3	shapes	M	3	True	57	(-0.8728674594367094, 2.5690532953693985)	(-1.4590400638485992, -5.9743076601767804)	(6.7885658599164422, 1.9970262587258478)	(-6.9870293621603139, 0.72397135351708997)	1.0	z	0.512793
1	N	B	N	M					M	4	3	shapes	M	4	True	57	(-3.1909265543424432, -0.84157120314504574)	(7.6446421523935051, -3.1659192256425337)	(-1.8472274277358753, 3.8806954410300243)	(7.6052220938255424, 7.5717958227568296)	1.0	z	0.43892
2	N	A	N	A	B	M	B	M	N	8	3	shapes	A	4	False	57	(-5.5544052042037926, -3.3198162617161415)	(-8.2254023799766767, 3.1415966209592359)	(6.08737703793566, 6.2152971808663224)	(-4.6673284127272607, 7.7963301320781611)	1.0	slash	0.67466
3	N	B	M	A					A	4	1	shapes	B	4	False	57	(-8.4276447128067389, 7.1299106657046529)	(5.5674998864042706, -3.8778674341940667)	(4.194267095366488, 7.5807898751382794)	(-2.9002857839445459, -1.5768934750583803)	1.0	z	0.57833
4	N	A	B	N	M	B	M	A	N	8	3	shapes	N	4	True	57	(0.64140272683543031, -8.6806394580236503)	(7.0137553075771635, 2.0704068896061383)	(4.041839200097268, -1.3641016009611517)	(4.1090449777062759, 6.6973894810143264)	1.0	z	0.465337
5	M	A	B	N	N	B	M	A	A	8	4	shapes	N	4	False	57	(8.5802320522671103, -6.4956768606535693)	(-2.7956347667022658, -0.34206414657141515)	(-8.2244428325207597, 0.37116527419740741)	(7.7206057260234573, -1.6985084489779183)	1.0	slash	0.607118
6	M	B	A	B	N	A	M	N	A	8	2	shapes	A	4	True	57	(-3.4021429680273183, -6.2690723696856185)	(-6.9769042303052515, -2.1377228915319755)	(-4.3401917822036395, 2.0386693363242578)	(0.13864965701528575, 2.0434821574901001)	1.0	z	0.430863
7	M	B	N	N					M	4	0	shapes	M	4	True	57	(1.4567184339935224, -6.9329811046211907)	(5.9207225659613982, 2.1593130047872275)	(-2.9193463707999925, -7.5678665712985502)	(-3.5228251715707355, 7.7649530335885935)	1.0	z	0.554714
8	N	A	B	N	M	M	A	B	N	8	1	shapes	A	4	False	57	(-2.3511518929953921, -4.8693377885477558)	(-3.0087709580217554, 4.0202805464123514)	(-7.4504560976627658, 8.651367724725894)	(7.5817139854748632, 1.800066481464631)	1.0	slash	0.590013
9	M	A	M	B	A	N	N	B	A	8	5	shapes	N	4	False	57	(-8.3199487764610627, 8.6575205404342341)	(3.879647328639841, -1.8272340241112177)	(-3.7160169477127436, -1.8594419998357195)	(8.4500096725206433, 4.4379811908527884)	1.0	slash	0.627871
10	M	A	N	B	M	A	N	B	M	8	4	shapes	M	4	True	57	(5.9242310918167913, -3.3519885668357858)	(-3.3192053638098864, -4.1584933375554218)	(-5.4225764087311141, 0.33078793810623708)	(7.5592655750073163, -7.9629817364854185)	1.0	z	0.67996
11	M	A	M	B	B	N	N	A	A	8	6	shapes	N	4	False	57	(6.1020570154161913, 4.4053060697852384)	(-3.687580629000605, -8.7490318075705567)	(-2.6612209880102169, 8.6106514214983676)	(7.4641088390805983, -1.2075070821440335)	1.0	slash	0.473446
12	N	B	B	N					M	4	2	shapes	B	4	False	57	(1.6372207350853358, -7.1639586655980141)	(-4.1924557295546467, 1.4922904347241435)	(-6.7146386219367979, -7.0439246632846082)	(3.6559172806832407, 2.5543109630387146)	1.0	slash	0.660714
13	N	A	A	M					M	4	3	shapes	M	4	True	57	(-2.9181904008903681, -7.2174262580302404)	(2.8415776627796632, -0.43436680905428737)	(-6.2045296466574147, 2.5758817605651263)	(5.2836555394057996, 6.0412849414409653)	1.0	z	0.586396
14	M	B	M	N					B	4	1	shapes	B	4	True	57	(1.2192406330702656, -2.635855936659989)	(8.5775535631540656, 1.0818239005703205)	(-2.5831360831390162, -7.9771986486470787)	(-2.71457835131012, 6.4691221365864546)	1.0	z	0.320242
15	M	A	N	M					B	4	2	shapes	N	4	False	57	(-0.58251216539551187, 7.5166567667035409)	(7.6156969106672427, -6.143864005482035)	(4.687902538663872, 5.1912822683105961)	(-2.9782676803329649, -7.6398481046867381)	1.0	z	0.0423679
16	N	A	N	A	M	M	B	B	N	8	0	shapes	N	4	True	57	(6.0542852081354503, 6.2542572903166533)	(-1.3316113785321715, -6.0798321250390455)	(7.8308210335228665, -0.40864432705454412)	(1.7995711190369903, 3.8251607422087197)	1.0	z	0.675607
17	N	A	M	N	A	M	B	B	A	8	6	shapes	B	4	False	57	(-1.9924460268126767, -4.6061183254508542)	(-8.030043745693602, -3.2626686577130473)	(8.5121266285218837, -8.0150358454414796)	(-6.1660937528434143, 4.767026695282194)	1.0	z	0.824303
18	M	A	N	A					N	4	0	shapes	M	4	False	57	(-7.0377420704505473, -6.7180980053062171)	(-4.6784728207287296, 6.6054210600092702)	(8.6680234974986341, 3.4047717273389981)	(1.3048795825790567, -6.8945319829416363)	1.0	slash	0.547564
19	M	A	N	A	N	B	M	B	N	8	4	shapes	N	4	True	57	(7.8564939493293693, 8.6631953309385388)	(-2.0240740512589097, 1.5590950662683554)	(-6.0035944567026496, -0.96863865567953322)	(7.7991021205322468, -0.80518584241214874)	1.0	z	0.489129
20	N	B	A	N					A	4	2	shapes	A	4	True	57	(-6.8489796445128519, -4.2112109469389933)	(-0.91273197754107827, 0.71762364296271919)	(7.0489384297461726, -3.3582733204716213)	(1.7137125491671004, 8.5700698578444552)	1.0	z	0.832166
21	N	B	A	M					A	4	2	shapes	A	4	True	57	(2.1207342903849273, 2.5266643458859797)	(-2.124912078774388, 4.0786292102150021)	(7.7122790310717519, -4.1038813714662741)	(-5.9197699194636719, -0.70908938306461522)	1.0	z	0.724701
22	M	B	M	N					B	4	1	shapes	B	4	True	57	(8.2825691605910485, 3.4908938778938339)	(-1.6510596561646205, 0.37406512390210622)	(-7.6729072895899071, -2.2309338901540485)	(3.3138895196036273, -0.78401112037261989)	1.0	z	0.662025
23	M	A	A	B					B	4	1	shapes	A	4	False	57	(-7.8822463885060348, 2.4740103526164869)	(-1.7438797322319086, -1.4016105193001467)	(3.7153955997681916, 5.7300986267193039)	(7.9032193744609778, -1.6615367722241752)	1.0	z	0.570948
24	N	B	M	A					B	4	0	shapes	N	4	False	57	(4.797069508349141, -1.0323900193084752)	(2.0818021780548115, 7.2854698487522889)	(-5.1800026393162781, -7.9769414666839706)	(-7.627070464016807, 6.9422642950646356)	1.0	slash	0.442986
25	M	B	M	A	N	N	A	B	A	8	2	shapes	M	4	False	57	(4.801279215380502, 6.9344685270032347)	(3.0959984270458438, -2.1047963260614067)	(-4.7251963514926194, 6.7077142873365858)	(-7.7407991941882059, -8.0002566694040453)	1.0	slash	0.837313
26	M	A	N	A	N	B	B	M	A	8	3	shapes	A	4	True	57	(1.4298855275538997, 1.2695288795860016)	(8.5921880562081441, -7.865773344946879)	(-2.4818868591379895, -4.6004581712869532)	(5.7273122989271936, 6.7319184167670212)	1.0	z	0.728031
27	M	A	N	A					A	4	0	shapes	M	4	False	57	(8.3305160266212752, 6.94798042552687)	(-2.1559156302305871, -6.3166659669910032)	(-0.57789314771147104, 7.0281375996708597)	(5.6326396501513685, -7.2678447647911115)	1.0	slash	0.606881
28	M	A	N	A					A	4	3	shapes	A	4	True	57	(4.1208936659071469, 4.9026335954828735)	(-7.610378624270143, 4.5266889990950716)	(-2.3521342999387818, -8.1779913540372675)	(5.5683622643913733, -5.1155898368833608)	1.0	z	0.678134
29	M	A	B	B					N	4	3	shapes	B	4	False	57	(-4.9038651444128325, 7.7457636871397035)	(-8.1110445752562992, -4.8612722739381979)	(0.50718449538214117, 4.7622676713736531)	(0.057218021944327901, -5.6121119884315886)	1.0	slash	0.559251
30	M	B	M	N	B	N	A	A	M	8	0	shapes	M	4	True	57	(-5.0525094248265852, -5.3367578130422899)	(2.7105692095976934, -6.6962715206009715)	(8.5571416358226031, -3.3649422903195774)	(1.9021100770445614, 1.0742627991886256)	1.0	z	0.86491
31	M	A	B	M	A	B	N	N	B	8	0	shapes	M	4	False	57	(-3.2594098989571396, -4.8993716659914881)	(3.5939610648260416, 1.2505882081419593)	(2.5660799712215621, 7.9748501604523092)	(-7.5189519875879895, 1.263680224957076)	1.0	slash	0.703142
32	M	A	M	B	A	B	N	N	N	8	7	shapes	N	4	True	57	(-6.9259794668726951, -3.8083299582320818)	(4.7868220823652869, 7.2010724832409654)	(-2.583896121245445, 5.0890730137499958)	(-7.5801253600112339, -8.5442563628406951)	1.0	z	0.646722
1	M	B	N	A	B	A	M	N	B	8	4	shapes	B	5	True	57	(8.6340775006396022, -4.6882448602909994)	(3.573389574690955, -7.462590545057215)	(2.8052456058206126, 1.7962118949215498)	(4.5733908855934438, 8.447235599613137)	1.0	z	0.819789
2	M	B	A	A					M	4	3	shapes	A	5	False	57	(2.4657697057607955, 7.721852502901811)	(-8.1717759453065177, -0.32019541165754539)	(7.6106190929302038, -4.7664272414857685)	(-0.40784579971858115, 1.547274774839865)	1.0	slash	0.505953
3	M	A	A	N	B	B	M	N	N	8	7	shapes	N	5	True	57	(3.0264909225991321, 8.4430749207911262)	(6.2881378559841483, -4.6698078675364645)	(-0.69613188226712808, 6.4624460952498826)	(-2.2408193888843382, 2.3394145650242404)	1.0	z	1.43769
4	N	B	A	A					B	4	3	shapes	A	5	False	57	(8.341027866735331, 5.138339970462301)	(6.1333489016929352, -3.134527089900649)	(-8.6534155282502248, 4.2568241077418882)	(-6.9795960503897714, -2.8944709007423057)	1.0	slash	0.766619
5	N	A	B	A	M	M	N	B	N	8	0	shapes	N	5	True	57	(-4.9134370786348107, -3.0787944052843796)	(0.11501386989974272, -2.0233033047365101)	(1.4505297384101077, 8.5861383999667531)	(-3.3822661322352472, 2.9752077818572733)	1.0	z	0.664412
6	M	B	M	B					M	4	0	shapes	M	5	True	57	(-5.1009797338617027, 2.9953211374961732)	(2.3438303003949699, -2.2171021552880976)	(-8.0806579444130104, -7.9249270760713175)	(2.0969198650949359, 4.6255330610311809)	1.0	z	0.887036
7	N	B	M	B					A	4	3	shapes	B	5	False	57	(-0.34519311360105398, 4.5483662153217033)	(3.4024839306720516, 6.1838960780241603)	(5.2669371613443712, -0.61959716526180308)	(-8.4222208019633076, -1.1047091835207778)	1.0	slash	0.728103
8	N	A	M	A	N	B	B	M	M	8	6	shapes	B	5	False	57	(6.2709281724405344, 6.1852464771729796)	(2.2843666465599526, 1.4120110085942468)	(1.1496754142459267, -2.7607585173224276)	(-4.9010701863885426, 1.397501586443088)	1.0	slash	0.608239
9	N	A	B	M					N	4	0	shapes	N	5	True	57	(5.9038046545623661, -2.7292857731487894)	(-2.1351747016357754, -6.8909506027887355)	(-0.29020547733291302, 4.4759379840616003)	(6.1664783149942615, 8.1553562965543627)	1.0	z	0.647706
10	M	A	A	N	B	B	N	M	B	8	0	shapes	M	5	False	57	(-3.723915150709221, 1.9522311478814913)	(-6.4747049327614885, -3.5993389647107561)	(0.27055017332424214, -4.0872873869616893)	(6.8883433335385398, -5.4029055722230286)	1.0	slash	0.617446
11	N	A	M	A					A	4	1	shapes	A	5	True	57	(-2.0179524425471751, -5.1498872520953283)	(-1.8724456696211664, 2.5018873462412561)	(5.1890121226068082, 3.0964748947413074)	(2.5025274944280405, -8.0259267683421669)	1.0	slash	1.05443
12	N	A	N	B	M	B	A	M	B	8	0	shapes	N	5	False	57	(3.598627569457916, 5.263533806361206)	(-2.9906301104078867, -8.5876456573101372)	(-7.2873663230128161, 1.5206496448529574)	(8.302247341677738, 2.2957636483160737)	1.0	slash	0.741821
13	M	A	M	B					B	4	1	shapes	A	5	False	57	(5.4847785029344394, -0.80281755153799139)	(-0.57742402357706801, 5.5281933913398493)	(-4.1594477982327955, -7.6254345920971911)	(5.1331421147718821, 6.7813344191943141)	1.0	slash	0.547472
14	M	A	A	M	B	B	N	N	A	8	6	shapes	N	5	False	57	(-5.8673337426417094, 3.8345402103375505)	(-1.5151023542677642, -2.4151271970024961)	(7.8248695037570961, -3.0581613726953618)	(-6.1691930417150562, -3.6317830120471299)	1.0	z	1.32914
15	N	B	B	N					B	4	3	shapes	N	5	False	57	(-5.989091447462318, 2.2676482497840826)	(-1.9035479172404246, -4.0388312697144242)	(7.2037673612308311, -5.8169610883565284)	(5.9836272987371881, 3.1070626410484845)	1.0	slash	0.927643
16	M	A	N	A					M	4	0	shapes	M	5	True	57	(-1.8017127863833329, -7.5684443760785243)	(1.6567728702722917, -5.5342108963349856)	(-6.7334222486402968, 4.1825515887680016)	(8.3719746508648036, 3.7905036443352635)	1.0	z	0.792585
17	N	A	N	M	A	M	B	B	M	8	1	shapes	A	5	False	57	(-3.1454246771283207, -7.6671756922518064)	(6.2896060082077057, 0.11957785030452328)	(7.675941159716416, -3.798134624856254)	(-0.86451909807561123, 4.6988517003021979)	1.0	slash	0.563886
18	N	A	N	A	M	B	B	M	A	8	1	shapes	A	5	True	57	(5.966129905193899, 6.0406013118981683)	(-7.3797186983357941, -3.827082384676757)	(3.9275074578201892, 1.7305931205417657)	(-8.2845979629500093, 0.74083783175721507)	1.0	z	0.629979
19	M	B	N	B	A	N	A	M	B	8	4	shapes	A	5	False	57	(5.0681824116880083, 1.4581276283756317)	(-1.7526658693859485, 7.9977577722542392)	(3.3670701074885017, 6.0943153651632205)	(1.6254684391058518, -4.3655452678921671)	1.0	z	0.627531
20	N	A	N	A	B	M	M	B	M	8	6	shapes	M	5	True	57	(2.4800452544638265, -7.815196694180778)	(8.1492473330694146, -8.295541153499661)	(-3.4116735939649034, -4.8342787230825106)	(-7.7979081349846462, -5.3153248384594667)	1.0	z	0.711658
21	N	B	M	M					M	4	2	shapes	M	5	True	57	(-0.076488067358928546, -2.4652247620263932)	(-8.1036500745293463, 3.168370280858273)	(5.4551064371512492, 5.5652874684338229)	(8.4659147483152815, -0.80880688406208012)	1.0	z	0.515759
22	M	B	N	A	M	N	A	B	M	8	2	shapes	N	5	False	57	(2.3609445399261411, -5.5977931937996672)	(4.4853093580752077, 3.5154551891158032)	(-5.8737632413401926, -8.5195679416034604)	(2.4790835707581387, -1.516699506951916)	1.0	z	0.703032
23	M	A	B	B					M	4	0	shapes	M	5	True	57	(5.6254224121585992, 2.4563602420086816)	(6.9351970547096542, -4.3531200459825605)	(-5.2297215267591071, 1.4210632512552728)	(-2.47839284197706, -8.4016874902629226)	1.0	z	0.396736
24	N	A	M	N					A	4	1	shapes	A	5	True	57	(-8.6858571776079962, 2.0610226737887256)	(-3.8889332112548978, -1.1954237024012011)	(1.3573615352258166, -7.5872860140297238)	(4.8460833321702808, 1.8130760331240268)	1.0	slash	0.472381
25	N	A	M	A					M	4	0	shapes	N	5	False	57	(-4.3001582327631915, 4.080388478856138)	(6.7555689199269775, 4.0331251350530497)	(-2.183913611563816, -1.1242098258552824)	(5.2123825610014656, -5.7636929825784424)	1.0	z	0.604104
26	N	A	A	N					A	4	0	shapes	N	5	False	57	(-4.5198375377279598, -2.288158119862687)	(4.6306134762917228, -8.6448613713498048)	(4.2937983502601096, 0.83542747669195805)	(-4.0520291306128868, 5.3977005226444685)	1.0	slash	0.661871
27	M	B	A	B					N	4	0	shapes	M	5	False	57	(-1.1126643766561823, -4.0969248132384219)	(7.6727084613334249, -3.8053172828888293)	(7.3309095833772453, 4.2097586819769823)	(-0.58942169103947073, 0.22910892051282872)	1.0	z	0.675384
28	N	A	B	N	M	B	M	A	A	8	7	shapes	A	5	True	57	(7.7134923520347023, 7.9227455535249156)	(0.061985027480513821, -0.12154608194952665)	(7.3525365764858783, -1.7984535587709916)	(-6.9008451843297482, -4.1508224416922337)	1.0	z	1.05446
29	M	A	M	B					B	4	3	shapes	B	5	True	57	(3.0363757953401489, 3.2314511233149474)	(-5.1785339022786463, 5.5545416006762416)	(-8.7240881678673858, -4.8882822723336226)	(0.80286203184229166, -6.9760503326281675)	1.0	slash	0.946363
30	N	A	N	M	M	B	B	A	B	8	0	shapes	N	5	False	57	(-2.4856192076095871, -2.0337877642213229)	(6.9999536597695489, 3.4282447309486255)	(-3.324181597429539, 4.1099779076069076)	(0.045892602996296716, -5.6672722268868476)	1.0	slash	0.598756
31	N	B	N	M	A	B	A	M	A	8	6	shapes	A	5	True	57	(1.4026763963173536, -6.3932852756701397)	(5.596863728615757, 6.075012402793071)	(1.0982434668254495, 6.1685638720303952)	(-4.6435322088579705, -1.5961465257539391)	1.0	z	0.786185
32	M	B	A	N	B	M	N	A	M	8	0	shapes	M	5	True	57	(8.4312556563302188, -7.4928234164642316)	(7.2039719981688481, 0.257182213762988)	(0.69861118228993213, 2.0464608783508389)	(-4.7815892355503937, -2.7128133746445071)	1.0	z	0.565243
1	N	A	A	B					B	4	3	shapes	B	6	True	57	(0.87868574620922502, -5.8753954529407375)	(4.770135569543223, 7.7659289664377411)	(-1.8268186891440141, 0.98792062983222628)	(-4.164622353764341, -7.9930345511412391)	1.0	z	0.48293
2	M	B	M	A					A	4	2	shapes	M	6	False	57	(3.2208259118028337, 7.8428086433703648)	(-1.7194563230671314, -5.4346812839408898)	(7.6503312374171415, -0.072843883472229365)	(-4.3601553484371749, 4.1772680671426947)	1.0	slash	0.676513
3	N	B	M	M	B	A	N	A	A	8	4	shapes	B	6	False	57	(-5.683592007811554, -3.9825011262298533)	(3.2923309265972591, 0.66297255056038829)	(8.3199113043160402, 3.3430838316929723)	(-7.767682049346055, 7.6748954985213693)	1.0	z	1.85618
4	N	A	N	A	M	M	B	B	M	8	2	shapes	N	6	False	57	(7.2451978836921977, 1.1663711394096747)	(5.5547164573323382, 6.502412497509015)	(5.2374980967315974, -4.4852195728166544)	(-4.2861470929073748, -0.84668583065669889)	1.0	slash	0.64811
5	M	A	N	A	N	M	B	B	N	8	5	shapes	M	6	False	57	(-2.164577886328205, 2.5704063770857246)	(-5.7991326147284585, -3.4010508615042756)	(7.0529004250831626, 6.02095023789823)	(-2.8504702981796033, -8.7485230573445634)	1.0	slash	1.10775
6	M	A	A	N	M	B	B	N	A	8	1	shapes	A	6	True	57	(3.7699486845171286, -0.49171149305390749)	(-0.70678300261970328, -6.0341982104231118)	(-4.6626330068184849, -4.4658373818551995)	(0.37992517579699836, 5.4715425643840252)	1.0	z	0.729733
7	M	B	N	M					N	4	2	shapes	N	6	True	57	(6.4045020232673764, 7.402975723329817)	(6.6557865783936379, -2.3994804478782603)	(-8.3382021017877097, 2.5112538365085619)	(-8.2283720967144767, -7.0697094578600055)	1.0	z	0.473369
8	N	B	M	B					M	4	1	shapes	B	6	False	57	(7.2246797424417988, -1.5497111870707894)	(-5.8072688802238179, 7.9803740980710494)	(5.3833527522825104, 2.0362237507521126)	(-8.3336267397371557, -4.2049942759618171)	1.0	slash	0.508968
9	M	B	B	N	N	A	A	M	B	8	2	shapes	B	6	True	57	(1.9885433580276377, 0.7024965147329727)	(1.7535207319213075, -3.4830877305406975)	(6.3215207166297347, 5.2911289501955316)	(-3.2971364734944357, -7.0442020368054514)	1.0	slash	1.58461
10	M	A	N	A					N	4	0	shapes	M	6	False	57	(0.64965998611539888, -6.4437961487091835)	(5.4151035318411029, 7.6877986224888986)	(-7.5245988257174385, 3.2258166519437239)	(-8.4725814078765929, -4.7048950479921565)	1.0	z	0.686281
11	M	B	B	M					N	4	2	shapes	B	6	False	57	(-1.1944611843551476, 7.4935322410103815)	(5.0310212255983213, -7.5370261817872191)	(6.3477091140265056, 6.4616515286961427)	(-2.8040283213986514, -7.0550726804412953)	1.0	slash	0.543369
12	N	B	M	A					A	4	3	shapes	A	6	True	57	(-7.9622147050668133, -7.1504429476553693)	(5.359734938690961, 2.1252453512337883)	(-7.7260940606053783, 5.7559064774540811)	(0.22072397477248451, -3.1688212464458196)	1.0	slash	1.0351
13	N	B	M	B	M	A	N	A	A	8	1	shapes	B	6	False	57	(-1.1993716567918895, 3.6075942714004618)	(-5.6342033879455071, 7.9781348383581197)	(0.09853883654188067, -7.5613824151954017)	(8.7079093303932389, 0.2110505321835312)	1.0	z	0.814673
14	N	A	B	B	N	M	M	A	N	8	0	shapes	N	6	True	57	(6.4228411004939261, -2.9582833406295395)	(-4.0016890729745498, 6.9236990956900399)	(-7.4883037882907129, -2.3232214614418076)	(4.5947086716136312, 2.2543177304735504)	1.0	z	2.10414
15	N	A	M	M	N	B	B	A	A	8	1	shapes	A	6	True	57	(-7.0775629830415605, -3.0679170536386273)	(1.1482831925498083, 1.5625374220219914)	(-0.23533305619845457, 5.5263207758279442)	(1.8725291910834727, -6.1789459661237922)	1.0	z	0.886609
16	M	B	B	M	A	N	A	N	M	8	6	shapes	A	6	False	57	(7.4571249619151452, -4.7747491445596983)	(-2.5947395473789578, -2.1468438825266345)	(-1.8433635900137135, 5.6873508745609822)	(-7.1490046588940341, -5.6712956827121204)	1.0	slash	0.631516
17	M	A	N	A					A	4	1	shapes	A	6	True	57	(2.5957478749267828, -2.0909843637774008)	(-4.1555419903584481, -2.8614426534581341)	(6.4062741579354849, 4.7870382894374242)	(-8.5127369758723752, 4.482927119380836)	1.0	z	0.627824
18	M	B	M	A					A	4	0	shapes	M	6	False	57	(0.66221465112862887, 2.4027466079457014)	(8.6932062433265287, -7.1038663116891261)	(-4.8425913603721717, -2.4593238072934396)	(-4.1481776141010434, 5.2730518898687038)	1.0	slash	0.536933
19	N	B	N	B					M	4	0	shapes	N	6	False	57	(-3.9616633277890543, 0.04295320956124371)	(6.9637036433964905, 1.7280500015178344)	(-2.6596501927951177, -5.729527129915601)	(7.2488579271879257, -4.6740756847950751)	1.0	z	0.552358
20	N	B	A	N					A	4	2	shapes	A	6	True	57	(-5.4596971918722161, 5.8810179641565252)	(8.7085455200041437, 3.5166158460406614)	(-3.382010839086135, -4.3512217538234346)	(2.0907579936079959, -0.37181025371609522)	1.0	slash	0.756208
21	N	B	B	M					M	4	3	shapes	M	6	True	57	(3.6697333820482054, -7.824352477592587)	(1.7692458739894157, 7.188094456087132)	(-5.2897075202904524, 0.95588153416551691)	(-2.6073438955582677, -3.1333135486671875)	1.0	z	0.61605
22	N	B	B	A					B	4	2	shapes	B	6	True	57	(-6.8366523034944153, -6.1008379417779439)	(-3.9122262932156477, 7.9810045588761618)	(1.7544617045004358, -0.11292227981949665)	(6.6902741715768137, 6.3023255321405554)	1.0	z	0.557451
23	M	B	M	N					M	4	2	shapes	M	6	True	57	(6.9413732914579427, -0.73218474873353401)	(-6.7571762481449253, 8.7362342689602812)	(4.0865882970568137, 3.2760302206886962)	(-1.4954205861763485, -6.4798815986131295)	1.0	z	0.519176
24	M	A	A	B	B	M	N	N	M	8	4	shapes	B	6	False	57	(2.1706368188355949, -7.655328208264188)	(-8.4549586270004955, -1.1475572791309352)	(-1.5796610863393381, -2.3839285508541295)	(4.6166908375234357, 4.7056635570855665)	1.0	slash	0.735391
25	N	A	A	M					N	4	2	shapes	A	6	False	57	(-6.7345525734917224, 6.8975582667667847)	(4.1233946855763595, -6.8565269707793535)	(3.5554577900571172, 6.7604082764140614)	(-0.81935135970367678, -8.7496807657014521)	1.0	slash	0.644686
26	N	B	A	N	B	A	M	M	A	8	2	shapes	A	6	True	57	(-5.1151278835425655, -8.2740866148153724)	(-6.5114664212281452, 2.0290400836130065)	(0.27676278708070434, 5.3364518761922479)	(5.7467070903397168, 3.3708096961449172)	1.0	z	2.31677
27	N	B	B	M	M	N	A	A	B	8	2	shapes	B	6	True	57	(4.2460339152607904, -1.302889259009171)	(-6.2860401022992853, 6.7845455164422699)	(1.8708128205532546, 4.5261561071660328)	(-8.0593131633760962, -4.5037598498971807)	1.0	z	0.727408
28	N	A	N	B	A	B	M	M	B	8	3	shapes	B	6	True	57	(-2.0450778795532987, 5.9561776148461423)	(6.6228295048557069, 3.4626801545532793)	(0.26876223846093872, -4.9167660665921122)	(-6.8457023122955629, -2.4392649752548801)	1.0	z	0.849701
29	N	B	N	B					B	4	0	shapes	N	6	False	57	(5.8194716063720922, -3.2682009179767908)	(-6.6872890469345538, 7.7549922622063612)	(1.3204859872380634, 4.9711855268706042)	(-6.8297837491886453, -1.440733098178673)	1.0	slash	0.841841
30	N	A	A	M	M	N	B	B	B	8	0	shapes	N	6	False	57	(2.0969959098005084, -3.111865166563998)	(5.8450555189166931, 1.9702380346389283)	(7.2487955756313269, -7.0568984913440191)	(-5.8194379176827571, -7.4786636590689488)	1.0	slash	1.64653
31	M	B	N	A	M	N	A	B	A	8	1	shapes	B	6	False	57	(5.6111867364177765, -3.6717553469266679)	(2.368780623417555, -0.64801671041659503)	(-1.4962178211826158, 2.7460757396137634)	(-3.1238009759779883, -6.3997840907765617)	1.0	slash	0.878881
32	N	A	M	N	B	M	A	B	N	8	0	shapes	N	6	True	57	(4.9002143949139967, 7.459985262835886)	(-2.2223145696922115, 0.79674484653719446)	(-0.26206652427603316, 6.727138306502745)	(-1.0047398772549272, -6.9146383104376259)	1.0	z	0.664441
1	N	A	N	M					A	4	3	shapes	M	7	False	57	(7.7731279026245801, -8.7353529050966614)	(2.9062400271115383, 6.5888244127945015)	(-5.3766385147521492, -8.3919090170966317)	(-7.0767725926861242, 4.4918760006885172)	1.0	slash	0.511574
2	M	A	A	N					A	4	2	shapes	A	7	True	57	(-2.5325302068045037, 6.5536654080121348)	(6.6751377224370376, 7.420431868961753)	(-4.9598793656299662, -5.4766508305953838)	(1.6389624376439649, -5.1594508543083348)	1.0	slash	1.15371
3	N	B	A	A					M	4	1	shapes	B	7	False	57	(8.411919081618553, -4.1864481302456387)	(-0.35898329713297983, 0.80283918716884273)	(-7.8991261604254746, -4.7106250214364067)	(5.0985333699577016, 0.62383596014296572)	1.0	slash	0.611423
4	M	A	M	B	B	A	N	N	B	8	1	shapes	A	7	False	57	(-6.9209392460053145, 7.8178049337500575)	(3.1772921522393478, -7.1598158624946571)	(5.4707204203419177, -0.61119573823479278)	(-6.0648947083919946, -6.3026606862819357)	1.0	z	0.748524
5	N	A	N	A					A	4	2	shapes	N	7	False	57	(1.6381930239886717, -6.4875296353541554)	(-4.2970391218013342, -8.3813005311708082)	(-6.8832413765217462, 7.3093367494073043)	(8.5781074439615672, 6.9717408438687087)	1.0	slash	0.577372
6	N	A	A	B	B	M	N	M	B	8	4	shapes	B	7	True	57	(1.1913383177968164, 0.069514182484322617)	(0.93145059137462738, 4.8981049502315344)	(5.9054874031729518, -1.0582684406989031)	(2.0423836549224195, -7.315474842296358)	1.0	slash	0.656495
7	N	A	A	B					B	4	3	shapes	B	7	True	57	(-2.6720135188522152, 4.2969640541281944)	(-5.8068320886767726, -5.2813187863251896)	(0.55997095358966753, -5.3148931458304833)	(3.6333662125751776, 1.5448076213900386)	1.0	slash	1.46955
8	M	B	M	B	A	N	N	A	N	8	0	shapes	M	7	False	57	(4.6645376467899133, 3.0409868052594131)	(-3.891545361847486, -6.3089899012344528)	(3.4406177731566903, -4.5840055953152437)	(-2.5496664490393304, 5.3037346169667021)	1.0	slash	0.699888
9	N	B	M	N					N	4	2	shapes	M	7	False	57	(-5.2179433861911075, 4.4532661538249361)	(-4.2025869419835065, -5.9508698058012417)	(0.32880444165994582, 0.13466183318986147)	(7.8936117083833395, -2.0544534666355538)	1.0	slash	0.608631
10	M	B	B	A					A	4	3	shapes	A	7	True	57	(4.3997447328484718, -2.7210017079201867)	(-6.171876503909572, 0.53988657092900105)	(-0.99085884457183582, -7.0154497711242882)	(2.8883019708033597, 2.7201629214973124)	1.0	z	0.92848
11	N	A	N	B	M	B	A	M	N	8	0	shapes	N	7	True	57	(1.5280779812926557, -3.8131229317706534)	(-2.3251781335514421, 2.5263208846025709)	(-3.9652271547885896, -6.0964393338718228)	(8.0268012254911056, 0.021811342625149166)	1.0	z	0.570698
12	N	B	A	B					B	4	3	shapes	B	7	True	57	(7.2352319793978932, 6.8702021648113245)	(-0.1087959829488927, 6.0707383705550697)	(6.6981037646183843, -2.1357463840472866)	(-2.1151679824955956, -4.6031186438373002)	1.0	z	0.826429
13	M	B	M	A					B	4	1	shapes	B	7	True	57	(3.2446316073449388, 1.4896273377176357)	(-5.4041650153120742, 3.6524195955117111)	(1.9668981295005796, -7.1700419328662948)	(-6.5756432191804599, -6.0454958219343986)	1.0	z	0.583837
14	N	B	M	B	M	N	A	A	B	8	1	shapes	B	7	True	57	(4.7636029378269669, -4.6648069053306465)	(-8.5503749264817497, 6.3793447627699713)	(7.6632001366925344, 0.080874020659770451)	(-3.4334909422085165, -0.49561633345956579)	1.0	z	1.01981
15	N	A	A	M	M	N	B	B	A	8	1	shapes	A	7	True	57	(5.5676485737613, -3.316379410584668)	(-3.9569056604718416, -7.1679941676139833)	(4.2021858526226428, 5.2331314431626659)	(8.4014090264613444, -7.8156528784532524)	1.0	slash	1.34142
16	N	A	N	M					A	4	1	shapes	A	7	True	57	(0.36889999791395667, 4.8210750570676755)	(5.4937007261750281, -8.6167339707308699)	(-3.0821435157034882, -0.98867525041064575)	(-6.5111341347815825, 5.686123412687218)	1.0	z	0.634405
17	M	A	N	A	B	N	M	B	M	8	6	shapes	M	7	True	57	(-8.7258461239319001, -8.2326152803988002)	(3.0270764721605676, -2.7900755921595319)	(-2.1290802078904854, 6.3528478607949346)	(-4.9005097692824116, 0.67187041746252163)	1.0	z	0.664632
18	N	A	M	N	A	M	B	B	M	8	0	shapes	N	7	False	57	(-5.667838388777569, 7.2142961867257327)	(5.4832231477959734, -3.4904077802003846)	(2.6114999108793064, 6.9572187038196311)	(-1.3514662841630933, -5.5604258822391266)	1.0	z	0.939839
19	N	B	M	N	B	A	A	M	N	8	1	shapes	B	7	False	57	(3.6032014122824432, -0.017653576976341512)	(6.3401655588039709, -3.4664746140488978)	(-2.8706094765151331, -6.389736397956872)	(-8.5760945257648018, -7.6710978088961301)	1.0	slash	0.811404
20	M	B	M	A					N	4	0	shapes	M	7	False	57	(4.0632041250087614, -2.2300422480909896)	(-6.355619821631227, 8.6228862256513068)	(7.3340331266644512, 3.7010310209977337)	(-2.720806285403607, -7.9792916499579745)	1.0	slash	0.0177891
21	M	B	M	A	A	B	N	N	M	8	4	shapes	A	7	False	57	(3.1926730998205599, -2.5219053780834226)	(-4.8193231505990664, 5.674482130088375)	(-5.9696628082603551, 0.24551305799312217)	(-1.7908731373536213, -8.0426552541434528)	1.0	slash	0.571417
22	M	B	M	N	B	N	A	A	N	8	1	shapes	B	7	False	57	(6.5419649818924022, -6.2612518267154158)	(5.8783920618349139, 1.3371119028714968)	(-5.7400806195967444, 3.822505362292274)	(-1.1895523637404173, -0.45532569819031821)	1.0	slash	1.26024
23	M	B	N	A	A	B	N	M	N	8	2	shapes	N	7	True	57	(-2.0580948523012594, -0.11039255896249855)	(1.6430146388429705, 6.1171283291377136)	(-0.21915129298569802, -6.0665593866052676)	(-4.5139494455172953, 3.707355063686208)	1.0	slash	0.937618
24	M	A	B	M					N	4	2	shapes	B	7	False	57	(6.840243056929447, -1.8371948017058939)	(-7.6429950569566447, -4.743486578240975)	(6.9508569135713358, 7.3394174162628367)	(-2.7050827331049421, 8.685108447560193)	1.0	slash	0.703126
25	M	B	M	N					A	4	0	shapes	M	7	False	57	(0.71555592990143602, -0.17801143536681074)	(-0.63081869109106492, -5.0307692462042297)	(-0.64134654151835413, 6.3534839598249224)	(6.2532206367214282, 6.0941354441819726)	1.0	slash	0.683627
26	M	A	B	M	B	N	N	A	B	8	2	shapes	B	7	True	57	(6.6454586565986418, 7.5800428644279307)	(-6.7884610178872951, -1.6581474047678491)	(4.7550304150240521, -2.9461327180640886)	(-5.7469005919788909, -7.715568022128533)	1.0	z	0.551246
27	N	A	M	M	N	B	A	B	A	8	0	shapes	N	7	False	57	(5.0678045075414655, 7.8051096644010123)	(-6.245613944095636, 5.8909255455547083)	(2.2571917938123214, -1.1536837740799379)	(-0.12122324340838908, 5.4377712094156436)	1.0	slash	0.645898
28	N	B	B	M					N	4	3	shapes	M	7	False	57	(4.6828551028590564, 5.7790811809457061)	(-4.2849053517087192, -0.62025132968203955)	(-4.0910624472627637, 6.252107857746724)	(4.8224878577694241, -3.4305704936612953)	1.0	slash	0.652292
29	N	B	M	M					M	4	2	shapes	M	7	True	57	(6.7689511326547436, -7.6447553191481727)	(5.5562260466902256, 3.9412288973836915)	(-8.5943566985105662, -4.8861341384459536)	(-4.6323094156546958, 6.0863755945095832)	1.0	z	0.810133
30	M	A	M	B	B	N	A	N	B	8	4	shapes	B	7	True	57	(6.7048258536215375, 5.4294009190123784)	(-4.5025943882404951, 0.23910634901447736)	(2.2345665915698127, -6.1679623252030016)	(-5.0225080768123469, 8.7396876630032949)	1.0	z	0.468531
31	N	B	M	A	A	N	M	B	B	8	6	shapes	M	7	False	57	(6.7697220745463014, -2.3375923113775805)	(-0.64115270229833143, 3.6482988106314416)	(7.6193182963118957, 2.6922835244540906)	(-1.6602031018816445, -5.7995106599906903)	1.0	slash	0.713953
32	M	B	B	N					N	4	3	shapes	N	7	True	57	(4.741447908849576, -3.3755355289066244)	(-3.8505441523679647, 5.8248089557949676)	(1.4521425487263855, 1.7666137143108074)	(-3.1353648326849139, -8.0762611079436084)	1.0	z	0.548826
1	N	A	N	A	B	M	B	M	N	8	1	shapes	A	8	False	57	(-4.8564645133722539, -8.007044399409617)	(0.26044063350073721, -4.5153389541910807)	(4.5018007450403914, 5.224448198417587)	(-7.945187530691455, 6.6176697870883405)	1.0	slash	0.919338
2	M	A	M	B	A	B	N	N	B	8	3	shapes	B	8	True	57	(-0.64021242971090153, 1.6466583680038624)	(-7.9653639286994231, -0.6240798331675883)	(-8.4795907823129291, -8.2802399245743796)	(3.3625802772501299, 1.2274156767967881)	1.0	z	0.874382
3	N	B	B	A	M	A	M	N	A	8	4	shapes	M	8	False	57	(-4.9522223224380584, -2.6654645625117235)	(8.5312059631302937, -4.6405960342311516)	(-7.2859535432748004, 7.3620666741913503)	(4.0232037603568784, -6.6850516593253877)	1.0	slash	0.548641
4	N	B	M	B	M	A	N	A	N	8	5	shapes	A	8	False	57	(2.3910719202623412, -3.0069463319671081)	(-3.8965556593345134, -1.4933384759550075)	(2.8583974807764907, 8.6829980839752636)	(-1.2476033172020902, 7.6922729806533567)	1.0	slash	0.508334
5	M	A	B	A					B	4	0	shapes	M	8	False	57	(-5.1641026331541831, 5.7564634944250734)	(5.5133673733077817, -6.7846125424469781)	(-5.8805334389905859, -2.3105311999237843)	(3.341147865098602, 7.5360701827766405)	1.0	slash	0.669824
6	M	B	M	B	N	N	A	A	N	8	0	shapes	M	8	False	57	(-0.46303795865497399, 0.98215542345969808)	(7.1296740956835194, 6.1909947631206865)	(-7.7881028748009618, -7.3413091833340731)	(-3.3154875554417611, -3.5312591326080742)	1.0	z	0.816747
7	N	B	A	A					B	4	1	shapes	B	8	True	57	(3.9205655235884436, -8.1465641641048361)	(1.9983788994064611, 2.503157445519264)	(-6.278087640889038, 8.3251849503832815)	(-7.9256464215020594, -8.5151910499883314)	1.0	slash	0.622565
8	M	B	A	B	A	N	N	M	N	8	6	shapes	N	8	True	57	(-0.19723434255244143, -6.8159416111698654)	(4.0263617544963548, 8.6934127842257602)	(-6.3858675486412046, 4.8483052906202868)	(3.6175109386665554, -1.5819814531214522)	1.0	slash	0.567031
9	N	A	A	M					A	4	1	shapes	A	8	True	57	(4.8164009466704218, -4.3932259446040112)	(-7.8053880467228911, 1.3733295810107347)	(-5.9330654368278495, -4.9808956274665519)	(1.0815198907722561, 3.788010349685818)	1.0	slash	0.694029
10	M	A	A	N	B	M	N	B	M	8	0	shapes	M	8	True	57	(-0.42632450448981096, -6.0260826537979133)	(3.7333552390365039, 2.6775599347551253)	(-2.7335030258510926, 8.3871866374061383)	(-7.5982081246176509, -7.9248902601259568)	1.0	slash	0.877647
11	M	B	B	N					M	4	2	shapes	B	8	False	57	(-8.6779319415180201, -1.4814232878082976)	(-0.49643234620774201, 6.1869777317200523)	(7.9398444773143417, 1.0841917608795839)	(5.3238341015875399, -7.4429355704777427)	1.0	slash	0.607257
12	M	A	N	B					B	4	3	shapes	B	8	True	57	(-8.3463159695743983, -0.072493884561753319)	(8.3176593220420258, -4.2647237640810083)	(5.4527061308396938, 3.1004004660041584)	(-0.27247391480654493, 2.9769737865896762)	1.0	z	0.433569
13	M	B	N	N					N	4	3	shapes	N	8	True	57	(-6.3233522049106128, -5.0101892502027958)	(1.6625128421195328, 1.6332525836970433)	(3.6760507612777555, -4.8994897286836689)	(-6.4935953215486126, 8.5945892809761517)	1.0	z	1.00339
14	N	B	M	M					M	4	2	shapes	M	8	True	57	(-8.5927649881157482, 1.4426163803511152)	(4.9469860284036891, -3.1550094247085507)	(4.9467976754359313, 8.1156199869340924)	(-6.0175499573674234, -3.070052858188661)	1.0	z	0.612678
15	M	B	B	N					M	4	0	shapes	M	8	True	57	(5.6981016474179089, 8.4427471819010229)	(-7.145268525444628, 8.2834466543569221)	(-5.8190599995660932, -5.5252987954010004)	(7.7787685617961166, -2.8343603445558596)	1.0	z	0.580423
16	N	A	A	M	M	B	B	N	M	8	4	shapes	M	8	True	57	(6.9227851191708805, 8.6212327416030305)	(7.5782765407173827, 1.6660725158595415)	(-1.4415462736946685, 5.0247095247158295)	(-5.1476153350668454, 2.903011007660524)	1.0	z	0.717793
17	M	A	M	B	N	N	B	A	A	8	4	shapes	N	8	False	57	(-3.7144808153213544, -3.9108889823443169)	(5.6878244892433028, -3.9244049428329699)	(5.9185797738682417, 1.0459248624438313)	(1.4088989916734338, 1.9759931112334765)	1.0	slash	0.577875
18	N	B	N	A					M	4	0	shapes	N	8	False	57	(0.79770523091268153, 7.8173366337261889)	(-4.0776468303619318, 3.6684132959297333)	(1.4684345815252779, -5.5036529735904951)	(-4.1692920999773575, -2.400254273292723)	1.0	slash	0.463677
19	N	B	B	M					B	4	1	shapes	B	8	True	57	(3.8766687427801987, 1.4373582306108901)	(-4.0286839603073572, 0.54878041835464941)	(0.40014288707613943, -4.835614887523306)	(-7.1761102019074663, -5.3835432350325689)	1.0	z	0.933279
20	N	B	B	M					A	4	2	shapes	B	8	False	57	(6.4137443844880533, 3.2122558925071409)	(-6.3499606228019854, -1.2458320287114208)	(3.4866008085736517, -7.8047575715772606)	(-2.777942379981706, 4.3429906795704927)	1.0	z	0.772802
21	M	A	M	A	N	N	B	B	M	8	2	shapes	M	8	True	57	(-4.4932939117196202, 4.4595056629625809)	(-2.7457368223741714, -8.6195860428859614)	(-4.1915087473516524, -3.7751476077023947)	(6.0552840302279041, -3.1977671119245565)	1.0	z	0.476567
22	N	B	B	A	M	N	M	A	A	8	7	shapes	A	8	True	57	(-5.2924532029960059, 3.9166506658595246)	(-2.9506442047896595, -4.3976361904358319)	(5.1508242118982714, -5.2041658914470208)	(-0.89064949698807894, 3.1976303426875639)	1.0	z	0.679646
23	M	A	N	N					A	4	0	shapes	M	8	False	57	(-7.2312183254173341, 4.4161863411570348)	(5.4327684885733234, 0.54557915541104762)	(-8.1103680026497216, -6.8712376196846918)	(4.9358523492966313, -7.9667037215128351)	1.0	slash	0.761747
24	N	A	N	B	B	M	M	A	A	8	7	shapes	A	8	True	57	(-3.6642700569725619, -4.5539405375824487)	(5.7053133901092945, -2.1001082458169549)	(-0.2153588543967011, 6.0747169036526678)	(6.1644160422614132, 5.9611186767847535)	1.0	z	0.53931
25	M	B	N	M					B	4	3	shapes	M	8	False	57	(6.7351102773363696, 0.72157987149424585)	(1.4764223049580103, -5.1912925479404217)	(-3.5946780770354563, -0.19614953524179768)	(-8.3538633105333719, 7.6913566288362993)	1.0	slash	0.800268
26	M	A	M	B					N	4	3	shapes	B	8	False	57	(-7.8489634670697512, -7.9722724363533155)	(1.3875362045452242, 4.3998519276692587)	(-6.2499761368737126, 7.2990509867561464)	(6.6179614401975826, -8.3448347184281957)	1.0	slash	0.770445
27	N	A	A	M					M	4	2	shapes	A	8	False	57	(-1.1511568088489108, -8.4970145186268624)	(8.3612571990302698, 5.7166940079102524)	(8.1652437437938374, -5.524626185295336)	(-5.5614724206198174, 5.4944374929591184)	1.0	slash	0.552464
28	M	B	B	M	N	A	A	N	N	8	5	shapes	A	8	False	57	(-4.6740849049745696, -8.7289066161453928)	(1.7599801961790131, 1.7228844534142667)	(-8.2885506134128075, -4.3112921552133177)	(0.23790388377164895, -7.5137918393440959)	1.0	slash	0.877815
29	N	A	M	N	M	A	B	B	N	8	6	shapes	B	8	False	57	(4.5685884346258803, -0.77987262963228243)	(-3.3682894470446074, 6.6198284943045902)	(6.5879657165055985, -5.5563427567461714)	(-6.4523538990181795, 3.6742341840288706)	1.0	slash	0.923251
30	N	A	M	M					M	4	2	shapes	M	8	True	57	(-3.0276560742376697, -4.6101195796774679)	(-8.6046886611141424, 7.3269007460724005)	(1.6387409190132232, -1.7045905195870326)	(1.2354926475553505, 8.3201709162294435)	1.0	z	0.994807
31	M	A	M	B	B	N	A	N	M	8	0	shapes	M	8	True	57	(2.8961534409866108, 0.50932707808912525)	(-6.8686718716376598, 1.7019210679132701)	(-1.4852016029840858, -8.0851767842065225)	(4.1029113767545038, 5.4934845838434097)	1.0	z	1.5046
32	M	B	A	M	B	A	N	N	B	8	6	shapes	N	8	False	57	(0.87358629261484033, -3.2959615825927102)	(4.5937857217519351, 6.007669771511166)	(-7.1048578336224697, -7.7181465028557099)	(6.0512343710867924, -7.2913117856459069)	1.0	slash	0.806183
