TrialNumber	stim0	stim1	stim2	stim3	stim4	stim5	stim6	stim7	stim.probe	ttl.stims	corr.num	trial.type	stim.corr	block	match	Subject	stim.pos0	stim.pos1	stim.pos2	stim.pos3	ran	resp	RT
1	M	B	N	B	A	A	N	M	B	8	3	shapes	B	Practice	True	58	(-6.9647272410663597, -8.7212005371181132)	(-5.3335286675942459, 8.4182524025741827)	(7.2931923489841282, 1.7632175771524263)	(-4.5643442059941819, -3.1966254063415729)	1.0	z	4.60564
2	M	B	A	N					A	4	0	shapes	M	Practice	False	58	(-8.1219209056966122, 8.020985853639246)	(3.501634181327562, 6.1912384811213261)	(6.625914963950418, -5.7079845472814421)	(-5.7427767961127865, -8.3253906312536969)	1.0	slash	4.41494
3	N	B	A	A					A	4	2	shapes	A	Practice	True	58	(-8.2311296041993813, 7.8562714147051054)	(-3.9881090581190319, -7.8900036991039642)	(2.1466924971726282, 4.1939505950083049)	(3.7071379459066289, -3.8066444470740137)	1.0	slash	2.54078
4	N	B	N	A					B	4	1	shapes	B	Practice	True	58	(5.1803011046665155, 0.06529641806766584)	(-4.5851090979731932, 0.11942685187382018)	(-7.8183003867745846, -6.7125583675759799)	(7.7963451791502365, -6.6277655131749427)	1.0	z	1.25936
5	N	A	B	N	B	A	M	M	N	8	2	shapes	B	Practice	False	58	(5.2642836089084533, -7.8968959524150604)	(-3.6146360864094085, -7.8407690746392165)	(-0.19131348449157315, 3.5429610509269551)	(-5.6420420864017862, 5.2987523733099096)	1.0	slash	2.00355
6	N	B	N	A	A	M	M	B	N	8	5	shapes	M	Practice	False	58	(0.91675514479715403, 2.0961484016619281)	(-6.6045260736068716, -0.56623586248432467)	(0.25680378458807418, -8.1926954319210843)	(3.2094019897940154, 7.5424615932020309)	1.0	z	1.08706
7	N	A	B	N					A	4	0	shapes	N	Practice	False	58	(3.0719702805711631, 8.7076467412942264)	(2.629122717972983, -0.082986758034261143)	(-6.8076903017113111, 8.0844115740470102)	(-7.4763323478225665, -3.4196012085178173)	1.0	slash	1.80725
8	M	A	B	A	M	N	B	N	N	8	5	shapes	N	Practice	True	58	(7.142020919785331, 7.4588671189348581)	(-3.0515224730394035, -5.7576545434230813)	(-1.8553748648311545, 6.4947151806052261)	(3.4510294796753271, -5.0505400012471977)	1.0	z	1.87215
1	N	B	B	N	M	A	M	A	A	8	5	shapes	A	0	True	58	(-7.2329887563629143, -6.3893041096700429)	(4.9343299306529893, -2.7671872380566525)	(0.5985609505574061, 4.739853015229885)	(0.020797497489699168, -0.36318110817647131)	1.0	z	1.13943
2	M	B	B	A					A	4	2	shapes	B	0	False	58	(-7.343287008714972, -8.1626124443673191)	(-4.3586018867132177, 1.369205006006343)	(1.4915886064379009, 3.7490921228071752)	(3.3167022871599556, -1.4388510574205124)	1.0	slash	2.07256
3	N	A	B	A	M	B	N	M	M	8	2	shapes	B	0	False	58	(7.7025626191272103, 6.3172589465871685)	(-6.4447314914707405, 2.9344824540958552)	(6.0703026888465548, -6.7947308969835589)	(3.4500889634088647, 2.8487556898488311)	1.0	slash	1.36402
4	M	A	M	N					N	4	2	shapes	M	0	False	58	(3.7867555969885522, -0.066089105475871435)	(-7.8256294815372298, 1.741239659787567)	(6.1038895895588965, 7.1949060248081267)	(-1.8670741627637435, -8.6322990349168336)	1.0	slash	0.489691
5	N	B	A	B					A	4	2	shapes	A	0	True	58	(0.13193743295115645, 1.643132674067683)	(-3.2579857938840329, 7.0547869387356155)	(-7.3644570855697511, -3.1993696882718412)	(6.3174298861873446, -7.0687079182509169)	1.0	z	0.865844
6	N	B	A	A	M	M	B	N	A	8	2	shapes	A	0	True	58	(7.3892912716803316, -6.1520294954318979)	(4.7075456079766944, 2.4803191021327287)	(-3.7273839647024882, 5.8373592133431114)	(-0.32942527016585821, -1.3646285523210864)	1.0	z	1.36166
7	N	B	M	A					N	4	0	shapes	N	0	True	58	(-4.8131240207270647, 2.5017130231105629)	(-0.98491846342476563, -8.7384187218826614)	(3.3562071626730905, -1.2779731738417555)	(1.3970944214070684, 7.2422715663954804)	1.0	z	1.05859
8	M	B	N	M					M	4	3	shapes	M	0	True	58	(-7.2545276478279561, -0.77805860039540597)	(3.2384509578576548, 0.5895325413743624)	(-8.5541440864358051, 3.7444334387377829)	(2.1114580750449097, -7.0608985649182419)	1.0	slash	0.694348
9	M	B	B	N	N	M	A	A	M	8	3	shapes	N	0	False	58	(4.2807205047776247, -8.476173224706999)	(-4.5862466218100595, 2.416587960572846)	(7.2394579054150299, 0.43149541794799084)	(-1.039426175694369, 6.42130950372011)	1.0	slash	1.07832
10	N	B	B	N	A	M	M	A	N	8	0	shapes	N	0	True	58	(-2.9000330849153748, -7.4089058683078672)	(3.4124272068905555, 3.2235176354415263)	(7.3488642762770873, -6.6454149159867697)	(7.4600391454257355, 5.3246657319352249)	1.0	slash	0.911543
11	N	B	N	A					N	4	0	shapes	N	0	True	58	(3.094943772691348, -0.60514674142199176)	(-3.3617387637312479, 7.1313506402620082)	(7.0521150880119521, 3.5220087136638885)	(-2.6611473379781376, -3.4000752230093285)	1.0	slash	0.675687
12	M	B	B	N	M	N	A	A	M	8	4	shapes	M	0	True	58	(1.8298010487914862, -7.3260490240892517)	(-1.0463930621303801, 0.78520699615229006)	(6.5476289557885146, 4.5749763933835865)	(-1.9100802717228946, 8.129439100407204)	1.0	z	1.01546
13	M	B	N	M					M	4	1	shapes	B	0	False	58	(1.6193936877219617, -6.4067956146186287)	(-8.394954363577348, -1.9083185682231045)	(1.195376545331527, 3.600134414141813)	(-4.865531729262714, 1.2993833090791149)	1.0	z	1.25028
14	M	A	M	N					B	4	1	shapes	A	0	False	58	(1.5066383794720402, 0.25770216106378108)	(-0.90737579725958462, 4.8049740073845797)	(0.53685414035183321, -4.6626327170786919)	(-5.2031677894527046, -7.7619669761893215)	1.0	z	1.16003
15	M	A	B	N					A	4	3	shapes	N	0	False	58	(-6.4038280616094294, -7.9200449630834138)	(2.2936564427645827, -7.9879742124071349)	(-1.5133049334830613, 6.3992358555000965)	(3.3090842645537322, 3.0107620976353573)	1.0	slash	1.07146
16	M	A	A	M	N	B	N	B	N	8	0	shapes	M	0	False	58	(0.63695795914672182, -3.17593246837622)	(4.4720776316537325, 2.9593085499130645)	(-6.2167711889272095, -8.1481216948846615)	(8.7156076549241561, 5.6608679800414787)	1.0	slash	0.789468
17	M	A	B	A	M	N	N	B	M	8	0	shapes	M	0	True	58	(2.5407379680000854, -8.4000753351346091)	(0.80505263793373594, -2.2293002543847962)	(-8.604869889221753, -4.1059661603715449)	(2.9693409512911, 5.884903237219552)	1.0	slash	0.50703
18	M	B	N	M					B	4	1	shapes	B	0	True	58	(-5.9141194580164127, -2.2362892152653417)	(0.64530665692902822, 7.9190442027506371)	(3.5117387676629797, -8.7306005704581295)	(-7.9578895000923255, 2.9574001318303988)	1.0	z	1.38272
19	M	B	A	N	A	N	M	B	M	8	5	shapes	N	0	False	58	(-5.787030186038745, -5.821547586304785)	(3.7266256855572948, -0.4698035614792655)	(5.9379309853098814, 4.9316822520298906)	(-2.1407645388712107, 5.2479218629526319)	1.0	slash	0.974689
20	N	B	B	M	A	N	M	A	B	8	7	shapes	A	0	False	58	(4.6863369141710951, 8.2548361152362517)	(3.9497178184800195, -6.5004285909714028)	(-8.6887016172500502, -4.8730660513666288)	(0.76822073307542915, 0.82246538099571076)	1.0	slash	1.32452
21	M	B	N	B					M	4	0	shapes	M	0	True	58	(7.0140778793338345, -3.0279282838688708)	(5.0569208452634431, 3.2802082958481869)	(-8.7350066567925531, -5.6303453096937623)	(-1.3384941312768701, 6.2068021145641463)	1.0	slash	1.25167
22	M	A	N	A					A	4	1	shapes	A	0	True	58	(-5.137578820479682, 0.20687715978340293)	(5.2276062681364532, 5.0162604230639882)	(-3.6943379990597203, -6.5421619665245903)	(0.53656958162599544, -5.1936449224861416)	1.0	slash	1.18564
23	M	A	A	N					M	4	2	shapes	A	0	False	58	(-5.4101151364233484, -0.37866983026849788)	(-7.831576901540406, 4.7993735028930278)	(5.5798212167075949, 7.3940580509764757)	(7.4755891686119149, -5.2295696720703679)	1.0	slash	0.644606
24	N	B	N	M					N	4	3	shapes	M	0	False	58	(-7.6675969501128991, 2.2702641816999627)	(-5.5390853666693829, -2.9222921526647223)	(7.6541682891496521, 3.6680335586842343)	(2.8870359725384276, -3.1212394862970356)	1.0	slash	0.660856
25	N	B	N	A	A	M	B	M	A	8	5	shapes	M	0	False	58	(-5.4588452968487662, -4.3867866886458966)	(-8.5662571988389633, 8.098015730804633)	(-4.128752742277106, 4.279784368019957)	(8.3579191746855166, 4.5973186324040238)	1.0	z	1.41201
26	M	A	M	B					M	4	1	shapes	A	0	False	58	(-5.041312152109743, 5.1600521754859834)	(-5.7058133554844224, -4.8638294355808398)	(3.1387181822834958, 2.5570349922106477)	(7.8148997563342419, -6.9070287244038315)	1.0	slash	1.19549
27	N	B	A	B	A	N	M	M	A	8	2	shapes	A	0	True	58	(-5.0894961241518013, -3.7559524217827214)	(5.080839085280882, 1.5233265934770586)	(3.4192326053174167, 7.3231022865081385)	(-6.9829397329334961, 3.9995787254650885)	1.0	slash	0.975387
28	M	A	M	A	B	N	N	B	A	8	0	shapes	M	0	False	58	(7.1604457468505913, -8.7298288400954682)	(-0.26769799989779486, 7.4284489480302298)	(-2.2551495435951372, -6.063383199011362)	(4.8308995832873123, -0.93654982832843015)	1.0	slash	0.759117
29	M	B	B	M	N	A	N	A	N	8	4	shapes	N	0	True	58	(1.3479080694051913, 1.4285026531835943)	(-7.4527048839248469, -3.1704508957696094)	(-6.8742519024555691, 8.3360400160532748)	(-8.7194366174065525, 3.140228975853038)	1.0	slash	0.498989
30	N	A	B	M					B	4	2	shapes	B	0	True	58	(-3.4594586999300514, -6.3925014015865216)	(7.9846425160313217, -5.1999962104151356)	(-3.8937506571155387, 5.6387912422214193)	(2.9587514437701508, 7.5734730135897514)	1.0	z	0.752248
31	N	A	N	B	A	M	B	M	A	8	6	shapes	B	0	False	58	(2.3471278262580384, 1.2504052286019967)	(-6.4849461525794947, 2.8161185306834948)	(0.056229507299542902, -3.4880423356176831)	(-8.3992462350757169, -5.0979130543940165)	1.0	slash	1.10063
32	M	B	B	N	M	N	A	A	B	8	2	shapes	B	0	True	58	(-6.4037634349517374, -6.8912236067267898)	(8.3282240978414244, -6.0638131694561412)	(5.6209667277077866, 5.5991209770426629)	(5.4927477611448463, -1.446238212617641)	1.0	slash	1.5133
1	N	A	M	A					A	4	3	shapes	A	1	True	58	(-4.4395424346334584, 2.4422809857268444)	(8.4782461931758988, 8.1451108736703084)	(5.8129651870223036, -6.2423211951855642)	(-0.32669000736352416, -3.6150139304783391)	1.0	z	1.32521
2	M	B	M	A	N	A	B	N	M	8	0	shapes	M	1	True	58	(-5.8909615696218687, 4.2617560198827178)	(-1.7958859632972919, 0.15153704105850707)	(3.9125476409440925, 0.15116321704397784)	(-6.3909448565502887, -7.6735290220701007)	1.0	slash	0.669592
3	M	A	B	B					B	4	3	shapes	B	1	True	58	(-0.71699836598229716, 1.9761880385467805)	(-4.949969341927666, -7.848293028120116)	(6.2666544220942431, 4.597926571719201)	(0.55228476883087829, -6.8384799411838326)	1.0	z	1.22444
4	N	B	N	A	A	B	M	M	M	8	7	shapes	M	1	True	58	(-2.012310831953009, 6.1194460142209106)	(-5.7206058018833925, -6.8849894179433635)	(-6.9852173861007305, -1.4031561682302085)	(4.081452593824979, -6.1678713741532469)	1.0	slash	0.51794
5	M	A	B	M					A	4	0	shapes	M	1	False	58	(7.3310823616153904, 3.5007730006992297)	(3.5602267692279455, -3.7739710846284993)	(-5.7321869835644819, -7.3617860803180051)	(-5.3722091254886752, 1.8680428570384962)	1.0	slash	1.1682
6	N	A	N	A					N	4	3	shapes	A	1	False	58	(8.5410730030323165, 3.3383492065844553)	(-4.4865019964766981, 0.0023316086802793734)	(3.2260564271932459, -5.9632675363565291)	(-1.5172771347265446, -3.7148858017153081)	1.0	slash	1.64532
7	M	B	N	N					N	4	0	shapes	M	1	False	58	(-8.3815347247160616, -3.5762773624772377)	(-2.9264670974059044, 6.0904266992962786)	(8.1949098918104468, 4.8694911821984856)	(4.1929196485179556, -3.3234192761246524)	1.0	slash	0.807472
8	N	A	A	N	B	M	B	M	A	8	1	shapes	A	1	True	58	(7.1494430403811684, -8.3260226554378214)	(-8.1161594642726449, 3.2783986921577775)	(-1.4161287286508646, -5.0461855325898526)	(-5.1307169996433455, -0.288430345694632)	1.0	z	0.674552
9	N	A	M	A					M	4	3	shapes	A	1	False	58	(3.3693288059055018, 8.6632362725591534)	(-5.3745283779283444, -5.0617334340043207)	(-8.5304434518033716, 3.5854870833751207)	(0.48392174008879785, -8.0146426993995643)	1.0	slash	0.862756
10	N	A	M	M	N	A	B	B	B	8	1	shapes	A	1	False	58	(2.3093849411200509, 3.3190502521244838)	(-5.8609816917894992, -0.037356396984876028)	(8.5650705518317345, -0.60501933614462722)	(-3.9434056601017433, 3.6214136941914337)	1.0	z	0.909734
11	M	B	N	A					A	4	3	shapes	A	1	True	58	(-3.3702209371037615, -0.21207327032504786)	(4.335755108920468, 4.6469930320232145)	(1.8469751449661072, -5.2332026850525777)	(-8.3704217567193204, 6.0206176837003031)	1.0	z	0.983305
12	N	A	A	N					M	4	1	shapes	A	1	False	58	(0.010236598026185817, 2.134099769315954)	(1.7277475023954256, -3.858984361494362)	(-2.9955731100767711, -5.8980079455704626)	(-4.0393762121270456, 3.2831226334592589)	1.0	slash	0.709296
13	M	B	B	A	M	N	A	N	M	8	4	shapes	M	1	True	58	(-6.8216481103604165, -4.9946295575760367)	(6.3690898430883802, 8.3600694837821408)	(8.0415250171727024, -5.4368254762659918)	(5.7366201962628338, 1.6884495639109538)	1.0	z	0.611267
14	N	A	B	B					N	4	0	shapes	N	1	True	58	(7.3185897830947262, 8.2290182463443884)	(-1.3620352685535746, 3.2732373229268834)	(-1.9228745454816742, -0.8659886160528103)	(2.3648363053162758, -2.8266035102487388)	1.0	slash	1.79509
15	N	A	B	B	N	M	M	A	N	8	2	shapes	B	1	False	58	(3.1387848857096934, -7.1649144536877021)	(-7.6229327332592103, 8.0157270373858651)	(0.18712947962579562, -2.4921832037329974)	(2.0319202984081581, 1.1767588130832252)	1.0	slash	0.952187
16	M	B	B	N	N	M	A	A	M	8	2	shapes	B	1	False	58	(6.7268140724165058, 4.6823225232957615)	(-6.3190195936716123, -5.9129493085623377)	(-2.4175413934746857, -3.643963474168574)	(3.0149229747015429, -1.225294740912398)	1.0	z	1.02189
17	N	B	M	N	A	M	A	B	N	8	3	shapes	N	1	True	58	(-3.6866593874697253, 4.4580682288721043)	(3.3218393723505191, 3.2101102139366571)	(7.0900037112604242, 0.13265984933550534)	(-0.4876183184438343, -5.1592994983936542)	1.0	slash	0.763427
18	N	B	A	N	A	M	M	B	N	8	3	shapes	N	1	True	58	(4.8283615353870744, 5.2026003160446361)	(-6.2464718283052951, -6.8427724035536848)	(3.1485029587258193, -1.2094898802585003)	(-8.4233657740519288, -1.3823665450389999)	1.0	slash	1.19107
19	M	A	B	B					A	4	2	shapes	B	1	False	58	(-1.5652109542674593, -3.9585771308255664)	(5.8030710550090578, 5.5916447917998031)	(-4.0087535737636895, 5.7536129619077379)	(5.3900091474745775, -2.620028394732735)	1.0	z	0.323294
20	N	A	B	N					B	4	2	shapes	B	1	True	58	(-5.9949080385416327, -7.1616229430371696)	(4.8965241953667906, 5.7118003120014471)	(1.6983858268843601, -1.0905074614940249)	(-1.9657153344119882, 4.3469168280112278)	1.0	slash	1.34825
21	M	B	M	N	A	A	B	N	M	8	1	shapes	B	1	False	58	(7.2075220631953201, -7.866550455405604)	(0.3603836797414246, -8.1565290140560993)	(-5.1791164138991279, 2.0022192210344709)	(2.9037522081844909, 5.8855843418259539)	1.0	slash	0.762061
22	N	A	A	M					B	4	0	shapes	N	1	False	58	(7.5291569416930848, -7.902594526228131)	(-6.9674437060266321, -1.5419894832865495)	(3.5957984373990826, 4.0107870478168834)	(-2.3036536407657193, 2.6472575282328368)	1.0	slash	1.23594
23	M	A	N	M					M	4	0	shapes	M	1	True	58	(-4.3629142678104023, -2.5148123045897606)	(7.1350304372365141, 5.5090417450541214)	(-4.9770950680735879, 6.2408980312328843)	(1.305613031428372, -0.96389628182440745)	1.0	z	0.97316
24	M	A	A	B	N	B	M	N	M	8	0	shapes	M	1	True	58	(7.7879270293591389, -8.3450899910159997)	(-3.5043297288110402, -6.5002553019423814)	(-8.2716081159035557, -1.9338759066035953)	(3.2344590601726004, -1.003784340335117)	1.0	slash	0.731564
25	M	A	B	M					B	4	2	shapes	B	1	True	58	(5.4372355263141259, 5.0702169080344532)	(7.4340901343603925, -6.925282017210022)	(-6.1190641755008004, 8.638862806165637)	(-0.63259540199014452, -6.5929191347011287)	1.0	z	0.900609
26	M	B	M	A	N	A	B	N	A	8	6	shapes	B	1	False	58	(-2.6720705728663523, -0.71355814830796227)	(8.3352647766915915, 2.1417534365797994)	(4.3204106503197313, -2.7164036993796499)	(-7.7665673087271276, -1.4748209401913996)	1.0	slash	1.29222
27	N	B	B	A					N	4	0	shapes	N	1	True	58	(6.7830794136366031, -7.6957875721298308)	(6.4114885391994587, 1.1605466317205568)	(-5.4876234013501293, 4.5303264179037797)	(-4.4783227736889124, -5.6432024451928413)	1.0	slash	0.539656
28	M	A	N	N					N	4	0	shapes	M	1	False	58	(3.1616535218471071, 2.1674996821887014)	(-4.1191828326049347, -3.0156020802234664)	(-4.0531384952038714, 1.4386188226450418)	(0.95338583599634141, -4.0230309792440977)	1.0	slash	0.47361
29	M	A	A	B	M	N	N	B	B	8	6	shapes	N	1	False	58	(5.2710276287807005, 8.0785263712867774)	(0.59365074785565497, -8.6816336731404888)	(-1.7512106123089577, -4.7197934171056231)	(8.1484414276368398, 1.6520491763466918)	1.0	slash	1.00724
30	N	A	A	B	M	N	M	B	M	8	2	shapes	A	1	False	58	(-2.7026411160879071, 4.5250992471589324)	(-4.3809253257558938, -4.1400314995032268)	(2.4603924966939541, 3.1196384617620474)	(-6.9308272147373922, 0.48059189829971238)	1.0	slash	0.634932
31	M	B	A	B	N	A	M	N	N	8	6	shapes	M	1	False	58	(7.3707351833724495, -7.2225839271480687)	(3.5261082788728118, 6.3342256298668236)	(-6.6422422169818418, -3.6359582694557897)	(5.0272012638587764, 1.6530488994604244)	1.0	slash	0.65237
32	M	A	A	B	N	N	B	M	B	8	3	shapes	B	1	True	58	(5.5416158279752743, -1.9168572680944864)	(-0.2031980882233082, 0.45115264442234171)	(4.8926797333233072, -8.5234182242991476)	(4.7887394878402265, 8.3398400756581523)	1.0	slash	1.0521
1	M	A	N	B					B	4	1	shapes	A	2	False	58	(4.2266409935491964, -3.2289944662535319)	(-0.6553599139940367, -5.9062084133271036)	(-6.9023508045571376, 6.6089196902685003)	(0.087593245508308826, 3.2319010257400826)	1.0	slash	1.13148
2	M	B	M	A					A	4	3	shapes	A	2	True	58	(-7.7657050647558981, 5.9129470742956354)	(1.8131769425949891, 6.1449877700022899)	(4.5034547471040831, -0.29243388879859999)	(-0.7459272078923096, -8.3895020018880295)	1.0	z	0.634058
3	N	A	N	M					M	4	3	shapes	M	2	True	58	(-3.0466585044417993, -6.1533086674738513)	(-3.8718158388558157, 6.2659443100416343)	(5.6760030283440752, 2.916351909164943)	(5.6283867362847335, -7.7551204942548475)	1.0	slash	0.987602
4	N	A	N	B					B	4	2	shapes	N	2	False	58	(-6.2124379862642138, 1.533445573940833)	(-4.0573285903825758, -6.081427864193385)	(1.6646547466387336, 1.0516220711203896)	(3.7045747757953222, -8.2205888174855755)	1.0	slash	0.853358
5	N	B	A	B					B	4	3	shapes	B	2	True	58	(-0.95765180424758967, 6.6049025647080128)	(-2.6056700683204275, -4.4721307111652733)	(1.0638341491023748, 0.61065017932340204)	(3.3789057168993271, -5.186876007637073)	1.0	slash	0.916182
6	M	A	N	N	A	B	B	M	M	8	0	shapes	M	2	True	58	(-5.7776734809599324, -6.2004704975609926)	(1.3506069615574834, -1.5512367867082046)	(5.7787518718281738, -4.0890546072586469)	(-5.9388025741212109, 4.8614973791428255)	1.0	slash	1.15995
7	M	A	A	M					B	4	0	shapes	M	2	False	58	(4.9406691169669212, -5.2834541755361926)	(8.3356013371290523, 6.6154894933679351)	(-2.7637435954418041, 0.015273718831208427)	(-3.1032096026190326, -8.6353863211506692)	1.0	slash	1.40159
8	N	B	B	A	N	M	A	M	N	8	1	shapes	B	2	False	58	(-2.1169597004394278, 2.4203921084319386)	(8.4546161383524421, -8.5842542380574418)	(4.6228850866140974, -3.2124078588641289)	(-2.062067828079055, -6.0526573745842214)	1.0	slash	0.811254
9	N	A	A	M					A	4	1	shapes	A	2	True	58	(-4.7773195822270793, 6.7364812462018335)	(4.3083424277442042, -2.5882646150959534)	(-0.53075828528580971, -2.5669855101797294)	(8.0409453839442016, 5.5423192839892454)	1.0	z	1.01107
10	N	B	A	B					B	4	1	shapes	B	2	True	58	(6.9123919936150244, -1.1169602767398414)	(2.7119279656198607, 8.4825782222920729)	(-2.4605359222062217, -4.7309957295577787)	(-5.3192420569191423, 6.3135258465795143)	1.0	z	0.627179
11	N	A	M	M					M	4	0	shapes	N	2	False	58	(6.7812913739780925, 1.537300184454077)	(-1.6815083669662725, 3.0412588956690136)	(4.8101810244025245, -4.2034210421872107)	(-7.2259705085735391, -4.4819451008561133)	1.0	slash	1.15585
12	M	A	B	M	N	B	A	N	B	8	2	shapes	B	2	True	58	(1.9005235333282844, -0.42541696274633622)	(6.983222793681243, -8.4643573780690637)	(-0.86894205685250547, 3.1661040260911477)	(-7.3817375892182957, -3.6871251055644878)	1.0	z	1.3838
13	M	B	B	M	A	A	N	N	A	8	1	shapes	B	2	False	58	(-7.6512340026920276, -7.7405139022178941)	(-2.6379325707125449, -6.3066715664447175)	(0.23024853228202069, 0.73696927024501768)	(-7.1560754637854407, 7.973193732419638)	1.0	slash	1.18934
14	M	A	M	B	N	N	B	A	A	8	1	shapes	A	2	True	58	(4.1822889428955072, -8.4392933079884092)	(0.0084673366359648838, 6.8977722346778982)	(1.1773565866310971, 2.2346686500629005)	(-2.4952514783750752, -1.8193081605147308)	1.0	slash	0.65676
15	N	A	M	B	N	A	B	M	N	8	1	shapes	A	2	False	58	(-4.3088895608230668, 6.8050869328791688)	(-7.7660084202965081, 1.3407113887871933)	(5.5035082420138046, -0.56715620686652812)	(8.5540763000737421, 5.0368815769476285)	1.0	slash	1.17733
16	N	B	M	A	N	M	B	A	A	8	7	shapes	A	2	True	58	(-6.9641210221322973, -4.0453813655674908)	(-1.5674723313708592, 7.4441260762634407)	(7.0036495174206923, -2.1048032403428456)	(2.9605246292895764, 7.8295614308247394)	1.0	slash	0.63633
17	M	B	A	B					A	4	1	shapes	B	2	False	58	(2.4858710900845473, -8.1200010891349041)	(-1.9543620541825071, 5.5772037313906218)	(-5.0776780568076054, -1.4951819106739936)	(4.3197377467166209, 5.8528226923257431)	1.0	slash	0.845851
18	M	A	N	B	B	M	N	A	M	8	5	shapes	M	2	True	58	(3.2387430180517054, -3.576225269657896)	(1.3890954050348103, 4.7340107376295819)	(-8.6156256010148873, 5.2413202821207854)	(-2.7168426171507569, -6.475346637075523)	1.0	slash	0.688317
19	N	B	M	M					B	4	2	shapes	M	2	False	58	(-7.3918371604281514, 6.1291098380365039)	(-1.7264204001670436, -1.7958027639599274)	(4.979543256692585, 6.7661603553775098)	(7.0956447992998086, -0.80224950487568414)	1.0	slash	0.831911
20	N	B	N	A					B	4	3	shapes	A	2	False	58	(-4.9796703361650128, 6.5586398577445415)	(3.1588346446748048, -4.9516646999590161)	(-5.4253933466856639, -4.6470352377637134)	(4.0696711005467847, 4.818525359659116)	1.0	slash	1.02725
21	M	B	A	A					A	4	2	shapes	A	2	True	58	(-7.6415105728194721, 2.8923425457376926)	(3.5894435531735134, -2.3565960594290809)	(-0.087942313448076348, -0.43628581101095065)	(8.7260336086068797, 8.2713195323516864)	1.0	slash	1.04722
22	M	B	A	M	N	A	B	N	N	8	0	shapes	M	2	False	58	(-8.6632876562445418, -3.6543847370092228)	(6.404525452882547, -1.5374272480685311)	(-0.53606578507276303, 5.9641744668038843)	(2.2640890818651247, -3.7868429083894082)	1.0	slash	1.13019
23	N	B	B	A	N	A	M	M	N	8	6	shapes	M	2	False	58	(-7.0392704447868315, 5.7861672767724315)	(5.2280151996220781, -3.5718553574445373)	(-0.6204966721415861, -0.44881287139080328)	(-5.5416296112183616, -7.2059153303969943)	1.0	slash	0.761691
24	M	A	N	N	B	A	M	B	M	8	5	shapes	A	2	False	58	(-4.0578790785567813, -0.0021468388523686599)	(0.28891844895994545, 8.1840536561935835)	(5.7063450417635817, -8.1379672414870772)	(-4.4461988128017493, 8.440458326515099)	1.0	z	1.57957
25	N	B	B	M					N	4	3	shapes	M	2	False	58	(-5.8289020516918626, 6.1579379962133327)	(-3.0272051978318748, -8.0027627621583104)	(7.7699081970769974, 2.296439530676329)	(8.7310235912556386, -5.2534546877531589)	1.0	slash	0.769056
26	N	A	M	M	B	A	N	B	N	8	5	shapes	A	2	False	58	(5.9873032998081896, -6.9773666555545502)	(0.14948782243125969, 3.4939606989794836)	(7.8664344812801339, 7.4766097618569312)	(-6.4531120969277049, 6.4842659543819892)	1.0	slash	1.71267
27	M	B	A	M	N	B	N	A	B	8	6	shapes	N	2	False	58	(5.1633826923318811, -7.5887910471597966)	(8.2516664062066525, 6.3465777168997271)	(-1.0693773268641378, -4.3980691765872866)	(2.9119495240671256, 6.4762517607882764)	1.0	slash	0.620846
28	N	A	A	B					A	4	1	shapes	A	2	True	58	(-2.576524769738131, 4.7041385567889513)	(2.8271733247198494, 6.3003812033353377)	(4.6270430275669128, -1.5735184760534269)	(-6.8145461180186038, -5.0465794440890743)	1.0	slash	0.808096
29	N	B	N	A	M	B	A	M	B	8	5	shapes	B	2	True	58	(5.1445407285345546, 7.356544587954172)	(6.7259144264075221, -1.8733643780526421)	(8.5757360947104253, -7.3612107277129528)	(-0.11771242778991997, 5.3205500148162237)	1.0	z	0.888075
30	M	B	N	M					M	4	3	shapes	M	2	True	58	(1.5179390118216762, -4.8166572783006369)	(1.0193070806172901, 7.8522891340424117)	(-1.6945417651607873, 0.72952569671610412)	(-3.7329414483635146, -7.7616042641239691)	1.0	z	0.743181
31	N	B	A	M	A	N	B	M	N	8	0	shapes	N	2	True	58	(-5.83305467938857, 5.8943409305367052)	(-4.3909293887252918, -1.9575918471811873)	(1.9305610326922142, 2.0788987450302425)	(5.6143550876403516, -2.9705801627054313)	1.0	slash	0.59752
32	M	B	M	N	B	A	N	A	M	8	0	shapes	M	2	True	58	(-3.8846891557260568, 4.5140806679775274)	(5.5892449110926883, 0.34151705363820994)	(7.3378688508789125, -5.4409021629258785)	(-6.6345075165325564, -7.0468165482457641)	1.0	slash	0.615259
1	N	A	N	M	B	M	B	A	M	8	2	shapes	N	3	False	58	(0.52319815164361394, 8.0923722769937108)	(8.5058702603251213, 5.8960996282943476)	(-4.3645660350562681, -0.64160144507190786)	(-1.0960867359050654, 1.9003063075304123)	1.0	slash	1.14844
2	M	B	A	N	A	M	N	B	B	8	1	shapes	B	3	True	58	(-4.8220304182787732, 8.1202901101086589)	(3.2530588599233088, 2.4572965467640255)	(8.0640074607337375, 3.7836292964481064)	(-5.2489332408992837, 3.6002221572793136)	1.0	slash	0.697968
3	M	B	M	A	B	A	N	N	A	8	2	shapes	M	3	False	58	(-8.2226069624640381, -7.5802882179544149)	(8.1439028052371967, -3.2568221322635447)	(-0.57259465863885417, -7.9318988906847583)	(-2.1023761356613981, 8.1666916631277537)	1.0	slash	0.87956
4	M	B	M	A					B	4	1	shapes	B	3	True	58	(-3.1075289452483226, -1.8167744450116734)	(7.2631537243044697, 8.3937680051374137)	(-8.7341341463275057, 4.7377563665786635)	(4.3448757245370011, -4.5545482715329477)	1.0	slash	0.75117
5	N	A	M	B					B	4	3	shapes	B	3	True	58	(-0.18090731812000449, -1.5610427672212648)	(0.27400278744320872, -5.6175078715195683)	(-2.2528291943198013, 4.8255252048385362)	(2.3691009139372721, 5.3332416009519381)	1.0	slash	0.682998
6	M	B	M	B					N	4	1	shapes	B	3	False	58	(4.1280178487579011, 5.9486118359358233)	(2.9515354670392888, -6.2360766952147069)	(-4.0023013375021605, -5.8784105769628106)	(-8.3110162561886316, 8.3008598971822778)	1.0	slash	0.669101
7	N	B	A	N					B	4	1	shapes	B	3	True	58	(-2.5649710622160722, 0.93615989129396304)	(5.5742987738935863, -0.47379899119438385)	(-0.97277741241561344, -2.8894086245265447)	(2.4028125530028177, 7.6526454834775421)	1.0	slash	1.00406
8	M	A	A	B					M	4	1	shapes	A	3	False	58	(-4.4701798691891899, -8.2127450577623851)	(5.6194456482762742, 4.594457582667939)	(-0.31147522348357448, 5.7813237745689339)	(4.6227807833829839, -6.9949360927927922)	1.0	slash	0.428205
9	M	B	M	B					N	4	3	shapes	B	3	False	58	(-6.185961408268664, 2.1931955572114266)	(8.3972065048018116, 0.18180700638172098)	(4.9655169510807582, -2.1592780244169525)	(-4.80200046600471, -7.698823784090429)	1.0	slash	0.735833
10	M	A	A	N	B	B	M	N	M	8	6	shapes	M	3	True	58	(-6.9962918381100003, 2.2801106709807062)	(-6.14884879043586, -5.6189226124504597)	(-0.1804328432558755, -5.9870092632598269)	(5.7810765710482723, -6.5377070849243424)	1.0	slash	0.845117
11	M	B	B	N	A	A	M	N	M	8	0	shapes	M	3	True	58	(5.3624922532235839, -0.54642697905894266)	(3.3131447883124352, -7.5777359819110162)	(1.9772842820128158, 6.590112604188711)	(-1.1628499265707308, -4.9061513420403262)	1.0	slash	0.405365
12	N	A	M	A	M	N	B	B	N	8	0	shapes	N	3	True	58	(0.82436816850113992, 6.0662075839879428)	(1.3843303891495893, -0.14342218592106626)	(-2.4024085508558226, -7.60498905982789)	(7.4491124981459507, -3.1408736449121823)	1.0	slash	0.447188
13	M	B	A	B					A	4	0	shapes	M	3	False	58	(-7.6838201704778211, 8.5702863182620916)	(-4.3340932054704489, -0.19087979715676262)	(0.57565014112365986, 4.6462150410834475)	(3.1015500485708465, -4.6961408335674895)	1.0	slash	0.996133
14	M	A	A	B					M	4	0	shapes	M	3	True	58	(-0.38941185384143218, 3.962609894212731)	(2.0616221385467934, -6.3834759456028785)	(-3.379435004528534, -4.2535688196578967)	(8.1744161072682999, 6.9064152871696383)	1.0	slash	0.597932
15	N	A	N	M					N	4	2	shapes	N	3	True	58	(5.0531239003492541, 5.6971315027093929)	(-8.4479972400141854, -5.8945243038953787)	(-4.1353933331244237, 6.0318666255029427)	(3.6501491590191808, -5.8586923899020338)	1.0	z	0.568165
16	M	B	N	N					B	4	1	shapes	B	3	True	58	(0.70762567823472544, -0.8412555025101387)	(-2.5502584116257365, 3.2174234809434719)	(5.233979970770676, 3.8796727781051246)	(-8.73697104285427, -3.5173897083467782)	1.0	slash	0.76511
17	M	B	N	N	A	B	A	M	M	8	3	shapes	N	3	False	58	(-6.8737356780247474, 3.695665880341382)	(7.7527067378221979, -7.0862267756916122)	(4.4911587936700226, -2.1990431431073532)	(2.7571543676824497, 7.0623668176189405)	1.0	slash	1.36667
18	N	B	B	A	N	A	M	M	B	8	4	shapes	N	3	False	58	(1.4478276343101406, -3.2273961876056108)	(4.4101641865740415, 4.0513017342496518)	(-4.4213543313482884, 7.7875263785772333)	(-2.9776368753134337, -5.1080308993145831)	1.0	slash	1.0306
19	M	B	A	A	M	B	N	N	A	8	2	shapes	A	3	True	58	(-0.85555039578984893, -2.724326273855155)	(0.42605472788964072, -8.309857017174501)	(4.0225139051581866, -0.95318788741074201)	(-0.56220758019133577, 5.7502458097999458)	1.0	slash	0.602484
20	N	B	N	A	B	M	M	A	B	8	0	shapes	N	3	False	58	(0.64503056528990577, 6.8088017145227973)	(0.41714508507090997, -1.5022187882930584)	(-6.9881763154300494, 3.2740674658137738)	(5.1715977922545289, 5.6102912619878271)	1.0	slash	0.275555
21	M	B	M	N	N	A	B	A	B	8	6	shapes	B	3	True	58	(5.6827742289723027, -8.7123775644792847)	(-5.3990110630124093, 7.7144570716108909)	(4.0254869820709924, -2.753340215830268)	(-5.4233638387924916, 1.2899106346353459)	1.0	slash	0.776006
22	M	A	B	B					B	4	2	shapes	B	3	True	58	(-3.864122977538031, -8.7191542245486371)	(-6.806839821725263, 3.7326305066280163)	(2.3892951481273101, 0.77321149862244276)	(3.1741423756881009, -4.336386288348244)	1.0	z	0.653863
23	N	B	A	B					A	4	3	shapes	B	3	False	58	(-6.5818394467725501, 5.2650380288804168)	(0.94011900574459339, 6.492862810037332)	(7.5409252783240746, -3.7951805604774478)	(-4.7055674198047335, -4.07075142862851)	1.0	slash	0.876817
24	M	A	M	N	B	N	B	A	A	8	7	shapes	A	3	True	58	(-0.28424266700085887, 4.5927016002258085)	(7.9726516030519186, 1.5722567393399451)	(8.4797764003279639, -2.6319317339510659)	(2.9783941167405352, 0.42305422048146113)	1.0	slash	0.926453
25	N	A	M	M	N	A	B	B	A	8	6	shapes	B	3	False	58	(-5.3133512801818812, 4.4386051389902761)	(3.9569418691994294, -7.0761069240658454)	(1.832550911900471, -1.8265553540151709)	(4.0533959693686725, 6.1710800553765015)	1.0	slash	0.992065
26	N	B	A	B					N	4	0	shapes	N	3	True	58	(2.3327733525868997, 3.8737912119091114)	(-2.052358920379092, -5.715798466530126)	(-3.4773466609519534, 7.2042245468829087)	(2.3164605877991704, -2.2676899633386807)	1.0	slash	0.78828
27	M	B	N	A	N	A	B	M	B	8	6	shapes	B	3	True	58	(-2.0084391227619314, 5.637644688934861)	(-1.8631594070516293, -8.3847197017241211)	(5.4972693938774064, -4.0408332590476954)	(-3.5763701972128361, -3.6596559430023108)	1.0	z	0.527573
28	M	A	B	B	M	A	N	N	A	8	0	shapes	M	3	False	58	(-5.4533267066413611, 5.2862164706863766)	(0.50523379387153255, 1.3937137438304141)	(-6.2245196635376061, -3.9397855236551234)	(8.352055483966101, -3.1860837204310828)	1.0	z	0.97768
29	M	B	B	M					N	4	2	shapes	B	3	False	58	(7.8054505096125801, -4.6328398181534745)	(0.4743462640810101, 7.1081844432754782)	(-4.1480855071495943, 1.0660236862430867)	(-2.7724071311172294, -6.1617750836190819)	1.0	slash	0.806727
30	N	B	M	M					B	4	2	shapes	M	3	False	58	(-0.55099565420376528, 4.1321137470471214)	(-5.4804881029456158, -5.2362169277881296)	(6.6813063424829693, -3.9690270873493647)	(8.0520690331042104, 2.5474973163324854)	1.0	slash	0.96047
31	N	B	B	A	N	A	M	M	A	8	2	shapes	B	3	False	58	(-0.30307575560543043, -8.4437386873641689)	(4.4484498694536896, 6.7421295246454598)	(2.0686952251992743, -3.594865206261324)	(-4.4467828029315575, -8.3284132740876107)	1.0	slash	0.729962
32	M	A	B	N					M	4	3	shapes	N	3	False	58	(-8.1780404427270401, -4.9951838164836246)	(5.5609769010517649, 0.63152716293309474)	(-5.1836417945342337, 6.9120966676986981)	(0.77768393515970224, -8.3125364244997098)	1.0	slash	0.455679
1	M	A	B	A	M	B	N	N	A	8	5	shapes	B	4	False	58	(-5.1653088006811432, 2.8548434967490461)	(-7.1421743228615027, -2.3376914653123944)	(6.3384325522101896, -7.777853275847284)	(7.0600562593688245, 6.4641906096484476)	1.0	z	1.78085
2	N	A	M	N	A	B	B	M	B	8	3	shapes	N	4	False	58	(4.1045194103466311, 2.625400395197893)	(1.5531694385536117, 8.1125997069634046)	(-8.5771531687607734, -6.5003876336524691)	(-5.4710119851343233, 8.325505528244765)	1.0	z	1.34692
3	N	B	N	A					M	4	2	shapes	N	4	False	58	(4.5941319532677234, -6.4828529173825196)	(-7.4469025531287336, -5.652513087321255)	(1.7874937430422282, 2.1559936603458301)	(-3.5041043506658784, 2.2509370799148218)	1.0	slash	0.51048
4	N	B	M	B					M	4	0	shapes	N	4	False	58	(-2.9495447713957539, -8.3265806270289104)	(-7.0092993193013875, 0.49674878415114776)	(8.6443223066648827, -0.090527592241725685)	(7.8508286506193876, 6.4444160334357985)	1.0	z	0.986814
5	M	A	A	B	B	N	M	N	A	8	3	shapes	B	4	False	58	(2.4084553370859343, -8.0074829101272762)	(-4.6691607952059977, 4.4493990477732748)	(3.5431137139469762, 8.3467599857024766)	(8.299708662166303, -0.35983997194466966)	1.0	slash	0.445785
6	M	A	M	A					N	4	3	shapes	A	4	False	58	(-3.1740081649386953, 3.5819373956321865)	(8.0338978538966046, 2.71279958448293)	(3.947008662251374, -4.5797573974435046)	(-8.4252525391642816, -3.9170148220145435)	1.0	slash	1.18941
7	N	A	N	M					N	4	2	shapes	N	4	True	58	(-8.5897177378826974, -3.214985289221385)	(1.4441978788022158, 3.0095246082646998)	(2.999401768451385, -6.5275309877458447)	(-6.6780083761297515, 2.6426832623726551)	1.0	slash	0.375716
8	N	A	M	B	M	B	A	N	M	8	6	shapes	A	4	False	58	(-6.1020985216183075, -7.4700867281492531)	(2.3049477630122226, -4.0766172211058134)	(-0.99407707940581869, 3.3002035172176907)	(6.3405773233427709, 0.83181168428702712)	1.0	slash	0.926776
9	M	B	A	B	N	M	N	A	A	8	2	shapes	A	4	True	58	(4.6318963284614583, 8.0539665640415414)	(-7.7363691658976173, -2.6333152157838899)	(5.5755613733668739, 0.64667338500754923)	(1.852196843014962, -1.7394741349059171)	1.0	slash	0.470415
10	N	B	A	B					N	4	0	shapes	N	4	True	58	(-2.7771024934290001, 2.9304515266923161)	(-1.2772897128928244, -7.6157373389430916)	(0.49334408194969548, 6.9826019825527013)	(6.4971299871508013, -1.3673870019848433)	1.0	z	1.07809
11	M	A	B	M					N	4	2	shapes	B	4	False	58	(0.13679904987972691, -2.4839033587695818)	(-7.7438057269401828, -7.6941394207434124)	(4.1386269509182618, 2.7329693556515764)	(-0.14921080265398601, 4.211304085168619)	1.0	slash	0.863604
12	M	B	M	A	N	N	A	B	M	8	2	shapes	M	4	True	58	(-6.2821540282316306, 1.1796624597477532)	(0.76011749797202022, 7.762447492952699)	(8.2761834659281241, 1.378299146428688)	(-2.0977855013916606, 3.9496369750800788)	1.0	z	1.05147
13	N	A	N	M					N	4	0	shapes	N	4	True	58	(-6.77979617831223, -0.37416158284649903)	(7.5481627682669767, 5.2519032152231979)	(-3.262048811220807, 3.4100082486056156)	(2.8377146415085281, -3.7625023308277488)	1.0	z	0.691116
14	M	A	M	N	B	N	B	A	N	8	2	shapes	M	4	False	58	(2.9960964882333805, -6.7569417620314809)	(-4.7283557189575403, 7.6401233579373447)	(7.4499893309930521, -8.5186715759350928)	(-3.3314610478370348, -2.072588422901056)	1.0	slash	0.858804
15	N	B	M	B					A	4	0	shapes	N	4	False	58	(-0.34837823919527544, 7.7423989138448697)	(6.8148671746664551, -5.6287263104874459)	(-5.6053766544106738, -4.2520335328762187)	(8.2396633185743049, 1.6872885865547484)	1.0	slash	0.798414
16	M	A	M	N					N	4	3	shapes	N	4	True	58	(5.0144595183422922, 4.4263845278689526)	(7.1795194841497825, -2.1155350872376397)	(-6.9342678699685738, 4.0161279877784644)	(-0.15855155859364345, -4.8908187080839731)	1.0	z	0.816598
17	N	A	N	B	A	M	B	M	M	8	7	shapes	M	4	True	58	(-5.7026220230693578, 0.11383594895178462)	(4.849661082725607, -7.2964234718849612)	(1.2062815940865228, -4.6885044111358063)	(8.1305467007322889, 5.7833881654960582)	1.0	z	0.678549
18	N	B	N	A					B	4	2	shapes	N	4	False	58	(-5.4070340214061261, -1.3470547629395488)	(0.67979343430402572, -8.3910584835408581)	(-1.1365351024228634, 7.1828658428137668)	(2.9351280095307875, 8.4330486720099067)	1.0	slash	1.0239
19	M	A	N	M	N	A	B	B	B	8	7	shapes	B	4	True	58	(2.1122179471128781, -5.7886166921473396)	(-6.2866238221019923, 5.9021111920173226)	(1.3052391391597542, 4.3388149369856848)	(8.0108912707801778, 3.5204882745872492)	1.0	z	0.755584
20	M	B	A	M					B	4	1	shapes	B	4	True	58	(-0.14584325907440743, 2.2350088956485905)	(6.3453054244861189, 3.9968709085817444)	(5.0567559649976204, -6.2476645418317283)	(-5.2296693674549406, -3.2600276193874249)	1.0	z	1.42853
21	N	A	A	N					N	4	2	shapes	A	4	False	58	(1.402192758612447, -0.77987363018804956)	(-1.9846903198805688, -6.7412892255247616)	(-4.1598450203562338, 1.1934355869143758)	(4.0510667177249502, 4.2467460935850809)	1.0	slash	0.936294
22	N	B	M	N	M	A	B	A	B	8	4	shapes	M	4	False	58	(-2.3646502436701464, 5.9080317378439275)	(-1.201678532623121, -8.0161151190464377)	(8.1760658711134937, 3.7928091646541446)	(-0.51441394095744464, -2.6017848099817069)	1.0	slash	0.775991
23	M	B	M	N					N	4	3	shapes	N	4	True	58	(5.5226097543760115, 6.4353730958310322)	(-0.76987247839802819, -4.7915235429174423)	(-2.7846130879489177, 6.8300336674063153)	(8.7410099188248971, -1.0697146750137145)	1.0	z	1.34197
24	N	B	M	A					M	4	1	shapes	B	4	False	58	(2.1654619659591194, -6.7901168720989524)	(-3.7747646972933868, -1.9658687523462772)	(7.5730677245857088, 7.8811015701824019)	(-2.1784183404288955, 3.4402637971472707)	1.0	slash	1.17105
25	N	A	M	B	M	A	B	N	N	8	0	shapes	N	4	True	58	(8.1918460565805304, 3.8236094888237293)	(-0.91868303726118761, 7.3475516304943689)	(-6.452902569727561, -1.2445989572310552)	(-5.6161073569949354, -5.2853458461933212)	1.0	z	1.08133
26	N	A	B	B	M	A	M	N	B	8	4	shapes	M	4	False	58	(-2.9210039782176676, -2.3397715819866534)	(-6.700923734037711, 2.6230889363094789)	(4.4825625452629456, -3.2798778034310834)	(8.7355820364424268, 3.2216647034714079)	1.0	z	1.00341
27	M	B	N	N	M	B	A	A	A	8	7	shapes	A	4	True	58	(-1.0301641407237119, -1.0832453447657038)	(-1.7129172765514182, 5.061356452002002)	(-2.5923014639019177, -5.3934779011741121)	(3.2307774526372768, -7.9067426600524469)	1.0	slash	0.606511
28	N	B	A	B	M	N	M	A	N	8	5	shapes	N	4	True	58	(1.7417403957337534, -2.4431137758315344)	(-5.5671294662897317, -5.9086749526881039)	(8.1500598349577409, 0.36093196534946514)	(-6.0641922454322481, 4.7000831814425936)	1.0	slash	0.487729
29	N	A	B	B	A	M	M	N	A	8	5	shapes	M	4	False	58	(1.1428059143581564, 2.7782880919959823)	(1.1253771858959016, 8.0430606543474283)	(-7.0566994268050536, 1.5423798289283912)	(-7.9687255461106892, -8.1148237913478933)	1.0	z	0.439263
30	N	B	B	A	M	M	A	N	M	8	4	shapes	M	4	True	58	(5.9105099630148086, 5.0714465803614015)	(0.52671883501498584, -6.260176580205246)	(-2.3667817906902142, 3.3446770141503279)	(5.6342246005404508, -6.6054796694137234)	1.0	slash	0.385529
31	M	A	A	B					M	4	0	shapes	M	4	True	58	(0.93840637037340358, 5.1591969226064105)	(6.7302821149682064, -1.6194705066777706)	(-4.7452100366208612, -4.9085066945753386)	(-7.7838803156174832, 8.2907036235911633)	1.0	slash	0.482571
32	N	A	B	N					A	4	1	shapes	A	4	True	58	(6.6289390256761767, -2.7178644560249108)	(-7.4062440416004911, -6.8126172091416564)	(4.0773968065409534, 1.6760482079052732)	(-5.0079123095708109, 8.7361874873321277)	1.0	z	0.411144
1	N	A	A	B					A	4	2	shapes	A	5	True	58	(6.6067697403142223, -3.0376453591590957)	(4.0501006751447388, 5.2613142520362217)	(-3.4590009821261027, 4.5032177677745864)	(-0.00025371003100538303, -8.1261047700793974)	1.0	z	0.84229
2	N	A	A	B					M	4	3	shapes	B	5	False	58	(5.1986091595334223, 8.1326611978667849)	(-1.5209365001074637, -0.60867528983681751)	(4.5622128092068532, -4.5768153763782511)	(-7.0598201496824071, 0.94927313142219027)	1.0	slash	0.723617
3	M	A	A	B	M	B	N	N	A	8	0	shapes	M	5	False	58	(4.3883017728058853, 3.346034860766455)	(6.8346847542121463, -7.4276596244435789)	(-5.7562195175324797, 1.3771925128895823)	(-3.945894917242966, -2.4207534092776806)	1.0	slash	0.607587
4	N	B	A	A	B	N	M	M	B	8	1	shapes	B	5	True	58	(-3.603601606041714, -3.1786436915748357)	(1.7932836472633564, 1.3756368750415131)	(-2.6993310662354402, 7.2822646518737635)	(-7.6941550056813766, -7.0392992076687158)	1.0	slash	0.727196
5	N	B	M	B					M	4	1	shapes	B	5	False	58	(4.320402201139995, -6.3453926098820066)	(-5.8817750195790452, 5.3357782835382164)	(-2.5264135084700898, -4.1961480510133216)	(4.5179628779630594, 3.3253908675839945)	1.0	slash	0.984569
6	M	A	N	M	B	A	N	B	M	8	3	shapes	M	5	True	58	(-2.9486577259881006, -1.1433654863336384)	(-7.6075312348598398, -3.0533190572424047)	(-2.7607528279348497, 5.7202741846117373)	(8.1010065408355771, -2.9483897795067904)	1.0	slash	0.596398
7	N	B	B	N	M	A	A	M	B	8	0	shapes	N	5	False	58	(-1.3164996395945145, 3.8628042899756565)	(5.8024385571806416, 1.3512542029064818)	(-7.937177626249083, -8.2850012874584458)	(3.8631474703654156, -8.6578527504987282)	1.0	slash	0.669992
8	M	A	N	N	M	A	B	B	N	8	4	shapes	M	5	False	58	(4.3791805148604208, 5.2995696454309389)	(-0.82831229497515846, -2.3825192910141588)	(-0.89319661551232343, -7.2960149042796347)	(6.0230172819352479, -8.5705704723384919)	1.0	slash	0.844388
9	M	A	M	A	B	B	N	N	B	8	4	shapes	B	5	True	58	(5.7760964661322785, -3.6987046867926239)	(-1.4839017215596915, -1.8309849330068282)	(-6.4387955213993555, -1.7025745754027097)	(2.5399158647176048, 0.71808867167881729)	1.0	z	0.630967
10	M	B	N	N	M	A	B	A	A	8	3	shapes	N	5	False	58	(-7.0564719901601585, -0.26045139542497431)	(2.9135930814441018, -2.7811182853636902)	(7.4324343030126379, -6.743129576923149)	(-4.9959208388457617, 4.1871249056713431)	1.0	slash	0.829008
11	N	B	M	N	B	M	A	A	A	8	6	shapes	A	5	True	58	(-6.785202502976647, -1.7348969103240695)	(-2.1483094127749371, 8.324333737410651)	(-7.8214923924762925, 5.7303360453305068)	(-1.6489011140717382, -1.6126115470125875)	1.0	slash	0.665907
12	M	B	A	B					M	4	0	shapes	M	5	True	58	(1.7762013199871642, -7.2541335257783208)	(2.4386210797695824, 3.5666980867643918)	(-6.2270828401062861, 1.7354320301804602)	(-1.8344612305070749, -4.5531724195514816)	1.0	z	1.06824
13	M	A	N	N	M	B	A	B	N	8	3	shapes	N	5	True	58	(4.1698454146965958, -3.0911347980771753)	(7.3655685710674206, 3.9882386937159211)	(-0.019738739831801411, -6.9910350477158918)	(-0.92231481683754968, -3.0410864095863097)	1.0	slash	0.743975
14	N	A	A	N					M	4	3	shapes	N	5	False	58	(8.4052541403656349, -3.8601232163362686)	(-6.0781800175536658, 5.8728625673619739)	(-2.1151343047062063, -7.7166119466485457)	(8.4910460850754355, 0.22097316796493693)	1.0	z	1.02759
15	N	A	B	N					A	4	2	shapes	B	5	False	58	(-4.4706714190148578, 3.1943865305159314)	(1.0745944080693146, -7.5216009623888151)	(-6.1111067208421046, -7.5248560209981079)	(7.6456388745528834, 6.0958974170285138)	1.0	z	0.717367
16	M	B	N	A	N	A	M	B	A	8	6	shapes	M	5	False	58	(0.55118085802407002, 6.9277063936668348)	(7.2958361244530785, -4.4637539102514321)	(4.4937365953942834, 1.4557331838384489)	(-2.4002050883550154, -4.0365577438190297)	1.0	z	0.800869
17	N	B	M	A					N	4	0	shapes	N	5	True	58	(-3.9277697379252361, -7.3163757233345335)	(-7.7628623670963508, 4.2625359616159955)	(1.2400330301507463, 3.7154490057636309)	(8.6914891034828194, -6.0943638827422255)	1.0	slash	0.63457
18	M	B	M	B					B	4	1	shapes	B	5	True	58	(5.6422610115878413, 1.7847812973760302)	(1.8340303830555982, -3.3418419032160971)	(-4.8101616940810459, 6.7817199298311817)	(-5.2564322210159116, -6.3406205807403389)	1.0	z	1.17009
19	N	B	N	M					M	4	3	shapes	M	5	True	58	(1.8568654840796306, 2.2113711188409635)	(8.7150854828660691, -5.1791263912827876)	(-2.1727636908606991, -0.50687195244005068)	(-8.4490549069307974, 0.77895444301756811)	1.0	z	0.777866
20	M	A	B	A					M	4	3	shapes	A	5	False	58	(4.6310721404933233, -3.5103320894020626)	(-2.5583534568999919, 8.7303938074873635)	(-2.9176325354034054, -6.5666874969220679)	(1.4709201289543863, 5.9871049428950922)	1.0	slash	0.784711
21	M	B	N	M					N	4	2	shapes	N	5	True	58	(5.9007757690437703, 3.6831601646459653)	(0.49417545911598282, -4.9630190711262943)	(-8.578125880942256, -6.5376836404253886)	(-2.05496406465649, 8.0497299462043941)	1.0	z	0.764209
22	N	B	M	M					B	4	3	shapes	M	5	False	58	(5.232346056142628, -3.7100339070783193)	(2.3197707970902286, 2.9519990244186101)	(-2.3807400640385437, -3.6641054823412826)	(-1.8912333613854049, 5.7584920399806929)	1.0	slash	0.741368
23	M	B	N	M					M	4	3	shapes	M	5	True	58	(5.6951064661557389, 8.2772414113871839)	(-1.2931900838751487, 7.4913179605456293)	(3.785513217549072, -3.9564363647109237)	(-5.2186946094390905, -0.47126872532326658)	1.0	z	0.410467
24	M	B	N	M	A	B	N	A	N	8	2	shapes	N	5	True	58	(0.92281776652498948, 2.7620583233342249)	(-3.3622251271801744, -3.9558744842949496)	(1.5726305605713176, 8.1902750446204529)	(-7.2141286127374658, 2.7904828341813008)	1.0	slash	0.883696
25	M	B	A	B					A	4	3	shapes	B	5	False	58	(0.81999270300423888, -7.326981465269065)	(0.57459685622751344, 3.437682552202995)	(-5.5086656463866674, -8.406355533732734)	(-8.5604324606721605, 1.0550571809868945)	1.0	z	0.499797
26	M	A	A	B	B	M	N	N	M	8	5	shapes	M	5	True	58	(-6.4549905960177298, 0.68848986408071333)	(0.95798830084921605, -7.6573972806792518)	(-2.0314844679705608, -3.160817580270761)	(-2.2502543300397999, 8.0004023777333657)	1.0	slash	0.75612
27	N	B	N	A	A	M	B	M	B	8	7	shapes	M	5	False	58	(0.19896284363151295, 2.7500059997977342)	(1.6572666171619233, 6.9663386456184142)	(-4.0333977254350275, -7.0639398048339599)	(-6.3656382938837455, 6.3861299619758558)	1.0	slash	1.02114
28	M	B	N	A	N	B	M	A	A	8	3	shapes	A	5	True	58	(-1.5248597358169622, -6.3258992165944212)	(-1.8964258601514619, 2.0951177915152979)	(2.4387923697349301, -5.4211479420521957)	(-7.1914067337105836, 5.6589515605979521)	1.0	z	0.68288
29	M	A	A	N					M	4	0	shapes	M	5	True	58	(-7.8312586650121121, 4.1260644922488279)	(2.7428403984829544, 5.379871497050722)	(-0.67042574472410976, -5.8796245031402945)	(0.34477739364921689, -0.87778769311077021)	1.0	z	0.674339
30	M	B	M	N	B	N	A	A	B	8	3	shapes	N	5	False	58	(-0.76324358419312244, 4.1911697633630922)	(3.5521644382974493, -2.2907036057360628)	(-0.17076660190141624, -7.3538942333344162)	(-5.8405670271253012, 1.4796337444036709)	1.0	slash	0.779989
31	N	B	B	M					B	4	3	shapes	M	5	False	58	(-4.1815466734565847, 1.137160735397762)	(-7.8356444907000595, -3.2458413233228551)	(1.2566955923835845, 1.5108915871496098)	(3.7869291565755869, -7.5696934419311406)	1.0	slash	0.881782
32	N	B	M	B	A	N	A	M	B	8	0	shapes	N	5	False	58	(-6.7750738296140849, -2.3894562153577183)	(0.33792312984450135, -6.2585971901244939)	(6.2107609697520552, -7.0006335437956135)	(-4.0654614680934111, -8.3958970747601214)	1.0	slash	1.04351
1	N	A	N	A	B	M	B	M	B	8	2	shapes	N	6	False	58	(5.9995369803295553, -6.204831884706155)	(0.89360751849839914, 0.69152994782711019)	(-6.7064369149827607, 5.4839887729475656)	(-7.5680105764031165, -4.6527420446112711)	1.0	slash	0.825652
2	N	B	A	N					M	4	3	shapes	N	6	False	58	(-8.5645743822325962, -5.925621804511767)	(8.0049500114776677, -8.5911908063944775)	(3.6313787542414211, 1.7340386926939129)	(-2.6562024425874808, 0.27635748035398677)	1.0	slash	0.652664
3	M	B	M	A					M	4	0	shapes	M	6	True	58	(8.5957476669144448, 4.9473506598045738)	(-4.0632714693585017, 2.4645190233799124)	(-7.4787965083997863, -5.812319173655899)	(1.704409720415498, -7.2472245787861862)	1.0	slash	0.644608
4	M	B	M	B					N	4	3	shapes	B	6	False	58	(4.5683656937636741, 1.4305229922788367)	(-1.3574597183290313, -1.2985285757694571)	(6.8833878297135911, -5.9521459749982668)	(-6.3786283624490778, 2.6663217006683535)	1.0	slash	0.681836
5	N	A	B	A	B	N	M	M	N	8	1	shapes	A	6	False	58	(-2.9771588513594862, -8.2583783489870388)	(2.2709153711769599, 6.2719130876442222)	(0.048106777633396547, 1.6838119348774487)	(7.6375889000686357, -8.0724073561017509)	1.0	slash	0.460344
6	M	B	B	N	N	M	A	A	B	8	1	shapes	B	6	True	58	(8.6942672142874002, 3.8258805344078937)	(6.4244859237619316, -0.64798719311056985)	(2.0577330653229566, -4.8596514262550636)	(2.6324885556738842, 7.3184629705052835)	1.0	slash	0.577287
7	N	A	N	M	M	B	A	B	N	8	3	shapes	M	6	False	58	(-6.3612246403819945, 5.3017414696279381)	(-1.364793112014957, -3.5132553750158673)	(6.0474970379970525, 7.0554356451159883)	(7.4451301980658506, -6.6571157301315171)	1.0	slash	0.734939
8	M	A	M	B	N	B	N	A	B	8	5	shapes	B	6	True	58	(-6.5041571183758364, -1.1364419112469974)	(0.62036688917579141, 1.7654762276212654)	(6.2050787234701463, -0.044740254135771096)	(5.4350933049214678, -4.8812250939196389)	1.0	slash	0.452905
9	M	B	N	N	M	B	A	A	N	8	3	shapes	N	6	True	58	(-3.5364486352564457, 6.923540465561544)	(-6.084710149912735, 0.38075314022222528)	(-6.0281942643551769, -4.5678144095851305)	(3.9234639172286503, 4.3278544261280416)	1.0	slash	0.598345
10	M	B	A	B	N	A	M	N	A	8	0	shapes	M	6	False	58	(-2.2429504756596295, -6.22387602031014)	(5.7362427804676859, 6.8363502475674132)	(7.9304429569648356, 0.66978292012065666)	(4.7627248348128521, -5.6691767749911488)	1.0	z	1.15195
11	M	B	A	B					B	4	3	shapes	B	6	True	58	(-5.7401338675301439, -1.6453142085943027)	(5.7647223733194792, 3.8879975042786619)	(-6.1675301738892827, 4.7322497269219017)	(1.2151311457640581, -2.9225405452684141)	1.0	z	0.955727
12	M	A	N	A	M	B	N	B	B	8	6	shapes	N	6	False	58	(7.3613076663378969, 5.9827324058046294)	(-4.8750851663259134, 4.3336499165666869)	(-1.4565881088660637, 1.3461478365866455)	(2.9883274477227317, -5.7825074332038646)	1.0	z	0.973568
13	M	A	M	B	N	B	N	A	B	8	5	shapes	B	6	True	58	(-3.6740253831225251, 3.4190196130350934)	(-8.2870748026121994, -4.3182726119100847)	(-4.2024619974015005, -1.8859918453718096)	(4.5919766761957934, 7.8162892674843256)	1.0	slash	0.652789
14	M	B	M	B					M	4	0	shapes	M	6	True	58	(-0.52038402724727639, 3.6254789523569375)	(5.8836254334324956, -2.7420350713380195)	(-1.406521366567719, -8.7020734154316663)	(6.1226990641110604, 4.8285912314469588)	1.0	z	0.644535
15	M	B	B	N					N	4	3	shapes	N	6	True	58	(-7.8709002504873027, -7.6755074485369352)	(-0.33138966194654351, 4.4715193958035311)	(5.1681759476614459, -5.7716700412090445)	(7.9261673413061153, 3.0608840510344582)	1.0	slash	1.00475
16	M	A	M	B					A	4	0	shapes	M	6	False	58	(0.19139210006163054, -1.3173377637863783)	(-2.3355872904660107, 7.9815462681960518)	(8.5868350257842359, 1.1148055621340269)	(-4.2469235833432455, -8.4653612884370144)	1.0	slash	0.917508
17	N	A	B	N					N	4	3	shapes	N	6	True	58	(-0.77418911699711668, -2.1170555020038648)	(4.7410235559684661, -6.201359372525225)	(0.68419840707010593, 7.7643192901499773)	(-7.3479902432129007, 3.7701981368265685)	1.0	z	0.894189
18	M	B	M	B					N	4	3	shapes	B	6	False	58	(5.5445433920890022, 0.95156025634342889)	(-1.6035449849173045, -7.6637786925044971)	(7.4462955502901558, -7.9188383754524363)	(-6.6514637369117029, 3.8998987854923186)	1.0	slash	0.613578
19	N	B	B	A	N	A	M	M	B	8	1	shapes	B	6	True	58	(-7.4363030332388398, -6.4975756030151635)	(-3.6048622320096806, -5.0719034505966789)	(-8.210734071412384, 0.032238133409839165)	(7.1336430021376138, 3.6886577911417255)	1.0	z	0.910963
20	M	B	A	B					B	4	0	shapes	M	6	False	58	(3.0750624223332732, -0.13672226339384608)	(-7.0650199322354634, -1.7626108314857092)	(2.9471583631415612, 8.4691690799211479)	(-7.8790227440023086, 7.0988229408038173)	1.0	slash	0.569128
21	N	A	M	N					N	4	0	shapes	N	6	True	58	(-7.1277388822071313, -6.6864525664715586)	(4.5970972922657207, -8.275525263406049)	(-2.5819916176594617, 5.9479464863475453)	(7.9668247914593273, 3.3834867503636197)	1.0	z	0.72817
22	M	A	N	M					M	4	3	shapes	M	6	True	58	(-5.9651212249938617, 0.75118211725577488)	(-7.2708868084667007, -7.1911784288453333)	(2.0619226575624854, 7.6941238167767807)	(5.8281375221270935, -1.2588141330531784)	1.0	slash	0.703766
23	M	A	A	M					M	4	2	shapes	A	6	False	58	(0.69111998445693601, 2.5722604728468674)	(-4.8750511550247131, -7.20812776210549)	(2.2278183957439577, -1.6898328487931735)	(-1.345043873797259, 6.2610652361676085)	1.0	slash	1.33813
24	N	A	N	A	B	M	M	B	A	8	4	shapes	B	6	False	58	(-4.0955915533434508, -6.7312925431766137)	(-6.1585403067781499, 1.6308878020534507)	(8.1465328652111957, -7.4971964225358523)	(-0.51665731160949235, -3.307210873233684)	1.0	z	1.20122
25	N	B	A	N	M	M	A	B	A	8	3	shapes	N	6	False	58	(-1.7079750838036913, 7.6929889226987811)	(-3.3267924836148133, 0.37467002992928933)	(2.0598308981993867, 5.4849646689189644)	(4.2067183683672553, -0.8794749901696548)	1.0	slash	0.746497
26	N	A	N	A					M	4	3	shapes	A	6	False	58	(-2.559320675304245, -6.705631745198354)	(-5.58320527994315, 4.0575300937727121)	(2.7140092627244297, -5.138320856863924)	(2.1008940686234876, 3.96099310210578)	1.0	slash	0.948532
27	N	B	N	B	A	A	M	M	N	8	0	shapes	N	6	True	58	(7.2167334016720943, 2.7999658917321923)	(-6.7278040490271476, 5.2488730256146923)	(-2.9906995522620727, -2.0259129858182767)	(1.685612744213552, -1.4387996166729078)	1.0	slash	0.808515
28	N	B	B	A					B	4	2	shapes	B	6	True	58	(-4.5765819646690797, 1.1683360309698365)	(-6.3267336690354004, -7.3118517616835614)	(8.7405221341954089, -6.0798310556842434)	(0.86578018642755872, 1.3374039799168305)	1.0	z	0.855654
29	M	A	N	M					B	4	2	shapes	N	6	False	58	(7.3590918034255424, -3.6457834740526591)	(-4.599284187811354, 6.2101012512069786)	(-8.6335031516482701, -0.81443215495690779)	(0.81216030444567622, 5.2007109091654513)	1.0	slash	1.40588
30	N	B	B	A	M	A	N	M	A	8	5	shapes	A	6	True	58	(-5.2977836990146985, 4.4572986754268502)	(-0.42179760666902233, 1.3670125307175347)	(-0.74775938599829672, -3.0725992352147182)	(5.8902465790257388, 3.6577969675499453)	1.0	z	0.686988
31	M	A	B	B	A	N	M	N	A	8	2	shapes	B	6	False	58	(-1.616303764455461, 0.37720625056345369)	(4.8176897621138277, 1.6106721544791203)	(5.4547221180505758, -7.4753943661886835)	(-8.3868262738551955, 4.5008043640109019)	1.0	slash	0.793082
32	M	A	N	M	B	B	A	N	B	8	4	shapes	B	6	True	58	(8.0423183625757417, -1.1147100362644409)	(8.6716640224389074, 3.5986535208618697)	(3.7791386257236788, 3.7019556902808883)	(-0.38889836633751074, 0.98650652623042845)	1.0	z	0.740129
1	M	A	B	M	B	A	N	N	B	8	2	shapes	B	7	True	58	(0.1295216575962872, -1.5735034870901279)	(7.3093745365477787, -6.5352355860544193)	(5.1582536155712173, 2.8792840215478375)	(-6.4721197269667403, -5.9253830416274909)	1.0	slash	0.325941
2	N	B	N	B	A	M	M	A	A	8	3	shapes	B	7	False	58	(5.8082749256218626, -7.9468140416834565)	(7.5019246040855307, 4.7090722900840198)	(-3.119630795016894, 4.6550687460468332)	(-7.5563161912603416, -2.6516555776229724)	1.0	z	0.500551
3	N	A	B	N	M	B	A	M	N	8	2	shapes	B	7	False	58	(2.8244899957231304, -3.5370895302807952)	(-3.2162690734819472, 1.7698746625548392)	(-4.1633594418562385, -5.0851465228105202)	(-7.6048051609628367, 2.3092481654128836)	1.0	slash	0.883514
4	M	B	A	B					B	4	3	shapes	B	7	True	58	(5.3899891441169103, 5.2360706159216761)	(-6.8014071077819631, -7.1650093127357835)	(2.3327626554233092, -2.5862073339541292)	(-1.0605576241633168, 3.7773949382447114)	1.0	z	0.788056
5	M	A	B	N					M	4	2	shapes	B	7	False	58	(-7.6139567472402234, 7.0552156339308176)	(2.5745719557774027, 5.0930424243952324)	(-0.0021814440964060822, -5.0857628386051941)	(7.5865464588148761, -3.2903993911224605)	1.0	slash	1.22874
6	N	A	A	M					A	4	0	shapes	N	7	False	58	(4.4314703344034214, 1.5683058794344173)	(2.616384852014372, -5.299866848819228)	(-3.6962943318610515, 3.4802771179529763)	(-1.7749855378457484, -4.9773568242133486)	1.0	slash	1.1609
7	M	B	N	B	N	M	A	A	A	8	6	shapes	A	7	True	58	(-5.2186200677750634, -0.36814692191075338)	(-2.4184246919565222, 7.5836117601639046)	(4.8148704950320624, 7.6743144916325043)	(4.2782584990695653, -8.5073838543324882)	1.0	z	0.866359
8	M	B	A	N					N	4	3	shapes	N	7	True	58	(7.9041706692943947, 7.9293896659445053)	(-2.2613292561617575, 1.4670667839829825)	(5.3383396082997603, -0.96950328164736543)	(-2.0279755907503176, -8.0953735567615031)	1.0	slash	0.789509
9	M	A	N	B	B	M	N	A	N	8	3	shapes	B	7	False	58	(-7.6664428382019318, 5.5495843680530736)	(-2.490501341155217, 0.26115865727745557)	(6.229905726252019, -8.594619859297957)	(5.329369403455555, 7.6939563051953748)	1.0	slash	0.715002
10	M	A	B	B					N	4	2	shapes	B	7	False	58	(0.017364206243158264, -4.4944897896942928)	(-6.0980595821913379, 4.0718281855009177)	(-8.017725799414599, -3.5517526699695452)	(5.5343114108426441, 2.6468166006922029)	1.0	slash	0.917416
11	N	B	B	M	M	A	N	A	A	8	5	shapes	A	7	True	58	(-5.9425564049403041, 0.095009243523625386)	(-5.9727552456571642, 6.2362909375743225)	(2.1593062306072586, 3.8121846884668837)	(4.5360441472653648, -0.98336844286572411)	1.0	slash	0.734636
12	N	B	A	M	M	N	B	A	M	8	5	shapes	N	7	False	58	(0.60883489529259371, -3.4762834781067173)	(5.8679780001368425, -3.9435011903533708)	(-0.3387838504178724, 7.6811040850387329)	(7.6590211301094975, 6.562130332918322)	1.0	slash	0.868043
13	M	B	A	M	N	B	N	A	M	8	0	shapes	M	7	True	58	(2.8573800175291364, -6.1847587135047206)	(-8.6709499433364225, 1.6151701961274085)	(5.8746899703527991, 8.2258107056608303)	(-3.2275451336591452, 1.0230544141729183)	1.0	slash	0.561427
14	N	B	A	B					N	4	0	shapes	N	7	True	58	(-0.44304521206453629, 6.4990479659373168)	(-0.99397362041957038, -0.92461289649017608)	(5.4213325969784147, 3.5515997451139114)	(4.9841654532830635, -4.3400267125491627)	1.0	z	0.713003
15	M	A	A	N	B	M	N	B	B	8	4	shapes	B	7	True	58	(-7.2856593350789911, -4.1209535180447503)	(0.82729104417554389, 0.44176310457442547)	(-6.5190633751006635, 5.8364450367760501)	(7.182430705413692, 1.3017067261369277)	1.0	slash	1.68285
16	M	A	A	M					A	4	0	shapes	M	7	False	58	(-4.364301926377478, -1.2622640196112416)	(8.3000533387878548, 0.79929766380180212)	(7.305738209792171, -3.3313228994953059)	(-1.6125816385757998, 1.9587969189519168)	1.0	slash	1.1605
17	N	A	N	B					N	4	0	shapes	N	7	True	58	(-1.6886437286934122, -6.9593231214377758)	(3.6577053114684475, 0.99591339422293146)	(-4.0697788070000387, 7.3114425913226171)	(3.8754401106051617, -4.0128038352390289)	1.0	slash	0.786316
18	M	A	N	M	A	B	N	B	A	8	1	shapes	A	7	True	58	(-0.42755320033914224, -5.9529225289429331)	(4.6764957174373656, -4.744449232773472)	(-5.7943550650177746, 4.3402509463045433)	(-7.1516699164952158, 8.259659686573567)	1.0	slash	0.829979
19	M	B	B	N					M	4	0	shapes	M	7	True	58	(-3.2360488850095397, 0.32680123265213012)	(5.2377767404262645, 4.4200801307900299)	(-7.1268255722528906, -2.3608950275782199)	(6.0027058189143929, -0.33352562050690793)	1.0	slash	1.21766
20	N	A	A	M					N	4	0	shapes	N	7	True	58	(7.6361426400614896, 5.6151825082689335)	(0.50929033759594056, -2.3113829231072964)	(-7.9496338329063541, 1.8878170036995368)	(-6.5920815063334395, -7.1257899636711297)	1.0	z	1.10906
21	M	A	M	A					A	4	1	shapes	A	7	True	58	(2.4489366115633651, 6.2497064027294815)	(-2.5824649076669477, -2.1379266745115819)	(1.5173028865483822, -2.2892632843760206)	(-4.5834341968112478, 5.58087886820379)	1.0	z	0.694897
22	M	A	B	B					M	4	2	shapes	B	7	False	58	(-8.5002221103588234, -7.3819266899133105)	(6.2571042359299724, -6.9131818027325966)	(-8.1074701335679418, 2.2370893171973538)	(1.067827614891927, 6.6430521163317966)	1.0	slash	0.740574
23	N	B	M	B	A	M	N	A	A	8	6	shapes	N	7	False	58	(7.5552212426554455, 4.1580501485578445)	(-8.7283042639492496, -0.081210205288343218)	(-3.521100497476283, 5.4558749310519818)	(2.7867137138848239, 4.0885536277306045)	1.0	slash	0.44209
24	M	B	A	M					M	4	3	shapes	M	7	True	58	(-2.4928817640864498, -1.2372843915650131)	(1.8089155114743338, -8.5221127313833005)	(5.0282539047686896, 1.5284990910087775)	(-0.030158969261801616, 6.7918456243769931)	1.0	z	0.987878
25	N	A	N	B					A	4	3	shapes	B	7	False	58	(-7.5552381874976922, 6.5283082051501999)	(-4.8395422086508226, -1.0187503950436589)	(3.5784672527520787, -0.66909507235390642)	(2.6783689119596339, 6.2060458312756559)	1.0	z	1.17598
26	M	A	A	N					N	4	2	shapes	A	7	False	58	(6.3466048527678964, -4.9581345799915537)	(8.6188354521457136, 8.4139549661371653)	(-6.8575618453295828, 1.3562457940043569)	(-6.7816845184433738, -8.512995657583204)	1.0	slash	0.837596
27	M	A	A	B	N	B	N	M	M	8	6	shapes	N	7	False	58	(5.1060009497498537, 8.3800551249333139)	(0.88936222053617797, -1.2894869463579433)	(8.6125841775611782, -7.3696930466799326)	(-1.2863698411666, 5.4117879259836297)	1.0	slash	0.793386
28	M	B	B	A	M	A	N	N	A	8	4	shapes	M	7	False	58	(4.1600771773286898, 8.4469984472467061)	(4.1571412748047685, -8.5615997595650093)	(2.5733350515825038, -3.1227737259447501)	(4.5341301774094767, 4.1685717386353236)	1.0	z	0.452929
29	N	A	A	N	B	M	B	M	N	8	3	shapes	N	7	True	58	(1.8994281918776768, -7.9263316524747802)	(-8.1711305493156861, 3.9888988875365374)	(-2.7450844213121863, -2.6593927945156421)	(1.6379054633401289, -0.07372934348002147)	1.0	slash	0.68253
30	M	A	A	M					N	4	3	shapes	M	7	False	58	(-4.9304687097871582, -6.5124878729968891)	(-7.8470445210512301, 7.5300204217632185)	(0.24663199770150079, 2.7427825631057274)	(5.4497140669515769, -6.9267266774434324)	1.0	slash	0.800401
31	M	B	A	A	M	B	N	N	B	8	1	shapes	B	7	True	58	(1.6189151191731312, 2.386247422034625)	(-2.450140332120923, -7.8108336521968784)	(-0.6613601303455372, -4.1936147561443455)	(-5.1648788564144636, 6.4364370006542302)	1.0	slash	0.931336
32	N	B	B	M	A	A	N	M	B	8	7	shapes	M	7	False	58	(-6.1352633442139686, 7.766396748923885)	(6.1859423638641537, -5.6511582910123952)	(-2.5604231307609968, 5.592719569716218)	(3.1296854342942968, 5.9507490415668958)	1.0	slash	0.979623
1	M	A	A	M	B	N	N	B	M	8	0	shapes	M	8	True	58	(6.5810630381675548, 3.1582422873307099)	(-4.9955790214730058, 8.619418163888124)	(-3.1099631147254199, 3.3360512669694806)	(0.12243271682811496, -7.4160601174219956)	1.0	slash	0.752596
2	M	A	N	N					B	4	2	shapes	N	8	False	58	(4.876550592293496, 3.7896306084549778)	(-8.7277428218131536, -0.24027588394399935)	(4.5344325880847904, -2.0508533419835757)	(-4.9867689424330166, 7.8019000675187407)	1.0	slash	0.613057
3	M	A	B	M	N	A	B	N	B	8	3	shapes	M	8	False	58	(4.3950636093325937, 6.5697004673923942)	(7.1672999279055869, 1.5020965729718725)	(-2.3274676478385832, 8.2112016875211182)	(8.074881240458879, -2.973966620414215)	1.0	slash	0.612307
4	M	B	B	A	M	N	N	A	B	8	2	shapes	B	8	True	58	(8.1225764370936098, -4.268017211830152)	(-5.7771288978745456, 5.4193588614311423)	(-0.92034457087691557, 5.5366106538840683)	(-2.29416334729643, -0.35133079324002736)	1.0	z	0.981983
5	M	B	N	B	M	N	A	A	M	8	0	shapes	M	8	True	58	(-3.4280789810200272, -7.3001883932974208)	(-5.5315582144055, -2.1954169656351983)	(8.0935207368365916, -4.9659645145253171)	(0.95585403143794601, 1.5604488767207005)	1.0	slash	0.6594
6	N	A	B	M	A	B	N	M	B	8	1	shapes	A	8	False	58	(1.3291066756866776, -7.4539210213884388)	(5.2692058396711126, 3.4887050047934807)	(-3.3951424430853079, -3.5521029736383793)	(8.4124417141047374, -7.7439623103579009)	1.0	slash	0.497131
7	N	A	M	B					B	4	3	shapes	B	8	True	58	(-2.695022223053142, -1.8957721171893196)	(7.5069433614955763, -7.1847371869939236)	(1.725634985169382, 1.5732382310306487)	(-1.6329537493704045, 6.5541224249310925)	1.0	z	0.756528
8	N	B	A	B	N	M	A	M	B	8	3	shapes	B	8	True	58	(-0.6012682347592051, 2.0943428414425238)	(-7.7534634241714038, -5.9192596399516892)	(-4.4842216378982886, 3.5838233062382976)	(0.57969308318214985, -4.6520553984489359)	1.0	slash	0.520916
9	M	A	N	M					B	4	3	shapes	M	8	False	58	(-8.0861550689205082, 2.7547855962886789)	(-3.1693383155287771, -2.4976102189626221)	(2.117386624915806, 7.5643329273150428)	(5.4663108267013083, -0.40117541088997122)	1.0	slash	0.536633
10	M	A	B	N	A	B	M	N	N	8	1	shapes	A	8	False	58	(-4.0994496327721244, 4.021280659745031)	(4.6415166659520537, 0.5406229562486633)	(1.8267143074792784, 7.6788701547711611)	(0.97418898407113375, -5.4494821900275401)	1.0	slash	0.501573
11	M	B	B	M					B	4	3	shapes	M	8	False	58	(-4.6394169663626856, 8.1304721174668622)	(-1.4497167166759182, -2.2589200088403727)	(7.4009831023886008, -7.7911392444320215)	(6.5141199239262217, 1.0615578493724911)	1.0	slash	0.394048
12	N	A	N	B					A	4	1	shapes	A	8	True	58	(5.0983220032025862, 3.8629554908871242)	(-7.0278908840466663, -0.58217704513873691)	(1.704035483553815, -5.952204938902196)	(-4.201150742412926, 4.330494048520741)	1.0	z	0.525001
13	N	B	N	A					M	4	2	shapes	N	8	False	58	(-4.8534649235732399, -1.3527773770354639)	(-1.2256312182312659, 5.8174793955179211)	(4.2638866488200033, 4.5363086893378135)	(6.6556969940907411, -3.4728914122067422)	1.0	slash	0.571517
14	M	B	M	N					M	4	0	shapes	M	8	True	58	(-3.2723541955742785, 8.6866706429968907)	(-8.0810437108922208, -1.2894913954572544)	(7.0813365434843849, 8.1394292366498213)	(8.2929083123751752, -0.091388010529879438)	1.0	z	0.657238
15	N	B	M	A					B	4	3	shapes	A	8	False	58	(-6.6879297703757068, 6.4382039885515283)	(1.2016040469663185, 1.3095497182545284)	(0.61331964279801277, -7.8734702185776486)	(-7.862038699516531, -2.196331555253642)	1.0	z	1.23033
16	M	A	B	A	B	N	N	M	B	8	2	shapes	B	8	True	58	(8.2176286426563934, 1.1387125343502138)	(-1.8961595750281326, -4.0670719457336286)	(8.0606924337350669, -4.906098677954974)	(4.0447171868177225, 1.2421673952216565)	1.0	slash	0.794371
17	N	A	M	B	M	N	B	A	B	8	3	shapes	B	8	True	58	(-5.7689640078971944, -1.802397382214636)	(2.6539325525395761, 2.2384229025081339)	(-1.2160613175896735, 8.2054029559368971)	(-6.5329274695311641, -7.0639565721174673)	1.0	slash	0.837297
18	M	A	M	B	B	N	A	N	B	8	0	shapes	M	8	False	58	(4.7278557824539273, -4.5227931454057284)	(-5.329694046481797, -2.0634694362735937)	(-7.5996481133022744, 8.2091875572871054)	(-2.4992345512235623, 6.1810990007398718)	1.0	slash	0.559021
19	M	B	A	B					B	4	1	shapes	B	8	True	58	(3.4419735004787739, -7.7087532549338516)	(-5.6626079418952218, -5.2488465734867997)	(0.6369002489604636, 8.5175030857690501)	(-7.8052422671420238, 5.6576014908414187)	1.0	z	0.93467
20	N	A	A	N					N	4	3	shapes	N	8	True	58	(8.1850724367357302, -4.1830774718605337)	(3.088651055241554, 6.0771769579550856)	(-6.483072782682914, 7.0319544429486491)	(-2.2893486343319456, -8.3159672320955753)	1.0	slash	0.679746
21	N	B	B	N	A	A	M	M	A	8	2	shapes	B	8	False	58	(-0.57313157967519501, -7.3354249125575199)	(8.3255726498448368, -2.3911133650432195)	(-3.8867669382416317, 7.5091750105605506)	(-5.7989303645305945, -6.441014367210987)	1.0	slash	1.21776
22	M	A	A	B	M	N	B	N	N	8	5	shapes	N	8	True	58	(-0.40544113282581584, -0.30948537601985748)	(-6.4432912188599127, -8.6088435772838672)	(-8.6147922878267291, 8.1975635025921036)	(-2.2834282968000128, 5.5346131496224356)	1.0	slash	0.657666
23	M	B	N	B					B	4	1	shapes	B	8	True	58	(-5.7149254469401551, -4.2668459899498137)	(0.038745470326043474, -7.9224926046501372)	(3.1926540662830334, 6.3571487108264684)	(-1.4271993726482703, 8.674834998323302)	1.0	slash	1.00508
24	N	A	M	B	A	N	B	M	N	8	5	shapes	N	8	True	58	(1.5851169873734587, 2.1763199421574733)	(-5.1592120001400268, 0.081188802881257516)	(-2.0386255217254536, -3.3552310356768755)	(-2.2142945415150406, -7.4552009004277782)	1.0	slash	0.630618
25	M	B	N	B	N	M	A	A	A	8	1	shapes	B	8	False	58	(0.014753737644582543, 5.4797289699427125)	(-3.846052656665008, 3.4697153047853408)	(3.5299162407419651, 0.59916769064433417)	(-8.2907250223533708, 3.7260897174719361)	1.0	slash	0.828507
26	M	A	M	N					N	4	3	shapes	N	8	True	58	(0.7955777479660604, 5.5374442397740946)	(6.5250547986672007, -1.0753477303655146)	(-2.8740590905917163, 8.0350034122209877)	(-8.4974946093338293, -5.3839518633503571)	1.0	slash	1.12619
27	N	A	B	N	M	B	A	M	N	8	2	shapes	B	8	False	58	(6.8100098356842675, -3.2112716927390421)	(6.7300663603951811, 3.9932378500416945)	(-3.686009887092025, 8.6286481440912617)	(-3.3509962386493584, -0.8727641214179549)	1.0	slash	0.791945
28	M	A	A	M					B	4	2	shapes	A	8	False	58	(-4.2829534597055989, -6.0927861688101235)	(7.8566004573008534, -5.5238857505840269)	(3.941062577785285, 4.2705169929204043)	(-6.5482217188463974, 8.6208681680639359)	1.0	slash	1.16136
29	M	B	B	N					N	4	3	shapes	N	8	True	58	(-3.2470406287296054, 1.6208043680262243)	(7.2783537915633936, 4.5476471277315724)	(1.3680562521523232, -4.8892988808935627)	(-6.1756536577882759, -4.5564080464767338)	1.0	z	0.890882
30	M	B	A	M					B	4	0	shapes	M	8	False	58	(4.3618672688877105, -1.6493869104352665)	(-2.0247315626992695, 3.3888578202197781)	(-2.8834354702261376, -1.9101645142490025)	(6.3507741918159066, 3.2283500798152343)	1.0	slash	0.634604
31	M	B	B	N					N	4	2	shapes	B	8	False	58	(2.5575374795641856, 1.6702723790424443)	(6.5219345221875145, -3.5044956516577939)	(-7.4072320450164231, -3.9463646908317305)	(-1.2490707617476868, 5.8187934616150976)	1.0	slash	0.812239
32	N	A	A	M	B	N	M	B	N	8	7	shapes	B	8	False	58	(8.6183530616233419, -1.6942236441572884)	(-4.8326426983989847, -1.0149316693082513)	(6.2710067558070826, 8.4364197514120534)	(-6.7513024163249717, 5.4794349047260447)	1.0	slash	0.596274
