TrialNumber	stim0	stim1	stim2	stim3	stim4	stim5	stim6	stim7	stim.probe	ttl.stims	corr.num	trial.type	stim.corr	block	match	Subject	stim.pos0	stim.pos1	stim.pos2	stim.pos3	ran	resp	RT
1	M	B	M	B	A	A	N	N	N	8	5	shapes	A	Practice	False	59	(-4.544938095917928, -5.9078674711932084)	(-1.2686867752035758, 1.0265640383369163)	(0.68673970995662081, 6.7803502980691643)	(4.4863518059970655, 0.42397136858830109)	1.0	slash	3.03228
2	N	A	N	B	M	B	M	A	M	8	4	shapes	M	Practice	True	59	(-7.3855546922268616, -2.058382258492748)	(0.74468038369216139, 1.6472186121493824)	(-2.1295186921493867, -4.6910897453484113)	(2.2620062721686178, -2.8152465759429415)	1.0	z	0.998076
3	N	B	M	M					A	4	1	shapes	B	Practice	False	59	(-7.9267103804342289, 0.2579841633697928)	(-4.1684645537949763, -2.5008906587460684)	(5.382812531479745, 7.5534079198198505)	(2.3431930763158189, -3.8702112340367627)	1.0	slash	1.50346
4	N	B	A	M					B	4	2	shapes	A	Practice	False	59	(2.5675398435142895, -5.2124984689450997)	(-5.5659807720769248, -6.8686941276465685)	(-2.0564156431184255, 4.2617975782693858)	(0.74092132416373424, 1.3701834470841305)	1.0	z	1.26905
5	N	A	B	B					A	4	1	shapes	A	Practice	True	59	(-7.0536058063456135, 4.4046292793847659)	(1.5324165721710319, 1.0390217194360165)	(5.0230694550667785, -4.2865823268293264)	(-2.4217442287990316, -5.0706048922507199)	1.0	z	1.08884
6	N	B	N	M	A	A	M	B	B	8	7	shapes	B	Practice	True	59	(-5.2628993480623887, -6.9187967828469121)	(-3.5393302475343082, 0.85889872854217586)	(6.4036006741939371, 6.4540251728635027)	(-8.5434770457845168, -0.64432123321891588)	1.0	z	1.52434
7	M	B	N	N					N	4	3	shapes	N	Practice	True	59	(1.3051068593388901, 8.610495905924072)	(2.297862793037142, -1.2720419490080692)	(-4.9514673256508344, -8.558231819269448)	(-8.2755974877784944, 0.33632737976835436)	1.0	z	1.7819
8	N	B	N	B	A	M	A	M	A	8	0	shapes	N	Practice	False	59	(-3.1611110835377705, -5.3289099450096948)	(-4.4470132228311483, 8.2526998497296198)	(2.5441322460499052, -2.386886802434061)	(7.7100397357360464, 4.1721563840445839)	1.0	slash	0.925545
1	M	A	A	N	B	M	N	B	N	8	4	shapes	B	0	False	59	(2.0232724774988977, -5.8055959995001851)	(1.1392340484049388, 3.4370261839855232)	(7.9713381507070267, -6.0687774135847228)	(-6.8356084065028693, -3.4225152891090049)	1.0	z	1.017
2	N	A	A	M	M	B	N	B	B	8	7	shapes	B	0	True	59	(-7.0093027662358187, -5.1376169173595319)	(-0.12440700855134601, 2.7193573674415976)	(6.2589000598505127, 8.5731300428692947)	(3.4073227152061012, -1.3203871206165951)	1.0	z	1.00261
3	N	A	N	M	A	M	B	B	B	8	7	shapes	B	0	True	59	(-7.3881762668918185, -4.7624533738069044)	(5.3134443946353151, 1.5115199094576006)	(6.2139751162580072, 7.7696525976368491)	(8.3541171169198023, -7.750145267434152)	1.0	z	1.00618
4	M	A	A	B					M	4	0	shapes	M	0	True	59	(-3.1979890229652188, 4.8838055639502169)	(6.292107895114663, 4.7460463030127578)	(5.9804281602163236, -2.2723980348097825)	(-5.2592516431704137, -6.0738058191658642)	1.0	z	1.43997
5	N	A	B	N					N	4	0	shapes	N	0	True	59	(-3.5059624055757963, -0.73384141046367901)	(1.1043149442306834, 6.5477163144220309)	(2.5575867204986462, -4.5542357693548201)	(-2.9643094847237013, 3.5817601368322922)	1.0	slash	1.48131
6	N	A	M	A					A	4	1	shapes	A	0	True	59	(1.5328811045200208, 1.0571008184887809)	(-0.29962278710596379, -4.0819065518869717)	(-3.8638064419388769, 4.5451381723036448)	(5.7508237272513441, -3.5377676925232677)	1.0	z	0.819178
7	N	B	M	B					B	4	2	shapes	M	0	False	59	(7.5012799416707949, -7.1169409975684248)	(6.9231144455867337, 8.2627117725118246)	(-0.39503661427701786, 0.20681709373858581)	(-4.3809185123926566, -1.1051339891959504)	1.0	slash	1.24879
8	N	B	B	N	A	A	M	M	M	8	6	shapes	M	0	True	59	(-1.657321011628258, -1.4670550587748217)	(-4.4133963900102735, 3.1414376777041522)	(1.8133156058385769, 4.0068636010060406)	(-8.1139502896658513, -3.1035499364470507)	1.0	z	1.05225
9	N	B	M	B	M	A	A	N	A	8	7	shapes	N	0	False	59	(3.2522674133256562, -4.8325694878264116)	(-3.6633039823282187, 8.1431810374570581)	(-3.749334702179115, 0.48762884831537612)	(3.1414700635981738, 0.4761095277778864)	1.0	z	2.08598
10	N	B	N	B	A	A	M	M	A	8	7	shapes	M	0	False	59	(-4.0449796055693188, -0.79220108350594742)	(5.0918203934236317, 3.5126434240818032)	(-2.9712948866741993, -5.601463486782789)	(-5.7881664340353902, 7.8331584136063839)	1.0	slash	0.857491
11	N	B	M	B					B	4	1	shapes	B	0	True	59	(-0.0010016665008247827, 6.5410898137412357)	(5.2044188454737412, 0.66773574655203838)	(-2.0493151589917105, -1.896254710336148)	(2.9191153304064255, -4.2571055186786602)	1.0	z	1.3372
12	N	B	B	M	N	M	A	A	A	8	6	shapes	A	0	True	59	(5.6809817483816456, 3.9593178218958265)	(-4.1492692017667041, -7.348331638625023)	(-0.61460786294155945, -3.0070460516964284)	(3.4704305432003419, -5.2120975149570139)	1.0	slash	0.858824
13	M	A	B	B					B	4	3	shapes	B	0	True	59	(1.9040527423071971, -1.6239957258020867)	(6.4680921300839884, 1.6323478772013083)	(-2.8817405397521645, 7.5745534708003532)	(-6.64285359094964, -1.8125669782553091)	1.0	slash	0.856507
14	M	B	N	B					B	4	2	shapes	N	0	False	59	(4.0076750915508548, -7.2460990227821345)	(-0.36785119967541569, -7.7206799921781641)	(-3.9133863741873665, 0.38519695934905762)	(4.414180425031784, 3.0504676224252822)	1.0	slash	0.744115
15	N	B	M	M	A	A	B	N	B	8	6	shapes	B	0	True	59	(6.5086596363724727, -6.3065920745751392)	(-3.1873420617154302, 6.8097528603995681)	(2.1863108991903424, 3.6097529572525549)	(-5.758222792653557, -1.0290340222741694)	1.0	slash	1.60764
16	N	A	B	B					B	4	2	shapes	B	0	True	59	(-4.3695645846812887, -2.6235908554182563)	(8.2214442875892253, 3.178557811236983)	(-1.9380066482522018, 6.2538001480868051)	(0.00065094013243083282, -0.23778503112645311)	1.0	z	0.559553
17	N	A	N	M					B	4	3	shapes	M	0	False	59	(6.9708389580898888, 6.9269952486744657)	(8.5773251571005922, -1.4235678821694719)	(-8.1863451590552128, -4.7103850833562353)	(-7.3474837421081816, 2.5765437323461136)	1.0	slash	0.792887
18	N	B	M	B	A	M	N	A	B	8	4	shapes	A	0	False	59	(-3.7414474201186332, -3.307447412754418)	(-3.0030469627454153, 3.5979116372575319)	(5.273556878427712, 0.090807930161826533)	(0.67425644607143731, 6.4200034283614809)	1.0	slash	2.43873
19	M	A	N	M	N	A	B	B	B	8	2	shapes	N	0	False	59	(8.3920333818669661, -1.730435875782999)	(1.3755207941582395, -4.5925409862536943)	(8.355012559769186, 3.5254322196536538)	(2.8582949840017129, 7.6495433760232707)	1.0	slash	2.17236
20	M	B	N	B	M	N	A	A	B	8	5	shapes	N	0	False	59	(-2.5420356628093677, -6.3364030024253246)	(-7.4265478746657099, -5.8528052656403364)	(-3.2929455426249064, 8.6025179457611252)	(7.7623523421911678, 1.6605299037716268)	1.0	slash	0.589838
21	M	A	B	M					B	4	3	shapes	M	0	False	59	(-1.4427136602665662, 6.447696197651684)	(-1.8964411653649105, -5.5224004081677158)	(3.6009063798653571, -0.65037661530030633)	(6.5179908219503098, 3.8585755158994903)	1.0	slash	0.609547
22	M	A	N	A	B	B	N	M	A	8	1	shapes	A	0	True	59	(2.3397691611650568, 4.7638664117431446)	(-1.5385037391162104, 3.6188811941690933)	(-2.4880590314127078, -8.3366871174005475)	(8.1284924549414868, -5.0273515631840375)	1.0	z	0.605223
23	N	B	N	A	A	M	M	B	N	8	3	shapes	A	0	False	59	(-3.1980104349727148, -2.5195948222061304)	(-6.7885762946092072, 6.7741363999312227)	(-1.3061320299578139, -6.9170253529976895)	(-3.1855029713609442, 4.6979644823838385)	1.0	slash	0.664857
24	M	B	N	M	B	N	A	A	A	8	6	shapes	A	0	True	59	(1.2847571760183314, 2.55852848105412)	(-7.0651796059918492, 1.7365856960486923)	(-0.22333444519498435, 6.3289873674604387)	(0.89594371497328851, -6.0512842675863538)	1.0	z	0.640488
25	M	B	N	N					N	4	2	shapes	N	0	True	59	(-8.1197637428683258, -4.3497948544662917)	(2.5216255029635199, 5.8719683622343855)	(7.7551843029660255, -2.384774537919129)	(-1.7290290649629618, 2.1213703835296851)	1.0	z	0.786003
26	M	B	M	B					A	4	1	shapes	B	0	False	59	(-6.0339484487055071, -6.8029541203904351)	(3.5301931948868752, 6.7192834740007825)	(-3.9449534787079727, 2.8982610162234721)	(5.840751692577463, -1.9436620839439431)	1.0	slash	0.591821
27	M	A	B	B					N	4	1	shapes	A	0	False	59	(-6.1086075596856357, 7.4564353235163381)	(-8.4018293086641975, -5.7514813290904279)	(8.1866434122139182, -1.8114386110793754)	(6.3511838689500557, 4.0033365451853236)	1.0	slash	1.05928
28	M	B	A	N	M	B	A	N	B	8	3	shapes	N	0	False	59	(-2.4623508809335295, -5.2434162442473058)	(7.0383464821611668, 1.0538673577653821)	(-3.7761663807084735, 0.31334456085389562)	(0.48199313627773144, -0.63195219968290139)	1.0	slash	1.2129
29	N	A	A	M	M	N	B	B	A	8	1	shapes	A	0	True	59	(8.0779437515332013, -7.2261353987763677)	(4.8610540866856873, 6.2707823733796815)	(-5.3683209556318161, -6.5793966158237174)	(4.4936323275310297, -3.8437338378081254)	1.0	z	0.614719
30	M	B	M	B					B	4	2	shapes	M	0	False	59	(-2.2104044050679512, -0.90575391647061476)	(-5.7018083607637022, 5.8019567289233542)	(7.2647495695658826, 6.3226654488901399)	(7.9685551678009681, -6.0945868386133668)	1.0	slash	0.894401
31	M	B	A	N					B	4	1	shapes	B	0	True	59	(-4.400406527799797, 2.9364991801266918)	(7.9616703002222771, 6.5787592646566395)	(-0.69542655256235264, -4.4478339137170471)	(5.6861432016059901, -7.755647553870709)	1.0	z	0.926166
32	M	A	M	A					N	4	0	shapes	M	0	False	59	(-6.7726458873202002, 0.70792489767605105)	(5.6153686524198072, 3.390512431562982)	(-8.5385313796044588, -5.544902925384255)	(3.6669820449276997, -3.6198730163190804)	1.0	slash	22.4952
1	N	A	B	M	M	B	A	N	N	8	0	shapes	N	1	True	59	(6.0337697511294497, -2.4971584680590651)	(-3.3295059073157978, -5.5733979876910018)	(-7.8312627789254394, -0.62583374712029283)	(0.81863464116838003, -5.5127504890850325)	1.0	z	1.01957
2	N	B	N	A					N	4	0	shapes	N	1	True	59	(2.4238951326144367, 8.6441743662257942)	(-1.5307138194032284, 0.17027546478735367)	(-5.3744718054221661, -4.9483114563377608)	(6.368145275239554, -5.3595498656144009)	1.0	z	0.873221
3	N	B	B	A					N	4	1	shapes	B	1	False	59	(-3.7208094730952288, 5.9195998761474566)	(2.5316152570763375, -0.27526350848858172)	(6.9920067608221395, 3.6290781207252873)	(-1.3862225169014515, -5.411285552760317)	1.0	slash	0.900763
4	M	B	M	N					B	4	1	shapes	B	1	True	59	(-5.2645028013286774, -6.135394848526305)	(1.4307927501370994, -1.1478405864273924)	(1.3807730304650683, 8.3273164426795852)	(-2.705444533199409, 6.7475663627455287)	1.0	z	1.24259
5	N	A	M	B	M	N	A	B	M	8	6	shapes	A	1	False	59	(4.3602372646645673, 0.50235705193133739)	(-5.3104334617395246, -6.274157248789507)	(6.486690865220659, 5.0729708613918696)	(7.9616256644062453, -3.2042079907744885)	1.0	slash	1.63818
6	M	B	B	A	M	N	A	N	A	8	4	shapes	M	1	False	59	(3.3672992345802175, -1.936231074233751)	(-2.5008242407174199, 3.7289673847313036)	(-1.7730205038152382, -4.8138331824122051)	(1.8684700205927989, 4.5903445962692473)	1.0	slash	0.755693
7	M	B	B	M	A	N	A	N	A	8	6	shapes	A	1	True	59	(-1.5248418964616359, -7.990374612636292)	(-1.9003403461504691, 7.541879859561945)	(1.8134718403934258, -3.2710395205704774)	(-4.5652561775599088, -2.837388550414361)	1.0	z	1.13729
8	M	A	N	N					A	4	2	shapes	N	1	False	59	(1.205091330620256, 5.0761132129503252)	(-7.9831774801353221, 0.67185565770628664)	(4.7369618818430794, -6.4455566110625675)	(-1.8459126263384826, -8.2912911592657004)	1.0	slash	0.888962
9	M	B	A	M	N	B	N	A	N	8	0	shapes	M	1	False	59	(3.763340107972283, 4.7012327789744788)	(7.0854701513649587, -8.0837919797057687)	(-6.8826074487923101, 7.8325283199450872)	(-2.0697181932717355, -5.3444733938687925)	1.0	slash	0.684674
10	M	A	N	B	N	B	M	A	A	8	7	shapes	A	1	True	59	(-1.1454833650440728, 6.3954201006634026)	(3.0845931434579725, -1.5399945982921359)	(-0.85081449444157453, -8.7222797994583257)	(-0.79296539280627698, -3.7277766594051815)	1.0	z	0.800411
11	M	A	A	M	B	N	N	B	A	8	2	shapes	A	1	True	59	(1.8015286832560822, 4.4969768429012174)	(-5.329041391494501, -4.014865296496315)	(7.8015557790967414, -7.5116575197689901)	(-3.9348075510313372, -8.4314205867612202)	1.0	slash	1.39805
12	M	B	M	A					A	4	3	shapes	A	1	True	59	(4.865843544935716, 8.0739578506931018)	(-6.6817346507005668, -2.0124672006842834)	(1.4231043846942093, -3.8198862430919043)	(-7.5492970100160113, 7.0814086280281501)	1.0	z	0.77573
13	M	B	B	N	M	A	N	A	A	8	7	shapes	A	1	True	59	(6.3687814840549049, -7.2269584943961256)	(-7.2352034421867, -4.9690716106728967)	(-1.1113082188398913, -6.5972960441533051)	(4.4630209090787325, 7.6278610077083009)	1.0	z	0.945433
14	N	A	N	B	M	A	B	M	N	8	2	shapes	N	1	True	59	(2.5046293893317344, 3.6840680646481925)	(-4.8411261134758288, 0.52234092280444422)	(-1.636552204348634, 3.4958182107531783)	(6.9779357225378735, 3.9367836447554332)	1.0	z	1.09693
15	M	B	N	M					A	4	1	shapes	B	1	False	59	(-0.43522668627264238, -2.0346240517675236)	(5.6093450857016549, 8.2700306428671979)	(-1.5107283799854825, 5.9696187024035474)	(6.0360563465204002, -6.2008464739761777)	1.0	z	1.39057
16	N	B	M	M					M	4	3	shapes	M	1	True	59	(4.5667329555206795, 4.8961082084967487)	(-3.4043275153757575, 7.9352462681021194)	(-4.5327157174716906, -7.3870806970744258)	(3.4640032836455639, -5.4178426455365738)	1.0	z	1.79418
17	N	A	A	B	M	B	N	M	N	8	2	shapes	A	1	False	59	(-3.5701657815356267, 7.2175484770847707)	(2.5121580615483587, 4.2074239696266158)	(-8.2882368339970398, 4.4267854860714557)	(6.7765972086239898, 3.5667332398652469)	1.0	slash	6.7756
18	N	B	A	M	B	A	N	M	M	8	2	shapes	A	1	False	59	(5.9487919676946834, -4.0136091815627655)	(-2.02264843910352, -2.586801114399603)	(3.6101775101104092, 5.0204933767652928)	(-1.8773745620418811, 5.7717805825959143)	1.0	slash	0.840864
19	N	A	B	A					M	4	3	shapes	A	1	False	59	(7.2771878095842588, 8.3362628468364441)	(-1.9254269149057404, 4.1998842530935168)	(8.1894659035074113, -0.41724827235191597)	(-4.4405778255306858, -5.4546105345636233)	1.0	slash	0.914535
20	M	A	N	M					M	4	3	shapes	M	1	True	59	(4.4927784989194741, 5.6849230489381508)	(0.49601734628291894, -7.163272645242416)	(-2.465924850764698, -2.7907441737320955)	(-5.2360180225262436, 0.16316709731922252)	1.0	slash	1.39811
21	M	B	A	A					B	4	1	shapes	B	1	True	59	(0.069281941652304724, 8.2361907808983759)	(7.6058228253815265, -0.21696284180140246)	(-8.3665868297087815, -2.055277129896246)	(-3.5509570280773328, 2.5854122967833497)	1.0	z	0.911898
22	N	A	B	A					M	4	2	shapes	B	1	False	59	(5.7345269888375388, 3.6605617758097733)	(-1.2135436355590814, -0.77020186031873283)	(3.7391473516223126, -2.2795869214614761)	(-5.5147871224773386, 1.5839894670865089)	1.0	slash	0.875666
23	N	A	M	B					N	4	2	shapes	M	1	False	59	(-4.9931109065367654, -6.1716009879559603)	(7.5729321405243262, -2.3022253954076355)	(1.5226254143640983, 2.2005875121176413)	(-4.2111813000994518, 4.8737076824973133)	1.0	slash	0.951255
24	M	B	M	B					B	4	2	shapes	M	1	False	59	(-5.902073682800868, -0.24524975764006385)	(-4.9074820167078839, 6.5861378091661855)	(4.6006799442479291, -0.15185217201929824)	(2.8953806126760071, 7.1129231930434003)	1.0	slash	0.954737
25	M	A	A	N					M	4	0	shapes	M	1	True	59	(-6.1101037470931043, 3.795244131833801)	(-4.6446395425842439, -2.9221178691932437)	(3.750276191259676, 0.47852000508950709)	(6.6029678100797895, -2.5212477292919466)	1.0	z	0.942294
26	N	B	N	A	A	B	M	M	A	8	6	shapes	M	1	False	59	(8.1496188534944132, -3.0022672666042753)	(-0.52856760690363025, -5.9477156952515582)	(-8.6976634876286045, -4.0697498183797123)	(-3.6829488992728034, 7.5338113701597713)	1.0	slash	1.15802
27	M	B	N	N					B	4	2	shapes	N	1	False	59	(-2.5155776833962094, 6.2767319210523151)	(5.0832538841863464, -2.1034525381840323)	(-2.3581622585134951, -1.3016858364597512)	(3.5828246995255935, 2.6390130284346434)	1.0	slash	0.919745
28	M	B	N	M	N	B	A	A	A	8	7	shapes	A	1	True	59	(1.0191651729339348, 1.9549225683985973)	(-6.4247656725802225, -2.336072738895548)	(-3.1504244718645884, -6.438245693319784)	(6.4797442882229852, 2.5753327398206629)	1.0	z	1.06131
29	N	B	M	B	M	N	A	A	M	8	0	shapes	N	1	False	59	(2.3334191697219637, 8.173964928541281)	(0.066989959530529219, -2.1247144089151977)	(-4.120508523882016, -8.1264831437423304)	(-6.4704012534504312, 2.5591176471234007)	1.0	slash	0.8928
30	N	A	N	B	A	M	B	M	B	8	7	shapes	M	1	False	59	(0.7502363371651537, -0.13555124022930443)	(-8.2540893092718104, 2.332441510964367)	(2.3128505424927575, 4.5501142942917916)	(-6.905922319194767, -8.3363259810801065)	1.0	slash	1.00077
31	M	B	N	M					B	4	1	shapes	B	1	True	59	(-3.5552726972684159, 7.6924789318095037)	(6.3391954994488966, 4.1253143984223453)	(4.0246613427571045, -0.20213401708484824)	(-5.0591748538050894, -2.7007749482528167)	1.0	z	0.930324
32	N	B	N	A	B	A	M	M	N	8	0	shapes	N	1	True	59	(-7.2961011935634126, -1.0591273089743982)	(-5.4595716349719901, 6.27067198379725)	(8.224463944011692, -5.6433623298468421)	(5.1747630334068084, 7.7070082825353339)	1.0	z	0.917957
1	M	B	A	A					A	4	2	shapes	A	2	True	59	(-2.6305316924301607, -4.5151475651621737)	(-5.8991224997552854, 7.4446817193174226)	(6.5018318284691219, 3.2992869324601646)	(4.8382984338215369, -3.1411346228479671)	1.0	z	0.899543
2	N	A	M	M					N	4	3	shapes	M	2	False	59	(4.7419711542425294, 2.4551811056393369)	(-5.6075947948827105, -5.1498117025364252)	(1.9670741140940606, -4.52214186295903)	(-1.0135475628371093, 2.9625891331309937)	1.0	slash	1.21719
3	N	B	N	M	B	M	A	A	M	8	6	shapes	A	2	False	59	(1.0809570276580001, -5.3387340183211336)	(6.5442245495119717, -5.3906989901666673)	(3.6470025081846096, 5.9766854900417545)	(-7.8360908867265131, 1.6494922213013741)	1.0	slash	1.70678
4	M	B	N	B					B	4	2	shapes	N	2	False	59	(-6.2200503124952391, -6.8321779615004212)	(4.0656178129782834, -3.798577715181148)	(-2.1254477563630063, 1.3183497893643228)	(6.4093586009298029, 5.769707525794205)	1.0	slash	1.48041
5	M	A	B	M					M	4	0	shapes	M	2	True	59	(7.2051417348398488, 6.4020659353460694)	(-7.2923605169802661, -3.6801071311575493)	(-0.8461511407256328, 2.8497282789371496)	(0.6219843169410435, -7.1677846834828118)	1.0	z	1.22612
6	N	B	B	N	A	A	M	M	M	8	6	shapes	M	2	True	59	(-7.5543599111204403, 5.7879452563071858)	(-3.0527586816869077, 6.3878269981141536)	(-8.6440842545905454, -1.3502254685140764)	(-2.4380022364387255, -7.2358600953792402)	1.0	z	1.02546
7	N	B	B	A	N	M	M	A	M	8	3	shapes	A	2	False	59	(7.056126500600838, -8.6250615404497673)	(0.30695285681228412, -5.4145519866597542)	(-7.3276637721293501, -8.3022884000013359)	(3.3797061854732355, 3.4577489228747744)	1.0	slash	0.985123
8	M	B	A	A					M	4	3	shapes	A	2	False	59	(3.7870133316272376, -0.20506857135815082)	(6.0173241527787393, 4.3380496177263428)	(-7.9271929786362563, -5.6246997271230406)	(-1.7698464902034283, 1.211381106530137)	1.0	slash	0.950932
9	M	B	B	M	A	A	N	N	A	8	5	shapes	A	2	True	59	(0.98115746963805606, -1.6000842526756207)	(-3.2344302492344843, -8.1016555212874692)	(-3.3736850378643028, -0.86363940458257549)	(6.942597889564782, 3.1849522734473883)	1.0	z	0.956661
10	M	A	A	B					M	4	0	shapes	M	2	True	59	(-3.9914249396617656, -4.1816714134723769)	(-2.4195579056545986, 5.3054598308064094)	(3.4263607475978937, -8.690126509744033)	(1.622097206360003, 6.027483048688925)	1.0	slash	1.20835
11	M	B	M	B					M	4	2	shapes	M	2	True	59	(-5.4190304780804919, -0.2197573105749111)	(6.1944608628621243, 0.46695007824133405)	(-1.5223130917381127, 1.4078923414654376)	(0.51853016228773186, -6.0857953695936464)	1.0	z	1.19974
12	N	B	A	B	M	M	N	A	A	8	0	shapes	N	2	False	59	(-7.3854527911373324, 8.2706380987242945)	(2.3205407895122629, -7.2606017223931296)	(-8.5415431385000495, 1.9406176173523804)	(1.2605109312655216, 5.0801415904596805)	1.0	slash	0.995471
13	N	A	N	B					A	4	3	shapes	B	2	False	59	(-5.4315570159675932, 3.3027169248200234)	(0.70834526683384702, 5.7420491651359367)	(-1.6807132958124278, -0.50215557540632005)	(2.8646315504432174, -4.7582743913333543)	1.0	z	1.13492
14	N	A	N	A					A	4	0	shapes	N	2	False	59	(4.4391421977171994, 2.8934717090896012)	(-1.1834936588725276, -3.7983767098343124)	(-8.5629336290828686, 6.3792394268107806)	(5.2001274262806234, -5.4570836168892924)	1.0	slash	1.10264
15	N	B	M	B					B	4	3	shapes	B	2	True	59	(6.5774380778895765, -4.2331353233474562)	(5.1845905253018394, 4.7785680615843216)	(-1.6064227321435265, -5.0426814387972296)	(-5.6653305139232586, 8.1668155442017145)	1.0	z	1.96431
16	N	B	B	M					B	4	1	shapes	B	2	True	59	(5.2458214332432345, 0.93733044290254242)	(3.644310677759691, -3.5962296815601151)	(-2.7513855756819297, 0.092553898862595574)	(-0.63349069828744042, -8.362135471821043)	1.0	z	1.11795
17	M	A	N	A	B	M	B	N	A	8	3	shapes	A	2	True	59	(4.459675454432567, 8.2917273203360793)	(0.85730134240065148, 4.4652667500627583)	(1.8682363266581383, -3.5524100149341464)	(-6.1026930436689542, -4.2917976170985899)	1.0	slash	1.56349
18	M	A	N	N	M	A	B	B	A	8	1	shapes	A	2	True	59	(8.6636071468617324, -0.95511495120663259)	(4.0640662398475325, 0.98844265885359661)	(-7.5765071866922105, 0.11029628372882883)	(5.9291656193621449, 7.341110607090549)	1.0	z	1.01509
19	N	A	A	N					N	4	0	shapes	N	2	True	59	(8.1777014145773066, 7.4204538565881819)	(-6.0970800218246746, 7.16331115709764)	(2.4122142246516827, -2.4778107300342551)	(-3.5671731930441331, -0.24085490545812505)	1.0	z	0.51077
20	N	A	B	B	N	M	A	M	A	8	0	shapes	N	2	False	59	(7.1445119503671446, 6.4549309619434929)	(4.7228110246596255, -1.7407359061631578)	(0.11063338100556841, -5.2439898545469568)	(0.1839040576201203, 1.9401202048698192)	1.0	slash	0.780479
21	M	A	N	M	B	B	N	A	B	8	1	shapes	A	2	False	59	(-2.4575079980689125, -3.8326681311686155)	(-6.9574716793747129, -5.333715878472054)	(5.917992014021376, 7.6172036764343645)	(-2.6153794891861084, 6.6698466286505464)	1.0	z	0.870034
22	N	A	B	A	M	N	M	B	M	8	6	shapes	M	2	True	59	(-0.58562956771851482, 4.1971506817057413)	(-2.4342825719174099, -7.9999479965796088)	(-6.7345589974814697, 1.9494844853204363)	(3.7867146354030368, -3.4932739818208223)	1.0	z	0.821631
23	N	B	A	N	B	A	M	M	M	8	7	shapes	M	2	True	59	(-1.1258213347921808, 5.8763859510208238)	(-0.66332314329409847, -4.7117674949087878)	(-6.692357034363817, -5.3333968354507419)	(1.8284300416958903, -8.1339873312283739)	1.0	z	0.797435
24	N	A	B	N					A	4	3	shapes	N	2	False	59	(5.8352799181077106, -0.20857495103898849)	(7.3514637257257327, 5.0682947693254885)	(-4.6365267290727532, -1.3314942544367705)	(-6.4495344707656734, 7.6976119928661859)	1.0	slash	1.16705
25	M	A	M	A	B	N	N	B	N	8	1	shapes	A	2	False	59	(6.5289224518597955, 3.6031077246348673)	(-1.9570771416119888, 1.5301585947650125)	(-6.3621926227633416, 6.2116247438368184)	(-8.119377268788778, -6.0165374141274972)	1.0	slash	1.03457
26	N	B	N	B	M	A	M	A	M	8	1	shapes	B	2	False	59	(2.9511189019802835, 7.4860397306448689)	(-6.4720185556603766, -2.0430831954175135)	(2.6113926115074158, -3.4879457462374086)	(2.3154592861602037, 1.7293240147754414)	1.0	z	1.00818
27	M	A	N	N	B	B	M	A	N	8	4	shapes	B	2	False	59	(3.5494789942460976, -6.4946163697819062)	(6.4813380863990666, -1.3043156167994709)	(-2.9199758640635674, 3.7078088872219119)	(-8.1021455714810973, 8.6729854634012824)	1.0	slash	0.899843
28	N	A	B	M					N	4	0	shapes	N	2	True	59	(6.2766629996126717, -8.6169084597087053)	(-0.81388892402096147, 6.1059808241612501)	(-7.3469148881586204, -0.15481570359156294)	(1.9232881134352571, 0.41227690702104347)	1.0	z	0.993474
29	M	B	A	M	B	A	N	N	A	8	2	shapes	A	2	True	59	(-5.5391199411234506, 8.5138983796917422)	(5.7545613855964017, 5.8078488150947418)	(1.0687784798570998, -2.2280808312962321)	(-0.49459121402104067, 4.1653951185576368)	1.0	slash	1.40726
30	N	A	B	B	A	N	M	M	N	8	0	shapes	N	2	True	59	(8.0197089460472171, -7.8178446560423414)	(0.17848765811090672, -1.6836946884203519)	(-7.7022555786484235, 5.2436421358368097)	(-6.4893267370509697, -5.0190809013286355)	1.0	z	2.78685
31	N	A	B	M					A	4	2	shapes	B	2	False	59	(2.7863031832251419, 1.2030327669458494)	(8.2856718637570701, -8.0461535034606531)	(-0.61418808484629572, 8.3273836013847458)	(-7.3526665635414457, -0.49701997695308364)	1.0	slash	1.12023
32	N	A	A	N					B	4	3	shapes	N	2	False	59	(5.2606720373637383, -8.5731142387678911)	(-3.6322984129529798, -3.4760541526449202)	(-7.8246015336607435, 3.9892886747018022)	(4.0795252214265645, 8.685912187367741)	1.0	slash	0.865884
1	M	A	N	A	N	M	B	B	B	8	5	shapes	M	3	False	59	(0.79963987895570732, 8.4092378925363995)	(-8.2608792987093214, 4.7639619460385596)	(4.0199042549175967, 3.400894055561027)	(-2.8588092409744377, 3.2409906324268025)	1.0	z	1.24364
2	N	A	A	N	M	M	B	B	A	8	1	shapes	A	3	True	59	(-6.8975247586766759, -8.7144933709539174)	(-1.769811451833994, 6.6228614106486301)	(3.4115002030551835, 2.2393794402468217)	(-6.0461544746399332, -1.6865318301476053)	1.0	z	0.975222
3	N	B	M	N					N	4	0	shapes	N	3	True	59	(-4.4130020935517411, 7.3309508996118815)	(3.9673436120247185, 4.8412732036235617)	(4.2574821235773861, -3.0941835844988823)	(-8.0076897093902701, -2.2762997188655225)	1.0	z	1.39098
4	N	B	N	M					A	4	2	shapes	N	3	False	59	(-8.1363131951883769, -3.499334868254004)	(2.9357827109881303, -3.5740072884199972)	(-3.1488231165531442, 0.38505748599624212)	(8.7470349902378892, 1.1618306960783205)	1.0	slash	1.01853
5	N	A	N	A					M	4	1	shapes	A	3	False	59	(-6.3095604891858823, -8.138018636192788)	(2.7362477315744353, -1.8327542357453606)	(-1.0695339360547713, 6.5111635565016837)	(6.8206062822811173, 4.0757741341451652)	1.0	slash	1.01616
6	N	B	B	A					N	4	0	shapes	N	3	True	59	(5.4353269844999428, 1.765562881283774)	(-5.0662954768146502, 8.6842916227293294)	(-6.3117490356208084, -6.2549624463186566)	(8.0104020621809831, -4.3509670569101297)	1.0	z	0.895858
7	N	B	N	M	B	A	A	M	N	8	2	shapes	N	3	True	59	(2.1044908452518278, -1.931703200680019)	(8.1030155229142302, 0.85787242666458496)	(4.0913407275873759, 3.2915660413095384)	(7.0140924686974131, -7.17693994724433)	1.0	z	1.25741
8	M	B	N	A					A	4	0	shapes	M	3	False	59	(-1.2848207061727086, 5.054182823520005)	(7.5450461898922541, 0.48346314612509467)	(-6.6603715686624199, -1.0282153463531705)	(1.89787186351559, -2.2789424865368426)	1.0	slash	1.84901
9	M	A	A	M	N	B	B	N	B	8	0	shapes	M	3	False	59	(-8.4708163548809701, -3.4463638210279797)	(6.065897600588988, 7.7214878441684185)	(-4.8065831883210324, -1.3959324867004295)	(-0.14383008127019714, 0.74378239081158704)	1.0	slash	1.20451
10	M	B	M	B	A	N	A	N	M	8	4	shapes	A	3	False	59	(7.0702862670425137, -8.1330831934289698)	(7.4582248048547122, 3.8755405927349518)	(-4.0026888977696924, 0.57605994110335779)	(-7.227857712899918, 3.7122859817959935)	1.0	slash	1.02619
11	N	A	N	M					A	4	1	shapes	A	3	True	59	(-0.54065463015899162, 5.921967266370876)	(6.3219303092895007, 6.1695762975010915)	(-0.73719162168127106, -1.8790483678268322)	(4.5618192383557687, -5.3960342049365373)	1.0	z	0.967867
12	M	B	M	A	A	B	N	N	N	8	6	shapes	N	3	True	59	(-5.5687249904320399, -3.5998718611830025)	(7.8027829559509065, 8.3835863222773455)	(-3.0692066651448462, 3.5433797179731226)	(3.0972164779392006, -4.1667227708546744)	1.0	z	3.39042
13	N	B	N	M	B	M	A	A	N	8	5	shapes	M	3	False	59	(2.9634993639898912, -7.9585328900774481)	(-5.4473943883829552, -4.0784293047261491)	(-4.1507394615503008, 8.0334508249317018)	(5.6017627487501507, -1.3975986302756755)	1.0	slash	1.74891
14	N	A	B	B					N	4	0	shapes	N	3	True	59	(1.4892070991828792, -7.3164267485938623)	(0.90531858494846951, 4.6048293343253768)	(-4.3046287166432968, 2.7436806023984861)	(-8.73607851916789, -6.1539053939617165)	1.0	slash	2.75239
15	M	B	A	A	M	B	N	N	M	8	4	shapes	M	3	True	59	(-2.6625106724370529, 8.4588218446778001)	(-7.1220395283436275, -8.4232078232504257)	(-1.1823311979663513, -6.0685240256718229)	(1.5561134556150211, 7.5509538575085315)	1.0	z	0.848117
16	M	B	B	A	A	N	M	N	N	8	4	shapes	A	3	False	59	(-3.7495091498562321, -1.4722155698485988)	(0.16006021128918491, 5.6163623434889391)	(-4.3082809536924325, 5.8528263778173955)	(5.6628447044434527, -2.8374256137806979)	1.0	slash	0.875608
17	N	A	B	A					M	4	2	shapes	B	3	False	59	(-4.7421107897443999, 8.5679360130660811)	(5.0442791012004395, -1.7106214759898508)	(2.2871436037134014, 3.6692320040874336)	(-2.8760068844091915, -3.1472789894275923)	1.0	slash	0.927308
18	N	A	N	M					N	4	3	shapes	M	3	False	59	(0.94936595289173908, -2.9038923986604868)	(-4.1835475469027763, -0.47744084828263844)	(7.3135773516951659, 0.3796035672175524)	(-7.3314659280378782, 5.0589244523075543)	1.0	slash	0.808732
19	N	B	M	B	N	A	M	A	N	8	1	shapes	B	3	False	59	(-4.6959781379945831, -4.0967095947592727)	(1.2585327704769895, -4.4081864541250795)	(-1.2890503474138857, -1.0342735676431687)	(7.1921549104777682, 2.1967212036052786)	1.0	slash	0.804595
20	M	B	N	A					A	4	3	shapes	A	3	True	59	(-7.9372296003785641, -6.7154493865614739)	(2.3353998846588802, -6.4926858940812089)	(8.1664951566826147, 4.65758244019705)	(-4.1716920616889777, 7.6484388248701087)	1.0	z	0.846105
21	M	B	N	A					N	4	2	shapes	N	3	True	59	(-5.4286912974660577, -7.5568454798150837)	(-4.3533889827149208, 2.5242347623734727)	(0.45319633012370097, -1.521034544209221)	(6.4417255100027209, 1.3853619901504342)	1.0	z	1.03206
22	M	B	A	A					B	4	3	shapes	A	3	False	59	(4.5965958636025199, -8.717173665445717)	(-3.7290672375283522, 0.51213911381190869)	(4.9118350918464948, 8.4305947530042147)	(-1.4720244394877069, -5.896305770301046)	1.0	z	0.947581
23	N	A	B	M	A	M	N	B	N	8	4	shapes	A	3	False	59	(-8.1704423462085085, -0.76344445325007904)	(5.7658444897869412, -2.5658087000282013)	(-5.7654775564564158, 5.5910512735314217)	(-1.4821831879378395, 4.2875570486145467)	1.0	slash	1.1393
24	M	A	B	M	N	N	B	A	N	8	4	shapes	N	3	True	59	(-5.1845720456248863, -5.938352553702444)	(-2.4289026504182374, 3.7867189099426248)	(4.5961587720930481, 3.0786471808170788)	(3.0537999143682111, -2.5176395205916409)	1.0	slash	1.01287
25	M	A	A	B	N	M	N	B	N	8	4	shapes	N	3	True	59	(2.8687281573481567, -1.0552465422967838)	(4.4383973232872211, 3.2798992998986076)	(-3.6443759681546606, 6.3864399105922924)	(3.9683599050141893, 8.4216446929868205)	1.0	z	0.966484
26	M	B	B	A					M	4	0	shapes	M	3	True	59	(5.756283029954961, -4.6422223993872862)	(2.5168388333099045, 2.4269629155058414)	(-3.1498788131877955, 3.1200531537299554)	(-7.5064889654334532, -1.2357026871601935)	1.0	z	0.920185
27	N	B	N	M					M	4	3	shapes	M	3	True	59	(-1.9613073424571921, 8.1085405839871143)	(1.9995544212788818, 5.6857984231491603)	(7.4604530688398611, -4.520380448791057)	(-4.6628517944657686, -3.9307344303577381)	1.0	z	1.53723
28	N	A	B	B	A	N	M	M	M	8	7	shapes	M	3	True	59	(-4.6289285718233852, -8.7353996667118246)	(-4.8822587611509398, 6.3052685725093358)	(2.9802121321888713, 0.079052183920046204)	(-0.84982303262477554, -4.4190001983283231)	1.0	slash	1.35533
29	M	A	M	A					N	4	2	shapes	M	3	False	59	(1.0863423304186277, -5.2917170883158144)	(-6.3209470020901861, -7.5834330169462181)	(-0.54611550537531706, 5.8217917432012065)	(4.5287942514737036, 5.6085843431826348)	1.0	slash	0.966935
30	M	B	N	N	B	M	A	A	B	8	1	shapes	B	3	True	59	(8.3776125696535892, 4.398382506979944)	(5.3620393267112583, -6.2088545693298141)	(2.0728717465861468, 7.5784632225875299)	(-2.6365737854702402, -7.845465530175546)	1.0	z	2.1782
31	M	A	A	N	B	M	N	B	A	8	4	shapes	B	3	False	59	(8.6554089453760632, -4.9777774228977574)	(7.985622142549289, 1.0567275368116551)	(-7.0527321211805125, -5.9622885439346351)	(4.5056563292745704, 6.8823831987156865)	1.0	slash	1.25205
32	M	A	B	N					N	4	0	shapes	M	3	False	59	(-3.4964178270042909, 2.4260527366386295)	(3.3649660018997434, 2.0664155829846571)	(-1.326090577838781, -6.5713590658914498)	(3.7113924119670543, -6.0877440226718296)	1.0	slash	1.01978
1	N	A	A	N	B	B	M	M	B	8	7	shapes	M	4	False	59	(-8.6601561059010361, -0.4189698313980319)	(-2.9367488344280819, 6.3685069076133356)	(5.7240110636780006, -0.51423055758062475)	(-5.9640118503150745, -3.3990197203008048)	1.0	slash	0.815404
2	N	B	N	A	A	B	M	M	B	8	1	shapes	B	4	True	59	(7.5040724926722397, 7.1491674611811966)	(5.3326096118321686, -3.8899309623146756)	(-3.5572962609466874, -4.8835419922166139)	(-6.481244706700398, 0.40392226839904488)	1.0	z	0.833127
3	M	B	A	A	M	B	N	N	B	8	0	shapes	M	4	False	59	(-0.47308310390634922, 0.69196496917911077)	(8.025745966078432, 3.3324439873018346)	(-2.5857181097423032, -5.384169608244294)	(-7.0506782813936422, 3.1468630101515558)	1.0	slash	0.894785
4	N	A	N	M	B	B	A	M	M	8	7	shapes	M	4	True	59	(-6.1830010151389283, 6.6950805280575079)	(3.1691366913279104, 4.7385877854273915)	(-8.5006211090808144, 1.2627937676144931)	(0.43798680021021497, 0.36370363118684246)	1.0	z	1.24024
5	M	A	N	M	A	B	B	N	B	8	6	shapes	B	4	True	59	(5.9921186293829685, -1.0556163308345106)	(0.21677221636273813, -4.700680530740839)	(-2.3458831990736044, 7.5675278168074485)	(1.7599946391922963, 6.6981396562476281)	1.0	z	1.18204
6	M	B	A	N					M	4	1	shapes	B	4	False	59	(-0.87551145564046085, -4.8273391575779634)	(3.6077358562737381, -7.6447029501686643)	(1.206639126033755, 1.4143657014425095)	(-2.0428800394346043, 4.5202480836840202)	1.0	slash	0.867325
7	N	A	A	M	B	M	B	N	A	8	5	shapes	M	4	False	59	(7.8170447546807509, 3.1526093286857257)	(1.3739695563216365, -0.88224874649211671)	(-7.0382995855396802, 7.7215126427335932)	(-8.7215257746078709, -6.6924407024394199)	1.0	z	0.773292
8	M	A	N	M					A	4	3	shapes	M	4	False	59	(1.9572128959930382, -1.4845386778033429)	(5.0679866002580827, 8.0213233454814592)	(-4.9451007774991131, -4.4884958159806718)	(-2.5039637124013359, 2.0858040351932967)	1.0	slash	0.876886
9	N	A	N	A	M	M	B	B	N	8	7	shapes	B	4	False	59	(8.6836885744208772, 8.1863525191000264)	(-7.0133626237162243, 0.42483474602619786)	(5.8963055559895423, -4.457481720996733)	(2.1396341600834869, -0.66983218619315821)	1.0	slash	0.802402
10	M	B	A	A	B	M	N	N	A	8	2	shapes	A	4	True	59	(-3.7542081111795369, -2.1066013409048363)	(6.9961940673751624, 1.9931417360868)	(-0.1705117369642899, -7.8570024167625254)	(-0.43924244669103452, 2.9916315985345001)	1.0	z	0.839991
11	N	B	M	B	A	M	A	N	A	8	6	shapes	A	4	True	59	(3.113521132892286, 2.7705853581460769)	(-4.7858674949573725, -4.1102566234647284)	(-4.1732059914657125, 3.7805403636104185)	(-6.4354694072369352, 0.23104612340398312)	1.0	z	0.901991
12	M	B	B	N	A	M	A	N	B	8	1	shapes	B	4	True	59	(-3.2143544063564455, -6.5563088956184039)	(1.3235923246644745, 5.7706140378616126)	(5.5289105681284436, 0.20159326400293409)	(-8.3576442511082174, -1.6438521985993093)	1.0	z	0.669474
13	N	A	A	M	B	B	N	M	M	8	2	shapes	A	4	False	59	(-7.5314341373999856, 3.842858056307449)	(3.9286436166047825, -5.015941950113179)	(4.0398825734599946, 4.2734599298338534)	(-8.7282661776206893, -2.3064894442242805)	1.0	slash	1.04526
14	N	B	M	M	B	A	N	A	M	8	1	shapes	B	4	False	59	(2.9930728372097732, 3.2476140505105242)	(-3.2135688109005311, 7.5129526524854775)	(3.6584602637689461, -3.4773454792406895)	(8.2327551923708384, 1.0627267928978004)	1.0	z	1.28881
15	M	A	N	A	B	M	N	B	B	8	1	shapes	A	4	False	59	(7.8562038363502786, -1.0174991681235479)	(6.3029760168408426, 3.6082862101335564)	(-8.1913975377912482, 4.115072264263226)	(-6.9200671134544489, -3.6781415096226837)	1.0	z	0.812447
16	N	A	M	M					M	4	3	shapes	M	4	True	59	(2.2348536282855491, -1.8647668852638164)	(-7.1377605971972855, -3.9530432667692743)	(-1.5537087812680639, 7.9714627151476662)	(0.022896809507392035, 3.7645480759172614)	1.0	z	0.828084
17	M	A	M	A	B	B	N	N	B	8	2	shapes	M	4	False	59	(4.9411997436324064, -3.8941128890485164)	(0.73098013863015687, -5.1499163486217032)	(-3.9500433884323707, 0.4185338599194548)	(-3.1479452077095731, -6.6441565009824517)	1.0	slash	1.09182
18	M	B	A	M					M	4	2	shapes	A	4	False	59	(4.0951636046994135, 7.1413166648297768)	(0.037216819047660721, -4.3222471517427836)	(-6.1420809463423929, 2.6864479840659605)	(-3.2695592172545682, -1.7894558144988295)	1.0	slash	1.18742
19	N	B	N	M					M	4	3	shapes	M	4	True	59	(0.071912584906614896, 5.6489940039894737)	(-1.5369469847326203, -6.9210541824534264)	(-1.3585190849200419, 0.5439586951572295)	(8.5329312478460899, -0.14040027693279455)	1.0	z	1.04099
20	M	A	N	N	M	A	B	B	M	8	0	shapes	M	4	True	59	(-1.7440377865576124, -6.5898461963531556)	(0.83940892851641458, 4.3588088861117402)	(-4.6487532420385129, 3.6809182843086514)	(5.700270089651557, 1.9888843145664659)	1.0	z	0.732586
21	M	A	N	N					M	4	1	shapes	A	4	False	59	(-6.8344898837595238, 6.7376968979463125)	(2.4558895705430093, 0.60185652003127998)	(-5.7351639866915995, -2.4745249004286247)	(8.043796700550871, -6.2608357647562167)	1.0	slash	0.940276
22	M	A	N	A					A	4	0	shapes	M	4	False	59	(-7.9107526438712705, -1.2694456477975198)	(-0.30899438904087617, 6.035999263872414)	(2.8680495228699669, -7.4126802855105431)	(6.840637770947664, 2.572833084491057)	1.0	slash	1.05788
23	M	B	B	A					B	4	1	shapes	B	4	True	59	(3.8114936867686904, -0.91550794340906538)	(-7.2559110541297311, -0.50592433572595752)	(7.9347163390977578, 7.5884485189795932)	(-4.1818473744011397, 7.5439818382302448)	1.0	z	0.687581
24	M	A	N	N					A	4	1	shapes	A	4	True	59	(-3.6581946539043591, 6.5466552594007954)	(5.0281568267559784, -2.6206041796369419)	(8.4756949141164988, 3.0130546534914284)	(-6.9552980428076117, -5.6384072473746922)	1.0	z	0.905274
25	M	B	M	N					A	4	2	shapes	M	4	False	59	(-3.9709567020600973, 0.75944789939731017)	(7.6771527139371223, 1.2489595206274569)	(5.7069314057296694, -7.9052681319748794)	(-5.1607890242062311, -5.4022250710461037)	1.0	slash	1.24698
26	M	A	A	B					A	4	1	shapes	A	4	True	59	(1.1608675856242634, -2.0134376848343418)	(6.0197138291810059, 3.1635908783052429)	(-5.3881138994888751, 7.6889097728965226)	(-5.6875326108922657, -4.00627299423358)	1.0	z	0.736555
27	M	B	M	N					M	4	1	shapes	B	4	False	59	(-7.5063972306062077, 4.5085369033814295)	(-1.6673410200453693, -2.7116627576579315)	(1.2189466420695858, 5.1023928664753804)	(4.4871071046414244, -6.1264609176484228)	1.0	slash	0.904045
28	N	A	N	A					A	4	1	shapes	A	4	True	59	(6.2421065531100286, -7.0350048997419607)	(-0.4774770341294321, 3.4757428793851108)	(6.5142782806076482, 3.1586888811543083)	(-8.6785068975270061, -8.326225856961905)	1.0	z	0.629781
29	N	B	B	M					N	4	0	shapes	N	4	True	59	(-5.0429157501639637, 1.2447293713676206)	(1.2965188074614318, 0.12157988343157022)	(0.94119308402710189, -5.816334786168837)	(-4.7301716468126909, -8.6891632644787791)	1.0	z	1.20934
30	N	A	M	B					A	4	1	shapes	A	4	True	59	(-8.2152480923151696, -5.7507713406667413)	(-1.1788164687487601, 5.4683353539830097)	(3.174512009584868, 2.9147276532891926)	(1.2708425949670463, -5.2658434362608633)	1.0	z	0.737145
31	N	B	B	M	N	M	A	A	M	8	3	shapes	M	4	True	59	(-1.0099587654488849, 5.7295395870107431)	(-0.77824730966136801, -5.2949508664455767)	(5.8735535326283124, 6.8411243016544763)	(5.1858574039384333, 1.6056117250044188)	1.0	z	0.722781
32	N	A	B	N					A	4	2	shapes	B	4	False	59	(4.8329945953149291, 1.0304551822981356)	(-0.02620831697543835, -5.8605286127001843)	(4.2239334343229267, -4.5741937654077294)	(-3.7425100754194789, 4.6025347423600262)	1.0	z	1.10055
1	M	A	A	B	M	N	B	N	N	8	5	shapes	N	5	True	59	(5.8696679023271781, -6.8416031176169092)	(5.7606409891137869, 4.3900103603339069)	(-5.6773795928362087, 6.4757150466376139)	(-3.4744515460098881, -0.9006346893608832)	1.0	z	0.847922
2	N	B	M	M	A	B	N	A	B	8	7	shapes	A	5	False	59	(1.6536673653593628, 2.0666777434720558)	(4.4190952871396671, 8.4284793601280796)	(4.2200248289659932, -5.7120647849252109)	(-6.3062998801850663, -6.7184249964419109)	1.0	z	1.07565
3	M	A	B	B	N	M	A	N	B	8	4	shapes	N	5	False	59	(-6.4227716125632544, -5.1336836110451429)	(2.657370305940205, -6.673973871725229)	(3.573827618416443, 3.9431810246091707)	(-3.095788859071769, 1.7765880029321472)	1.0	slash	1.0954
4	M	B	A	B	N	N	A	M	M	8	0	shapes	M	5	True	59	(-2.0541750029085293, -8.4138812986045419)	(5.2281284881418539, 8.1021677684809568)	(4.011268549147184, -5.9472942697927493)	(8.06915030559313, -8.2263856022136128)	1.0	slash	1.45621
5	M	B	A	A	N	M	B	N	B	8	1	shapes	B	5	True	59	(4.0189081441409051, -5.7863008872951314)	(7.7278401026995169, 1.1101490077778351)	(7.1997805848999512, 6.901599051436623)	(8.2518155390991232, -2.9031398135472868)	1.0	z	1.41854
6	N	B	M	B					B	4	3	shapes	B	5	True	59	(4.5861276765395402, -5.4918616956809796)	(-0.85684849279954722, 5.867566650684072)	(4.6811195696248458, 5.2625085057452754)	(-8.0961231040177406, -5.7697949075739299)	1.0	z	0.968016
7	M	B	N	N					N	4	3	shapes	N	5	True	59	(-7.1809556296425558, -0.34631683652503042)	(-1.7388903130621376, 7.683460873010457)	(1.0798134585261661, -7.3380311033418257)	(4.6943281850249932, 0.18583860065100488)	1.0	z	0.913719
8	M	B	B	N	M	A	A	N	M	8	1	shapes	B	5	False	59	(6.0428562636558922, 4.0727399054935365)	(6.9796209236386613, -5.1210946420478507)	(-3.253987219893129, 1.8781398874568538)	(-4.9154252711885, 5.8233461002445317)	1.0	z	1.10151
9	N	A	A	B	M	N	B	M	N	8	5	shapes	N	5	True	59	(5.2055799878032172, 6.3684541685800387)	(-0.34835068250131229, 0.60857221165618647)	(-6.2831618545571066, -6.1890769436112496)	(-8.3958877184791767, 0.25735889111864552)	1.0	z	1.18089
10	N	A	N	M					B	4	3	shapes	M	5	False	59	(1.2473653193787548, -4.8200111890318098)	(8.4856183271155707, 2.0972791232136014)	(-1.2533550645474349, -0.23494408966099201)	(-4.9047762819342955, 1.6631154888714619)	1.0	slash	1.4447
11	M	B	B	M					B	4	2	shapes	B	5	True	59	(2.2724512008704316, -6.4094885825990708)	(-6.1678236555190793, 4.9574805899755283)	(-3.455336988649047, -5.9513509555312911)	(0.68759883166171321, 4.5368211944651744)	1.0	z	1.11638
12	M	A	A	N	B	M	B	N	N	8	7	shapes	N	5	True	59	(2.7286167085642941, -7.3963152490997226)	(-6.9587167317120091, -3.4098270276344254)	(-6.5270735795536226, 0.91649367584011721)	(5.1136076639766266, 4.8252470806603256)	1.0	z	0.666
13	N	A	B	M					A	4	1	shapes	A	5	True	59	(7.9093065242143545, -3.395487404574614)	(-7.4697144893191085, 4.3432338163392448)	(-2.1153092055988747, -5.0278457565525088)	(5.7837762393711216, 5.1941457405096561)	1.0	z	0.719454
14	N	A	B	N	B	M	A	M	M	8	1	shapes	A	5	False	59	(-1.6399303299082222, 8.7090692030060985)	(-2.8339545870087992, 0.48130490222854583)	(8.3703029194126444, -6.8528473536434378)	(-3.1877082472986267, -4.9846283186203539)	1.0	slash	1.19735
15	M	A	N	B					M	4	0	shapes	M	5	True	59	(-4.1491420813724966, -4.4656746516691896)	(0.69800807566605449, -2.0851528285166872)	(6.7526537655808117, 3.2736561708164373)	(-8.3223087094770136, 2.182153336144383)	1.0	z	0.921037
16	M	A	B	A					N	4	3	shapes	A	5	False	59	(-8.61218321146813, 0.29048426320952103)	(1.2330173338775037, 8.5305799421550645)	(5.816370913774584, -7.3138384077253029)	(-5.8323767442913832, -6.329958336485225)	1.0	slash	1.06031
17	N	A	N	A	B	M	M	B	M	8	7	shapes	B	5	False	59	(-0.5359395287994495, 4.7088375710442048)	(-2.862276110490801, 0.58089857910064957)	(8.4966277921185664, -0.59493783197297034)	(-7.2860019595790577, -0.28639890076375885)	1.0	slash	1.21223
18	N	B	N	A					A	4	2	shapes	N	5	False	59	(0.44871842903983783, -2.0192144855209806)	(-6.8034345719910405, -8.4543627777986039)	(6.6522556909415478, 1.09446468249247)	(-0.51800910736164774, 5.6607990175334244)	1.0	slash	1.29179
19	M	B	A	A					B	4	3	shapes	A	5	False	59	(-3.8076889552181203, -6.7775217288347118)	(4.572583764691915, -8.7288945381745986)	(3.9574898680804633, 4.5880208641800557)	(-3.809090842916004, 3.2914164090481712)	1.0	slash	1.56333
20	M	A	B	A	N	M	B	N	N	8	6	shapes	B	5	False	59	(2.1335917988138338, -7.0830683476554128)	(3.6883757047301096, 0.87741382843069538)	(-3.5439802532704974, 1.6105969435541301)	(-0.63063460788363557, -2.597817863385683)	1.0	slash	0.855031
21	N	A	A	N	M	M	B	B	N	8	0	shapes	N	5	True	59	(-2.9846244816811947, -1.6984894951933081)	(6.2095819142332971, -7.4071708710894626)	(2.0697057444503475, 4.8349975832658547)	(-4.7941652211279262, -6.791401900866922)	1.0	slash	0.896941
22	N	B	A	N					A	4	0	shapes	N	5	False	59	(-4.2807362092298549, -7.0157956283584184)	(8.6751722044415587, 5.67718284780603)	(-5.8667408702339028, 6.2483595410895312)	(4.1858973401623416, -7.9752109178114337)	1.0	slash	0.840173
23	M	A	B	B					N	4	3	shapes	B	5	False	59	(-0.97844813531222297, 6.9235265494525304)	(4.1127498766130213, 4.3037180402603248)	(8.0417096353086563, -0.9732707600500845)	(-8.5249517270184114, -4.4582661167301465)	1.0	slash	0.866071
24	N	A	A	N					N	4	3	shapes	N	5	True	59	(-2.2083174845015492, -0.47782474579203793)	(6.871116815044676, -4.304557559019992)	(5.6928418521713713, 3.5168706051596335)	(-8.5236155847435402, 8.7397317637180514)	1.0	slash	1.87164
25	N	A	N	A	M	B	B	M	A	8	5	shapes	B	5	False	59	(1.0031086971484964, 2.4493041091576284)	(0.76343219917032812, -5.9457796265964387)	(-7.9388850616029236, -7.1793902479182226)	(1.1125455806324318, 8.4030579450483529)	1.0	z	0.973182
26	N	A	M	B					M	4	2	shapes	M	5	True	59	(6.9136535002662942, -6.7276567911856597)	(0.53045997727235061, 5.99828984988733)	(-6.3522689553647655, -7.5305397392733155)	(-5.9095946789101532, 4.7188044287527919)	1.0	z	2.70884
27	N	A	M	A					N	4	1	shapes	A	5	False	59	(2.7494458314547856, 2.7245435450935869)	(-5.4953260002481636, -4.7094304683638066)	(-4.1579963587807205, 0.80219787189473202)	(5.2289999921082426, -1.0167094731207058)	1.0	slash	0.544383
28	M	B	M	B	A	A	N	N	A	8	5	shapes	A	5	True	59	(-2.8480186338650721, 3.3933050336747375)	(-7.6034014662178402, -4.6196396831552979)	(6.7166234095038213, -4.2359533872069699)	(-0.28659312100681866, -3.902682175787838)	1.0	z	0.967887
29	N	A	N	M					N	4	1	shapes	A	5	False	59	(0.98926560173268996, -4.3482571131179215)	(-6.8267634674457414, -2.5209453556441259)	(-4.664327168509466, 4.1819372277936289)	(6.1213981869346643, 0.19906348974179444)	1.0	slash	0.847914
30	N	A	N	B	A	M	M	B	A	8	0	shapes	N	5	False	59	(-4.0656385753565196, 7.7742815557699458)	(5.5097930851548735, 5.3568910527425082)	(1.6972017850289198, 6.9424952085108877)	(-5.6700394581718623, 0.0094095991691354186)	1.0	slash	0.72331
31	M	B	M	B					B	4	1	shapes	B	5	True	59	(0.69116921257361597, -3.2162100588021794)	(-4.49145263904534, 5.3638339635206087)	(-5.920188375131449, -6.9887416092729016)	(4.0225428253242121, 2.7019854352303589)	1.0	z	0.804989
32	M	A	N	A	B	N	B	M	M	8	0	shapes	M	5	True	59	(-4.3018451125441306, 0.95158809204972528)	(7.9516120067510485, 4.0561940329781372)	(3.5804821625318777, -0.48644810671298622)	(-3.1730768947307659, 7.2023060132527181)	1.0	z	0.888597
1	M	A	M	A					M	4	0	shapes	M	6	True	59	(-6.9292928651899039, 0.15879403198907305)	(1.5654103711648801, -3.331297698256793)	(-5.1300275294267434, -3.8400288485217189)	(2.2210924315408214, 4.6754043913444434)	1.0	z	0.940213
2	M	A	N	M	B	A	N	B	A	8	2	shapes	N	6	False	59	(-1.7523322110439619, -7.0101959454551324)	(4.2005991761945634, -1.173485179320318)	(0.13170381465643111, 3.4599129901669592)	(7.827948824800508, 5.5880562174567885)	1.0	slash	0.773926
3	N	B	A	B	M	A	N	M	A	8	2	shapes	A	6	True	59	(-3.0607626048202698, 5.413461224015288)	(4.150733265657923, -1.7501680343852861)	(-2.6202638846115152, -4.6217958099098837)	(6.6957110066838776, 7.9042320285154304)	1.0	z	0.647569
4	M	B	M	N	B	N	A	A	M	8	6	shapes	A	6	False	59	(8.416574175793837, 3.442094705664319)	(7.4412254852047717, -4.80893543845756)	(-0.46658118550673855, 8.7416519420759329)	(-8.5719689554428484, 4.4044513071510192)	1.0	slash	0.547274
5	N	A	A	B					N	4	3	shapes	B	6	False	59	(-6.8601196401708595, 3.7323428687837037)	(-6.4297567649526552, -5.9812870646371845)	(8.3614810898206358, 1.773302390754175)	(5.5059424425940549, -6.9637184900941751)	1.0	slash	0.662715
6	N	A	N	B	A	M	B	M	B	8	4	shapes	A	6	False	59	(-6.693633600966586, -0.11523296834259433)	(-0.7239294276082493, 0.71319455188728398)	(5.0384550097602574, 3.6359176551137153)	(1.5527087879096211, -3.76221260444383)	1.0	z	0.702445
7	N	B	M	M					A	4	3	shapes	M	6	False	59	(4.1426854525725521, 1.5206396921761645)	(-3.622173532088067, -2.7948503509687121)	(-1.0640288709009589, 5.8247940716882773)	(3.8376300491662754, -6.7420356956228353)	1.0	slash	0.804138
8	M	B	M	A	A	B	N	N	A	8	3	shapes	A	6	True	59	(6.7617592971243514, -2.4843839830412318)	(-7.0233978851459673, -6.9918145572751582)	(-1.4485577537156065, 5.4971327618523933)	(-5.3752333742441927, 2.1800461142514553)	1.0	z	0.888204
9	M	A	M	B					A	4	1	shapes	A	6	True	59	(6.2420619489839577, -0.28550068765582814)	(-8.4596028484870622, 2.4668132114599057)	(-7.0628993239187281, -6.325382279724435)	(2.0758503392206364, 4.3028184352734176)	1.0	z	0.951569
10	M	A	B	A					M	4	3	shapes	A	6	False	59	(-8.2431985901774123, -2.2156014247434541)	(-0.6156470445160771, 4.0030550179229589)	(7.0411694932301128, -6.4365480837739479)	(8.383349538939914, 3.6350969420833295)	1.0	slash	0.60316
11	M	A	M	N					M	4	0	shapes	M	6	True	59	(-6.6377094213025094, 0.7124252254401906)	(7.7793635496642182, -4.0519045850367545)	(-2.808588697680606, -3.1041002285142936)	(1.7533451436029228, 3.063424802693536)	1.0	z	0.556755
12	M	B	M	A	A	B	N	N	N	8	6	shapes	N	6	True	59	(-5.8419624861787964, -4.389094042857467)	(7.9815253738915075, 5.3352527600402961)	(-0.56702936552134098, 5.4086391981026036)	(8.1776102914988869, 1.0263346143063732)	1.0	z	0.674452
13	N	A	N	M	A	B	M	B	N	8	0	shapes	N	6	True	59	(0.39850881896413703, 7.1477914743937525)	(-3.5071840278311734, -0.70879332747926327)	(1.758639237042166, -6.4666110495087157)	(5.0279924340584117, -4.1082870330350536)	1.0	z	0.752255
14	M	A	M	N	B	N	B	A	N	8	5	shapes	N	6	True	59	(1.0366440082148891, 6.051388485561942)	(-3.4806036457579657, 6.503958499878161)	(-4.7664851597941338, -0.86124148769656106)	(0.99231772180089273, -2.4156456207851713)	1.0	z	0.813826
15	M	A	A	B					A	4	1	shapes	A	6	True	59	(-3.1285452531387179, 3.2107471601911666)	(4.7448200778268816, 8.1430952113333284)	(-6.5050755217670533, -6.3985789023318738)	(8.3248918014980333, -4.622924789926997)	1.0	z	0.541186
16	M	B	A	N					N	4	2	shapes	A	6	False	59	(3.2769747067405266, 4.1037898431709507)	(5.1198583236955244, -3.6091679657664466)	(-8.7167756565941534, -6.7923885526257193)	(-2.1156723931573449, 1.3335763776146852)	1.0	slash	0.699165
17	N	B	M	M					N	4	0	shapes	N	6	True	59	(-4.6553701206631377, -2.6245412307004479)	(5.5930445216924554, -6.4228133512314427)	(7.5208397655113544, 5.3488430950361234)	(-1.3353515256915767, 5.3860188500017863)	1.0	z	0.640811
18	N	B	N	M					M	4	2	shapes	N	6	False	59	(5.3419167908276766, -1.8476306607153941)	(8.3018805687745854, 7.8196243576365099)	(-2.2906539274543345, 2.0106304103750627)	(-7.1074017201425725, -1.8300909804398628)	1.0	slash	0.482459
19	M	B	N	M					N	4	2	shapes	N	6	True	59	(-1.3958407443280691, -6.3078807810185271)	(7.4807594240271804, 3.3288152796803558)	(7.3691168110638721, -7.1732238051572512)	(-6.8981543260600144, 0.84437053987663546)	1.0	z	0.652097
20	N	B	B	N	A	M	A	M	B	8	1	shapes	B	6	True	59	(2.8557259726027873, 7.2494329209278856)	(-2.4959492499515106, -5.4307882126656422)	(0.55257983553701884, -0.9486695612670486)	(-4.0072935979942201, 0.32666805099097296)	1.0	z	0.573841
21	M	A	M	B	A	B	N	N	N	8	0	shapes	M	6	False	59	(8.4666157907245321, 5.4080083041864704)	(-0.45002491466066274, -8.2135689090474209)	(2.2861339045098426, 0.021382674439481164)	(-5.8834986960157032, 5.3424624691792317)	1.0	slash	0.639472
22	M	B	M	N					B	4	3	shapes	N	6	False	59	(-8.6452935263385235, 5.4020141649692555)	(0.15325648044965945, -3.8995893048000179)	(-5.7924279568028014, -8.511584335596714)	(3.3322035568830319, 3.3528755271148327)	1.0	slash	0.537313
23	N	A	B	A	B	N	M	M	N	8	1	shapes	A	6	False	59	(-1.9559076842171121, -2.5506451588859527)	(-5.7089310008994936, -7.5759492546910412)	(-0.74921018374220871, 8.713419119149016)	(7.0023472370617448, 1.6832924568518646)	1.0	slash	0.680881
24	M	B	B	A	M	N	N	A	M	8	4	shapes	M	6	True	59	(6.7570206657167766, 1.1376306163353629)	(-6.8233137118003073, 2.0703163232045796)	(-5.2550956760557437, -5.7773717863643217)	(-0.8719067598063921, -1.7585441923425815)	1.0	z	0.524572
25	N	A	N	M	B	M	B	A	B	8	1	shapes	A	6	False	59	(7.8517577135874319, -1.7128400402861175)	(-0.55571546111072045, 3.8651381638307338)	(-7.2004534939782463, 1.9308925533393122)	(4.1113124918854744, -5.085125339590391)	1.0	slash	0.61599
26	M	B	B	M	N	A	N	A	M	8	4	shapes	N	6	False	59	(6.613288488997064, 4.0528355290817668)	(-2.0278183538601908, 7.329538023156541)	(-6.813306549500747, -7.2458299786193514)	(4.8340591870207295, -7.6156114554603587)	1.0	z	0.769766
27	N	A	B	A					B	4	2	shapes	B	6	True	59	(7.9308203520712688, -6.5099968920995543)	(3.9878842873189377, 7.6638678227749715)	(-5.8112740489013746, 8.4793618768212902)	(-1.6277503039841026, -1.2257910380781363)	1.0	z	0.713454
28	M	B	M	N					M	4	1	shapes	B	6	False	59	(5.2283661583923653, 7.3918827580521764)	(-7.0266978808897553, -5.6403672498950677)	(-6.0996806302389217, 6.3146323300003608)	(0.74279544950082332, -2.8317166955069606)	1.0	slash	0.653153
29	N	B	A	M	N	B	A	M	M	8	5	shapes	B	6	False	59	(8.190214254556917, -5.2718467286299804)	(-1.8125963780951366, 6.9527609613798802)	(8.5086191826698823, 3.4930829238519454)	(-8.2024804341493596, -1.4279014233637959)	1.0	slash	0.5746
30	N	B	B	A	A	N	M	M	M	8	6	shapes	M	6	True	59	(0.66913181519842801, 0.57793354043853107)	(5.1516768217619671, -3.0171480501945709)	(6.0677699343319595, 3.3943802402957601)	(-3.1146598563353773, -4.223054643381781)	1.0	z	0.894447
31	M	B	B	M					N	4	1	shapes	B	6	False	59	(2.8477012223417173, 5.9900018370961305)	(-4.6992105639882329, -6.742844702408183)	(-5.2361120992003531, 2.8793360072727268)	(8.1746404544327902, -8.3027176734159838)	1.0	slash	1.1182
32	N	B	M	A					N	4	0	shapes	N	6	True	59	(-2.5239922289152661, -6.5178409492969145)	(4.9425770052270028, 1.4463461514360922)	(-8.6282836540268022, 0.43834039106108413)	(3.9874928769188784, -7.5968082305705229)	1.0	z	0.695846
1	M	A	M	A					M	4	0	shapes	M	7	True	59	(-8.4087708112419719, -1.5516094572902457)	(1.7896580525087771, -1.8099420574795069)	(7.2167034180410994, 7.7938138510596708)	(-7.643583855880868, 8.5586588301808284)	1.0	z	0.603395
2	N	B	B	N	M	M	A	A	B	8	2	shapes	B	7	True	59	(3.4825670602369385, -1.3739087094600633)	(3.2812800619684008, 4.5422200587144239)	(7.4077427276458394, -6.725972076642325)	(-7.2949004621424125, 4.9063739634138734)	1.0	z	0.782996
3	N	B	N	A	M	B	M	A	A	8	4	shapes	M	7	False	59	(1.5959498312044218, -3.4616565664631302)	(0.21863929081562894, 7.4861055124789679)	(-8.3488478499850149, 4.4033043267615781)	(-2.438696396353178, -0.8652236688762649)	1.0	slash	0.710772
4	M	A	M	N					M	4	3	shapes	N	7	False	59	(4.7431086506282956, 6.3410150449106819)	(-7.6823101766176105, 6.9710885772598346)	(3.0240289343823878, -7.3736695981343727)	(-4.9773774694411248, -6.39720042065768)	1.0	slash	0.746234
5	M	B	A	B					B	4	1	shapes	B	7	True	59	(-6.4708908577793522, 6.2332728555220438)	(4.3308684585629873, -5.0361283250126085)	(5.5438889980591455, 8.5726489088232327)	(-6.3490628492564234, -3.696324227723558)	1.0	z	0.632216
6	M	A	M	B	B	A	N	N	A	8	5	shapes	A	7	True	59	(1.2741262380065148, -1.9507765458701609)	(-2.2741461884554512, -8.2657220259340054)	(-5.6735260148484405, 4.8072590555720662)	(8.3918274943963205, -6.7050797786149356)	1.0	slash	0.715737
7	M	A	A	M	B	N	N	B	B	8	3	shapes	M	7	False	59	(-3.0413966972387652, 1.3970800662174288)	(7.3554131621082739, -8.2452755015619275)	(-7.6836410534886443, -3.119383436937393)	(2.7527067357442885, -2.8314693695177375)	1.0	slash	0.49523
8	N	A	M	N	A	B	B	M	A	8	0	shapes	N	7	False	59	(-0.63942672048518467, 5.4004104733046869)	(8.4105618101579012, -4.7626552022671333)	(-5.7284091527917793, 7.4046661287456104)	(0.015192376033475341, -6.2254483443064199)	1.0	slash	0.593043
9	M	B	A	N					N	4	0	shapes	M	7	False	59	(2.6737192981387015, -4.2116947396248348)	(-0.23449817774835502, 5.5637564754906261)	(5.317527614152624, 3.7709727064503582)	(-7.5295356184802804, -6.5684745114400425)	1.0	z	0.620716
10	N	A	N	B					A	4	3	shapes	B	7	False	59	(6.343201932426382, -5.7934249325808365)	(-2.5750863859151751, 7.9457244764062303)	(-1.0504256448523881, -1.4489771921500898)	(3.8790704476882993, 3.5238228293557583)	1.0	z	0.658299
11	M	B	N	M	A	B	A	N	M	8	4	shapes	A	7	False	59	(-3.6947857207520975, -0.40078792908025918)	(3.4482913976716958, 4.7671463489743537)	(-0.50135877568012965, -8.375322066349856)	(4.1512117948894467, -4.4494857802581569)	1.0	slash	0.723572
12	M	B	N	A					A	4	3	shapes	A	7	True	59	(-5.6425510805420753, -6.1843149712842749)	(-2.3968437624467143, 5.5595454004438718)	(8.1506213767544082, -8.1726927709388928)	(5.0974343585239765, 0.058934233614403198)	1.0	z	0.981745
13	N	A	N	A					N	4	2	shapes	N	7	True	59	(1.508148518381514, 1.3889858130675385)	(0.12934631320750789, -7.4926795711549321)	(-4.7622738801047895, 1.288081381264476)	(-7.7959822098294156, -8.2731513546664424)	1.0	z	0.8115
14	N	A	N	B					M	4	3	shapes	B	7	False	59	(-1.515335941249818, 4.8297139715447699)	(2.5746458786764297, 1.875223649095302)	(-6.4929716009701988, -5.2608678410865384)	(4.7699218357322977, -5.5985854308148131)	1.0	slash	1.14714
15	N	B	A	M	M	N	B	A	A	8	5	shapes	N	7	False	59	(-7.2598585779250531, 5.1828364565870402)	(-2.9649106654116562, 5.6432197414104568)	(6.7388132837065431, -6.6007198987689648)	(-5.8539019854191174, -3.9922262185335935)	1.0	slash	0.706517
16	N	B	A	B	N	A	M	M	A	8	5	shapes	A	7	True	59	(8.0483724550385674, -0.88930848834856491)	(3.2782845541890957, 7.4947375274782999)	(-5.6985364558266891, 5.8414388434070847)	(-5.4100935062982263, -8.6117312477686951)	1.0	z	0.858392
17	M	B	M	B	A	N	A	N	M	8	2	shapes	M	7	True	59	(6.9802586340866295, -1.5282570459160327)	(-6.0589604045237611, -7.4482455367546434)	(-8.6478530700691412, -4.3135634577984332)	(0.52107553832115983, -3.8956477882639851)	1.0	z	0.89786
18	M	B	M	N	A	N	B	A	M	8	0	shapes	M	7	True	59	(2.3912252947706367, 8.0485938136178561)	(-4.4669782521842567, -6.8424242045872452)	(-8.5124941851876059, -4.7974251476774574)	(6.9384554994219521, 7.2296009696597494)	1.0	z	0.555747
19	N	B	N	A					A	4	2	shapes	N	7	False	59	(2.0933368120059352, 5.5524435128765006)	(-1.2268670481803872, -1.0956487649162074)	(7.2886206111602476, -3.6851529799382625)	(-7.1964974239181849, 1.6256224368957817)	1.0	slash	0.591245
20	N	A	N	M					M	4	0	shapes	N	7	False	59	(-8.132851388920507, 8.6065518712489144)	(2.1235552956198873, -4.9916043509427332)	(-4.7529455369841358, -8.4488839749739402)	(0.71220163541610226, 0.63559248182494343)	1.0	slash	0.547109
21	M	B	B	M					M	4	3	shapes	M	7	True	59	(-8.1713156306179666, 0.96398282967503768)	(2.9891431749862409, -3.3092614113781256)	(7.426958729800198, 2.5747863534009614)	(-5.7752069193672195, -7.4963295574221274)	1.0	z	0.864726
22	M	A	B	N	A	M	N	B	N	8	3	shapes	N	7	True	59	(-4.1900275449652922, 4.5426758175963347)	(-8.4833473649467805, 8.1239495182361381)	(8.3280292284706157, -0.64630934300460119)	(4.5128932937838382, 7.8822403673365073)	1.0	z	0.510465
23	M	B	B	N	A	A	N	M	A	8	4	shapes	A	7	True	59	(-3.8429886624567677, -8.0422658758393784)	(-2.0075614465898779, -0.55381483956941224)	(0.76992409228061121, -7.0562648397333758)	(2.6521729980649358, -1.5702389391060461)	1.0	z	1.40595
24	M	A	A	N					M	4	0	shapes	M	7	True	59	(-6.2466743644887925, 4.4375256698513681)	(6.9657471104674311, -6.67769038867739)	(-7.4217206091126258, -1.7771710069187101)	(7.4357139118278148, 6.3940554568195367)	1.0	z	0.887509
25	N	B	A	B	M	M	A	N	N	8	5	shapes	M	7	False	59	(-0.1460692412554323, 5.3292746418479808)	(1.5402732372681314, -2.6277487807513014)	(-4.124778027213523, -3.0066074828473921)	(-6.6189923212476884, -8.5735021330661816)	1.0	slash	0.546654
26	M	B	N	N	B	M	A	A	A	8	7	shapes	A	7	True	59	(1.9302173660354995, -6.0223623453137467)	(-7.8102609795554825, 7.5006382786231782)	(-3.6797430494050261, -5.8323027843768624)	(-1.2345990431625067, 8.2902753168884225)	1.0	slash	0.562929
27	M	B	A	B	M	A	N	N	M	8	3	shapes	B	7	False	59	(-7.0202137766989594, 6.2858117453138291)	(6.6100186603393229, -4.536532430766778)	(1.6829601759762252, -5.7522229041750288)	(4.9153689524372819, 7.726361890519037)	1.0	slash	0.702628
28	M	B	M	A					A	4	1	shapes	B	7	False	59	(0.34207300242707106, 3.5500225850767073)	(6.9138640437611816, -3.0672910618270759)	(-8.4057271846625596, -2.9516793522340912)	(-3.457643258639834, 0.34889068391144562)	1.0	z	0.476217
29	M	A	B	M					N	4	1	shapes	A	7	False	59	(-4.1965918873303174, -1.5199220759819223)	(0.17944516309733594, 5.9174978707018795)	(2.6926773451600727, -7.6089739416032547)	(-5.3596454064090162, 7.8812908655557621)	1.0	slash	0.69593
30	N	B	N	A	B	M	A	M	B	8	3	shapes	A	7	False	59	(0.42028301825921233, 3.2078386618750105)	(3.3828563355406498, 7.4105560349388355)	(-5.9358340670347829, 2.851556862971341)	(8.5379548887274908, -2.607720837022657)	1.0	slash	0.761696
31	N	B	N	M					M	4	3	shapes	M	7	True	59	(-3.3660944137247899, -7.1524706194232621)	(-0.44399755860287193, 5.2780414950826131)	(1.7598281319054436, 0.92902768985072726)	(0.93010526240866653, -5.8287825499172898)	1.0	z	0.61122
32	M	A	N	A					N	4	2	shapes	N	7	True	59	(-1.6740357483078645, -5.9321424807194596)	(0.0020491503719117787, 8.5172965774196499)	(5.9269567070097438, -4.809014476609617)	(-7.4693221832801573, 6.5865558528571952)	1.0	z	0.906981
1	M	A	A	B	N	N	M	B	A	8	3	shapes	B	8	False	59	(-5.0679877065092249, -4.1062399059559782)	(4.6516676573006137, 6.0807347551910489)	(1.6494898252794012, 3.2394318056626581)	(-5.3866283772087327, -8.7424038326176969)	1.0	z	1.28648
2	N	A	N	A					B	4	2	shapes	N	8	False	59	(-0.095753521402651032, -8.0405866659192693)	(0.93958767964850942, 2.4226443706392331)	(-2.9285272663401942, 0.96867330752945691)	(8.1747626216276572, -2.6398187747116211)	1.0	slash	0.640163
3	N	A	M	B	N	M	A	B	N	8	0	shapes	N	8	True	59	(5.285536604791659, -6.6027141486279994)	(0.66194623347148784, 4.8011426920652074)	(-2.3404329070260417, -2.9240991314943257)	(-8.0079460018063884, -1.9912671554674546)	1.0	z	0.941899
4	N	B	B	N	A	M	M	A	A	8	5	shapes	M	8	False	59	(6.0662635149229729, -0.91468992351886325)	(1.4647723232111893, -3.7958417725029188)	(-1.3199298887637827, -7.3526976246925724)	(-1.9082086292903551, 2.612714940558428)	1.0	z	0.819395
5	M	B	A	B	M	A	N	N	M	8	6	shapes	N	8	False	59	(-2.2885222283985041, 3.220964133565408)	(-2.5612060883453935, -1.641558628146166)	(4.9524350481494466, 4.3306244523200128)	(5.1811897865758283, -0.98462112169606097)	1.0	slash	0.84292
6	N	B	A	A					B	4	1	shapes	B	8	True	59	(5.3205740122178309, 8.2690575498211025)	(-6.0106958994102069, -5.9718873964177597)	(6.6475227356494742, -7.8022339147175375)	(-7.6903541798193054, 3.2810623670257666)	1.0	z	1.43684
7	N	B	A	N					N	4	1	shapes	B	8	False	59	(1.7218841606685142, 4.3907142709847147)	(-4.1938402145896134, 6.4609659054054411)	(5.5839708442363989, -1.7005268365791331)	(-3.0635313548621408, -5.1919458330289121)	1.0	slash	5.52006
8	M	A	M	B	A	N	B	N	M	8	0	shapes	M	8	True	59	(-7.2317124707493052, -6.9954617351943904)	(7.4309128014800656, 3.6432545585183274)	(-7.5491890270585245, 3.0905435571269155)	(-7.2940557075560939, -1.2479468677708558)	1.0	slash	1.85369
9	M	B	M	N	B	N	A	A	M	8	0	shapes	M	8	True	59	(-2.2906905689274222, -1.5917508724371547)	(2.8173717362638122, 6.497892128326594)	(-2.3329551654496345, -7.6344099339317317)	(-1.4361645963034109, 4.9391567846287554)	1.0	slash	1.27927
10	N	B	A	M					B	4	1	shapes	B	8	True	59	(1.2293738595777253, 0.95118733804076605)	(-7.1884286478028816, -3.8210914208669031)	(-4.6260654851436538, 5.0529456764016913)	(5.1515124593756703, -0.31268375612697774)	1.0	z	1.1448
11	N	B	M	A					N	4	0	shapes	N	8	True	59	(6.5800185270337739, -1.8243263806687331)	(-6.5577364221917716, 0.057890600610440046)	(-6.2367744050601672, -8.3861067328954331)	(2.3651712039684281, 7.3141785218848412)	1.0	z	0.878561
12	M	A	A	N					M	4	0	shapes	M	8	True	59	(2.4484254040289439, 4.5269652615435287)	(6.0843843564483571, -4.1871038755797745)	(-5.2848481564258192, 7.3299804921568068)	(-6.4232033059154592, -3.1644058458989042)	1.0	z	0.864078
13	N	A	N	B					A	4	1	shapes	A	8	True	59	(-2.1878204406059805, -8.5978358574456983)	(0.48346504095741949, 3.9077485077048095)	(7.5268424226520274, -7.9516164637580218)	(-4.4148252009994904, 4.6399744202858422)	1.0	z	0.69384
14	M	B	B	N	M	N	A	A	N	8	0	shapes	M	8	False	59	(5.1904210691960007, -2.2860534307045413)	(-7.1456307957027967, 8.1829977175064883)	(2.2920747526509526, 6.6391084730198404)	(6.2945668076527692, -6.9559940509948124)	1.0	z	0.639417
15	M	B	B	N					M	4	3	shapes	N	8	False	59	(-6.0312123326248743, -2.8604327643324847)	(1.7049912018058606, -2.0488095535034807)	(6.9935967439684656, 1.7616733845844514)	(-4.1465703964501159, 6.4444989166953679)	1.0	z	0.705084
16	N	B	M	N	A	A	M	B	B	8	1	shapes	B	8	True	59	(-1.7526023080617668, -5.3678157909281552)	(-7.5675408781206999, 6.1058836567090378)	(0.88788230067204488, -2.3440046197951858)	(-2.5558199373003054, 1.3437031274659539)	1.0	z	0.910993
17	M	B	M	B	A	A	N	N	A	8	4	shapes	A	8	True	59	(-7.2840114316203639, -4.2926701535626748)	(0.77636881864894747, 8.6183428344431015)	(0.59797601664818956, -7.3241798683353574)	(1.2052087313800577, -1.1481210871933518)	1.0	z	0.686317
18	N	A	A	N					B	4	2	shapes	A	8	False	59	(-5.1525255765754494, 7.6152396586006574)	(7.62789088078787, 8.2954385397142225)	(7.6709830716357494, -4.0974205486751067)	(-5.8261808294743922, -4.7368440083586183)	1.0	slash	0.734101
19	N	B	B	A	N	A	M	M	N	8	2	shapes	B	8	False	59	(2.8693645543539397, -7.9235857552959494)	(-6.2200601127865145, -7.6528726751324614)	(2.7573489620736193, 2.9631991243205338)	(-1.7575872711961509, -3.588340597411328)	1.0	slash	0.781702
20	N	B	M	B	A	N	M	A	N	8	0	shapes	N	8	True	59	(-2.676089971256042, 1.460030442199578)	(8.6325880223148097, -7.1694242967537054)	(3.4110259591332586, 7.9667497133809313)	(5.2831167642564214, 2.2910036289808513)	1.0	z	0.75566
21	M	A	A	M					N	4	2	shapes	A	8	False	59	(-7.2284154351643295, -7.308354008839764)	(4.0918349848698146, 0.42682185716621035)	(-6.6946549580371126, 4.5503719137905563)	(2.5730552826744066, -7.7315419937822121)	1.0	slash	0.567137
22	N	B	A	A					N	4	0	shapes	N	8	True	59	(8.4939712604243205, -2.1099187175895509)	(1.3909709548448781, 2.1607371287085737)	(-7.8526009649417103, 1.0041474535826165)	(-1.3893370934875335, -7.3353679128317406)	1.0	z	0.760708
23	N	B	M	N	B	M	A	A	A	8	0	shapes	N	8	False	59	(-1.8836776569583193, -2.4126499084970066)	(-7.0574976917454482, -6.7758335267442442)	(1.9593062815838067, 0.80735574702572777)	(-4.058316092795013, 6.3450629089782709)	1.0	slash	0.566486
24	N	A	B	A					B	4	1	shapes	A	8	False	59	(5.7888640667726143, -3.5053152841625872)	(-7.2041179959173718, 1.9582309314537056)	(4.5698973283804136, 5.5787856721877773)	(-5.4880474332627154, -2.6061928772335348)	1.0	slash	0.512022
25	M	B	B	M					B	4	2	shapes	B	8	True	59	(1.5864948172099158, -1.8754691124235974)	(-1.637925146248798, 0.73902935509089041)	(-5.9855268093615157, -2.7892248932165389)	(5.3223109930230361, 7.0168717913421297)	1.0	z	0.715748
26	M	B	B	A					A	4	3	shapes	A	8	True	59	(-6.2614046817077575, 2.9491437217580661)	(3.4923326492547151, 1.0548575403146536)	(-3.8802368599055237, -1.4574827777086128)	(2.7220809840392182, -7.3237531478307885)	1.0	z	0.735313
27	M	A	B	M					B	4	1	shapes	A	8	False	59	(2.3954599630879034, -3.9010893674663176)	(-4.2856104620169493, 5.704619507377517)	(-8.5650449519291385, -7.6607505799692586)	(1.6805523407716692, 5.6112811563905591)	1.0	slash	0.719127
28	M	A	A	N	M	N	B	B	M	8	5	shapes	N	8	False	59	(3.6621077846842152, 3.9083454249484539)	(-7.1916796974092696, -5.7310385392250502)	(-2.7561320831301961, 8.6241942204354487)	(-5.4718323580339971, 4.2806629701909529)	1.0	slash	0.748754
29	M	A	N	N	A	B	M	B	M	8	0	shapes	M	8	True	59	(-0.92598862545636074, 6.4359933471438779)	(-4.9208492278613596, 1.7853085930300878)	(7.3083428839438298, -0.67768923081516874)	(-5.4483409185392873, -6.2968009467900083)	1.0	z	0.716348
30	N	B	B	N	M	A	M	A	B	8	2	shapes	B	8	True	59	(-1.1376832157091092, 5.7867977028051971)	(-5.8494784634533179, 4.6715502748412305)	(-2.1068399172750709, -4.5427372085960265)	(7.4835371406217455, 6.6760434284317238)	1.0	slash	0.666059
31	M	A	A	B					B	4	0	shapes	M	8	False	59	(7.2219914678245356, -6.1505370069084835)	(-2.1382721163401284, 5.1590041031357465)	(3.4619927507656101, 2.3720488629223908)	(-6.4185320068984471, -7.98174323659208)	1.0	slash	0.815673
32	N	A	M	M	N	B	A	B	A	8	2	shapes	M	8	False	59	(-0.20039761433235448, -1.275168184876418)	(-8.1732815220964881, -4.1906844339085563)	(1.5446839866689253, 6.448149865375612)	(5.9741848962425728, 6.946807547631078)	1.0	z	1.16939
