TrialNumber	stim0	stim1	stim2	stim3	stim.probe	ttl.stims	corr.num	trial.type	stim.corr	block	match	Subject	stim.pos0	stim.pos1	stim.pos2	stim.pos3	ran	resp	RT
1	M	B	N	B	M	4	0	shapes	M	Practice	True	6	(-6.674162715366414, 7.30821067708575)	(-5.2036919384991087, -3.8057505979877728)	(7.512411174783221, 8.5093819486479667)	(3.2711687585868532, -7.6675710510473225)	1.0	z	3.78804
2	M	A	N	A	N	8	7	shapes	N	Practice	True	6	(-5.2259040505007963, -1.0571698167692745)	(2.0118513447841284, 5.9641799348872571)	(4.1885011547957163, 1.4437034099723594)	(6.1009545809754844, -3.4437888429874874)	1.0	z	1.05122
3	M	B	N	A	M	4	3	shapes	A	Practice	False	6	(6.69882941053514, -8.2293753016603084)	(-0.88812416086606483, -8.0104024509162048)	(4.3694876126764797, 7.3354508621105872)	(-2.5044471953627259, 6.2268471361707558)	1.0	slash	1.77706
4	M	A	A	B	N	8	3	shapes	B	Practice	False	6	(-4.4523206432795748, -4.5171676474994671)	(6.3482554367951014, 6.4746110505866152)	(4.804386340214954, 2.5591961162335988)	(2.0370894753823929, -5.0872874163744415)	1.0	z	2.36273
5	M	A	B	B	A	8	5	shapes	A	Practice	True	6	(-8.7145007944786794, -7.6296743245620977)	(-2.155440521534894, 5.6797354165152587)	(-4.2375799848234816, -2.0317075419707633)	(8.7437851099934321, 4.4482586644963718)	1.0	z	1.6543
6	N	B	M	B	A	8	2	shapes	M	Practice	False	6	(7.5475083039941495, 4.9745633993015641)	(4.1896349613530397, 0.60228051922819859)	(8.5957519535235178, -5.1640624765485565)	(-0.76126771817740391, -6.2732989451317165)	1.0	slash	1.73581
7	N	A	N	A	A	4	3	shapes	A	Practice	True	6	(8.5583072669183728, 0.3398339729421167)	(-5.8045467137724618, 2.9393992706926522)	(0.38524281105249791, -4.7597042935507741)	(-4.2651755182488129, -4.225806595368514)	1.0	z	1.20741
8	M	B	A	N	A	4	0	shapes	M	Practice	False	6	(-4.980904097171484, 3.6233935179448409)	(5.0598810403018657, -3.0859411013734857)	(2.7656226784843394, 0.38289236990465625)	(-3.6488982493707525, -0.31551208043102008)	1.0	slash	1.20088
1	M	B	A	M	A	4	1	shapes	B	0	False	6	(-3.8391285210873072, -2.2660356866734563)	(3.8331658180322261, 1.7854414109248449)	(-0.66074966728093898, 7.5089908277833679)	(4.982085982417507, -4.6401244868261875)	1.0	z	2.17752
2	N	A	A	M	N	4	2	shapes	A	0	False	6	(4.4034644362953674, -4.9126684830571321)	(-3.6167091300705785, 6.5761451532819102)	(6.92757615804571, 7.4153236306411152)	(-4.2187219418244188, -5.3452188729671768)	1.0	slash	1.71106
3	M	A	M	M	A	4	1	shapes	A	0	True	6	(3.2476138398838597, -6.7795050154732452)	(-2.3331243074246437, -5.1836689087240133)	(6.9822501174082383, 0.44015467391805529)	(-6.2529353168120112, 4.055391703908219)	1.0	z	1.38677
4	N	A	N	A	B	8	5	shapes	N	0	False	6	(7.0407932361605088, -4.6134453179469421)	(2.6101057515078345, -4.8531376129067327)	(2.4691812977383218, 7.3063450893380519)	(-1.3692746251027366, 8.5983873353230074)	1.0	z	1.89837
5	N	A	A	A	A	8	3	shapes	A	0	True	6	(-4.2031875983648179, -1.4980932055842278)	(-4.7263486561218135, 2.6424736975946139)	(8.2153599612633919, 3.8592700028268556)	(3.403004640403184, 5.2585231678081534)	1.0	slash	0.963684
6	M	A	M	M	M	4	0	shapes	M	0	True	6	(-5.2015661580189825, -1.3766201167276124)	(0.23333160799863428, -0.73696327550768714)	(-6.1895376210306399, 8.392646383807719)	(4.8697469101299973, 3.8553912092539395)	1.0	z	1.46135
7	N	B	M	M	N	8	4	shapes	N	0	True	6	(2.5276156019391358, 1.4051941093072777)	(6.2382903557409275, -5.2573146897313059)	(-6.868023483043908, 4.6258872620496394)	(-4.3700903629881829, -3.5069394009152948)	1.0	z	1.04522
8	M	A	B	B	N	8	0	shapes	M	0	False	6	(5.2558463972581517, -1.2995986601049561)	(-4.9049325342972949, 5.3334576858228537)	(-3.0306590988049367, -8.2319843150715517)	(-0.075348887217858262, 6.3054707719653518)	1.0	z	0.880727
9	N	A	B	N	M	8	0	shapes	N	0	False	6	(-8.7076029777034147, 4.3538063192241232)	(-0.71116166274564563, 5.4056866733167332)	(4.8627153301096993, 7.3668673637187041)	(4.5429596351244346, 3.2154305809842061)	1.0	z	0.844408
10	M	B	A	N	M	4	0	shapes	M	0	True	6	(5.7537865043052143, 7.814975429479027)	(-2.9531253153650532, 7.7438259944059311)	(2.7335934033817786, -3.1090252773255012)	(-4.0202147716808705, -4.327407756562585)	1.0	z	0.870084
11	M	B	N	A	B	8	0	shapes	M	0	False	6	(3.0633081659749379, -2.0371490756554467)	(5.0591942528600597, 6.8907311369980349)	(-6.3723093023316144, -3.1266334261881941)	(6.5877459936797695, -6.3246199872646667)	1.0	z	1.04559
12	M	A	B	N	M	4	3	shapes	N	0	False	6	(-6.8027438182097422, 4.6956765494465085)	(-3.050363730937109, -0.91204474775677102)	(1.4247245446039756, 3.7232958863293231)	(4.6714013408269182, -0.18759451804135097)	1.0	z	1.03935
13	N	A	B	N	M	8	5	shapes	M	0	True	6	(-3.9902966809176723, 6.572151722728071)	(-8.3058476739119946, -0.91175993224358454)	(2.3425133625092407, -7.7493592741411357)	(3.7171089060261693, 5.8389936413822223)	1.0	slash	1.25283
14	N	A	B	B	A	8	2	shapes	B	0	False	6	(-1.1687711339713589, -7.1573025258821215)	(-1.5801835970022609, -2.2567206478693098)	(6.9284129698283348, 1.7776990876058818)	(-6.8777502448107235, 4.860661444090832)	1.0	z	0.726576
15	N	B	N	M	B	4	1	shapes	B	0	True	6	(1.9065798178373754, -7.0715532567897128)	(-6.3475230135930492, 7.3895913520226166)	(0.084609034341063705, 7.6813597654968859)	(-2.0888037252705098, -1.9288058489520159)	1.0	z	0.672204
16	N	A	M	M	A	8	1	shapes	A	0	True	6	(2.2853186341884211, 8.6244775167663654)	(-5.3341367085120019, -4.83820808148774)	(-7.3993183016382362, 7.5304946784041391)	(3.6823590563797541, -5.6805354013881537)	1.0	slash	0.813731
17	N	A	A	M	B	8	1	shapes	A	0	False	6	(7.3654689099212156, 5.9478052291652705)	(-5.3805756981676751, 7.9857759417061871)	(5.0014933941190858, 0.28734344171026294)	(-5.3399834568125542, -6.4505067594362533)	1.0	z	0.911482
18	M	B	M	B	M	8	2	shapes	M	0	True	6	(3.171396655934986, -6.7844689324812233)	(-6.2150310901576518, 4.2290873335835535)	(-1.9870079344696485, 4.6778870540310677)	(-3.0750389052827662, -3.0813409682569066)	1.0	z	1.17329
19	M	B	A	A	A	4	3	shapes	A	0	True	6	(-7.5609551832660191, -0.75094625977872465)	(-5.0414916732208379, 5.5846069472658932)	(6.0112027737964357, -4.4668754740280558)	(5.9021880829010218, 3.4160563045026802)	1.0	z	0.804698
20	N	A	N	B	N	8	2	shapes	N	0	True	6	(4.0319331474000784, -2.329764609068274)	(-0.55945291754268034, -4.8298491279774067)	(1.7072051825527161, 1.5727041540524542)	(6.117159129765307, -7.6689688223794041)	1.0	slash	1.31241
21	M	B	A	B	M	4	2	shapes	A	0	False	6	(6.4251652797197991, 0.10160556723364245)	(-0.44762507027150455, 3.5509689597990111)	(4.9269816975755401, -5.1773402422393655)	(-7.9338505597639353, -6.1740109672716477)	1.0	slash	0.971968
22	M	B	A	A	N	8	2	shapes	A	0	False	6	(-2.0666436090066291, 2.03810649640495)	(7.5049974760946263, 6.6191945468831683)	(1.9544451180557942, 6.183959064831491)	(-7.8818587418259041, -6.2190473220543119)	1.0	slash	0.997752
23	M	B	N	M	B	4	3	shapes	M	0	False	6	(-6.8675816496426751, -5.940693807031483)	(5.1961535126609135, -2.9834645960733104)	(-5.6361521992283805, 8.2194992128716997)	(5.6677340544339447, 1.9842923203595753)	1.0	slash	0.75937
24	N	A	B	A	B	8	6	shapes	B	0	True	6	(-5.5016397356714712, 0.57079184413026596)	(0.63041901978629866, -1.3457437131624994)	(8.1859314296489529, 0.47324753987774137)	(0.62530698427289622, 4.2913186382203872)	1.0	slash	0.732916
25	N	B	A	M	B	4	1	shapes	B	0	True	6	(-7.9756387535502942, 6.1554011753330187)	(-8.1017003676691139, -4.1075360282046676)	(1.2559360201450112, -3.2130261883670643)	(4.4410307827394746, 6.4642879067956063)	1.0	z	0.97261
26	N	A	A	B	N	4	1	shapes	A	0	False	6	(6.6143381069337401, -3.1414795141752903)	(-1.4585755576472801, 7.8574098368108096)	(0.74165488946414193, 1.3569552292485074)	(-7.949541129838515, -0.3871305684366888)	1.0	slash	1.09227
27	N	B	A	N	A	8	2	shapes	A	0	True	6	(1.675384740225482, 8.2783225885064624)	(4.2470979177585253, -0.48940152225562095)	(-2.0586870925211569, 5.0391178635671903)	(-6.8123596084806008, 4.8194061389382661)	1.0	slash	0.894051
28	M	B	M	M	N	4	0	shapes	M	0	False	6	(-7.2337045386744947, -4.370637067329878)	(6.1444157590100392, 3.7006589236342222)	(5.2170915185669191, -4.5712702419115896)	(-4.3644758918214679, 8.3782422191784107)	1.0	slash	2.90171
29	M	A	M	M	A	4	2	shapes	M	0	False	6	(7.1938067627647051, 0.54247616153656786)	(-1.4602251775845616, -5.9271659283641869)	(7.3914104483741134, -8.440452966771085)	(-0.64283031587127937, 4.4299278029001048)	1.0	slash	1.01917
30	M	B	N	N	B	4	1	shapes	B	0	True	6	(-1.542392237231363, 6.2698039365163609)	(2.6905998090889209, -5.1861128994247343)	(4.872000934802589, 5.0169905903047223)	(-5.060739465965904, -7.8323103560134335)	1.0	z	0.936662
31	M	A	A	N	A	4	1	shapes	A	0	True	6	(-6.5561729253939003, -5.7558541629958508)	(6.1155257105645866, -0.91295781522984143)	(-7.5159525838024743, 8.2808566715658394)	(1.9050332957498366, 2.0041558835324924)	1.0	z	0.944414
32	M	A	A	N	N	8	4	shapes	A	0	False	6	(0.32011541513170627, 4.696499349778982)	(-4.2353568971738875, 6.1651766803317258)	(1.38636816858617, -3.8814850863108123)	(-8.7392775443659065, -4.0752395838290898)	1.0	slash	1.02403
1	P	D	D	D	C	8	2	shapes	D	1	False	6	(-3.5212367272502956, 8.5057137649342813)	(3.4840590113403884, 5.8896233254898984)	(8.1158822063248017, -3.7299761777092)	(-5.3131808563566629, 0.45362108724045314)	1.0	slash	1.8677
2	O	D	D	D	P	4	1	shapes	D	1	False	6	(-1.3052504533362779, -4.5011968361427481)	(-6.6867373846717211, 3.8865351940375756)	(2.2997458224540051, 2.2900447383399083)	(5.1047534133791856, -7.2779669563066207)	1.0	slash	0.767237
3	O	D	C	O	D	4	2	shapes	C	1	False	6	(6.402347856266454, 8.0521833259243749)	(-7.5632756311297076, -2.8412515442625397)	(1.85842096089908, -2.3497083077586751)	(-7.122276396696261, 2.5494727560951667)	1.0	slash	0.840937
4	P	C	P	O	C	4	1	shapes	C	1	True	6	(7.4276530576637647, -5.9863204526378038)	(-7.2954345655715365, -3.0335121859610066)	(2.7780789380135538, 6.4284700306192555)	(-4.1019776568153379, 4.7499312784874146)	1.0	slash	0.906578
5	P	D	D	O	O	8	1	shapes	D	1	False	6	(1.9203901370301892, 0.98970953663429562)	(-2.4534121531855817, 3.3836982906608188)	(-8.3316236354661708, 1.1190001705299171)	(-1.0565029355435591, -4.9351757125440088)	1.0	slash	0.626151
6	P	D	O	C	O	4	2	shapes	O	1	True	6	(-3.1871543312681725, 6.918887754924933)	(2.7124762886177223, 6.8622931621279637)	(-3.5876357886397532, -7.7940593612920077)	(0.0032842990709252007, -2.5412261409374226)	1.0	z	1.09595
7	P	D	O	C	D	8	7	shapes	O	1	False	6	(6.8223735605780256, -4.0068868470285128)	(-7.8449058258607627, -4.6349971841973838)	(0.73622842955416168, -5.9625397728007545)	(6.0938628664196344, 2.6305536611439795)	1.0	slash	1.63339
8	O	D	O	P	D	8	1	shapes	D	1	True	6	(-7.7011320949034836, 7.3861814041282621)	(-4.1742121031665578, 3.2094176112798802)	(6.3823633962657986, 7.8320192592180042)	(-3.0569426387011136, -5.9674369992513459)	1.0	z	1.343
9	P	D	C	D	D	4	1	shapes	D	1	True	6	(-3.5800707823166604, 3.8477604155243057)	(-4.7679439555487821, -4.6556338578488932)	(0.22785501949995535, 1.0492103216404107)	(2.6679236778191182, -3.1865125252532369)	1.0	z	1.83675
10	O	D	C	P	P	8	3	shapes	P	1	True	6	(-5.9707909905251455, 5.7222133886969289)	(-5.767961635855122, -4.4143971039150092)	(-1.6072472639494233, 1.916669204299513)	(0.35668044550765288, -5.0422975965425412)	1.0	slash	1.28225
11	P	C	P	P	D	8	6	shapes	O	1	False	6	(-8.5567254378977076, -5.4290944824368381)	(4.8851828269341038, 1.8876081250147418)	(6.9967069114163571, -4.688803010506013)	(-4.4898086732508453, 0.74597293757998528)	1.0	z	1.05322
12	P	D	D	P	P	4	3	shapes	P	1	True	6	(7.2090897411039343, 1.2000791181694979)	(-4.3660452826829621, -6.4185865858626876)	(2.6724107839236844, -0.55534552513791269)	(-7.1414767903130407, 8.4446774723768101)	1.0	z	1.06149
13	O	C	P	P	P	4	2	shapes	P	1	True	6	(2.6973000603436237, 6.1769304038614745)	(0.19072045613058464, -1.386878727011295)	(-4.026051334880572, 8.0557906698206239)	(-8.2348558247189754, -4.0222408812924053)	1.0	z	0.771262
14	O	D	O	P	O	4	2	shapes	O	1	True	6	(-6.6461615335663167, -7.6768600267230811)	(4.0678763909857114, 2.2031705462237809)	(5.0044179728700104, -6.426845486333491)	(-5.8580641640583604, 7.9863267469408612)	1.0	z	0.714797
15	O	C	C	O	O	4	0	shapes	O	1	True	6	(-3.1296716508297067, 1.245188027067929)	(6.433987097825181, -4.9884308047356187)	(8.6575824292302705, 8.0261185711115743)	(-2.7765292654181435, -5.2917487063386233)	1.0	z	1.27048
16	P	D	D	D	P	8	0	shapes	P	1	True	6	(-3.6492275975026276, 7.6675325314200506)	(2.0324519975556612, -5.3912972196532953)	(-5.0616208998377825, 1.3389226418169198)	(-7.3352543942390191, -5.6135271307500156)	1.0	z	0.828003
17	P	C	C	C	D	4	3	shapes	C	1	False	6	(2.8762325353843998, -5.4650812131034856)	(7.3296939830048089, 3.9366173377907607)	(-7.5348631360465088, -2.2358452263267417)	(-0.22591006788800527, 4.1097491464847096)	1.0	z	0.725691
18	O	D	C	O	O	8	6	shapes	C	1	False	6	(-4.8105467233495629, 0.55158119468345568)	(7.0715420604627752, -1.043917719649631)	(4.395748734644938, -6.7344740219573005)	(-8.1522463250342092, -5.1020961620989675)	1.0	slash	1.04929
19	O	C	O	O	C	4	2	shapes	O	1	False	6	(0.4614247050296445, -1.4979676882612685)	(-5.8294202052702158, 4.0670279925627089)	(-3.4460086631358626, -3.6856529026949181)	(1.6932297461481909, 8.6436824639097694)	1.0	slash	2.32876
20	P	D	O	P	P	8	0	shapes	P	1	True	6	(8.7380665136527007, -8.2864502558828796)	(-6.0842858443217747, 1.2979024134310979)	(-1.7811939238079875, 4.0435626427863998)	(-1.6862040556795641, -3.554873437502736)	1.0	z	1.05249
21	O	C	C	P	O	4	3	shapes	P	1	False	6	(-4.9698636346486529, -1.4461656524356963)	(-5.2056213438069987, 3.2731573500724576)	(4.7978504381841454, 0.60127370873064301)	(7.4078500343984786, -8.0656073778336506)	1.0	z	0.844086
22	P	C	D	O	O	8	7	shapes	O	1	True	6	(6.2221246517567952, 8.0886475091478687)	(7.9317249128947935, 3.2370378083210767)	(0.79955660168382003, -4.122659373098303)	(-2.0133017271667644, 0.81521703288204783)	1.0	z	0.863816
23	P	C	P	D	D	8	5	shapes	O	1	False	6	(7.8317531013585828, 7.6736942070141616)	(-7.273066282432203, -3.0271896045476838)	(-5.4337543986294694, -6.9820963943560752)	(-1.2772404476644432, 3.1293847644328956)	1.0	slash	0.759322
24	P	D	O	C	P	4	0	shapes	P	1	True	6	(-2.5349930186642382, -3.5349073114300849)	(3.949309798562231, -8.7373574520406585)	(0.53438172727365796, 8.4698661541951275)	(-4.712322437365013, 2.4977563790747759)	1.0	z	1.121
25	O	C	D	O	P	4	3	shapes	O	1	False	6	(5.3907337021062141, 3.0750367397179073)	(-3.4246105693370597, 7.6784685681668741)	(-2.9272909538342464, -3.7964449929635826)	(4.1924521538066539, -2.6235790926009726)	1.0	z	1.31471
26	O	D	C	O	P	8	7	shapes	D	1	False	6	(1.639350468864718, 7.9363816971162215)	(6.8550518957480726, 7.1130374640091727)	(-2.4727293795667791, 7.2001180850531412)	(-7.4950924669722481, -5.9137508012497761)	1.0	slash	0.896394
27	P	D	P	C	D	8	6	shapes	D	1	True	6	(2.9574314426121209, 3.8064433184655524)	(-5.4210298294597132, -1.5298711111738275)	(7.9175458303845332, -7.2135989964188418)	(-2.319651075611433, -5.4381547193137081)	1.0	slash	0.73802
28	P	C	D	P	D	4	1	shapes	C	1	False	6	(-3.4396974763998855, 5.9978031972565375)	(-5.5364572404266612, -5.1201868827797501)	(8.5460383776793982, 2.7617510557059983)	(2.1663152009263733, -8.3295864608495691)	1.0	z	0.751737
29	P	C	O	P	C	8	7	shapes	C	1	True	6	(-1.9249808193936122, -4.38018274128153)	(0.92844080233419923, 3.4149155361946821)	(-4.746554788057832, 2.4495304879245339)	(-7.3187180397495446, 6.266821882580107)	1.0	slash	0.925288
30	O	D	P	C	O	4	1	shapes	D	1	False	6	(-5.8475728155365472, 7.9811503990248092)	(-5.3768257071972005, -2.0340828605634318)	(0.16658240706743577, -7.759152372361986)	(7.6310245246756914, 4.1231782964016972)	1.0	slash	1.22305
31	O	D	D	O	C	8	2	shapes	D	1	False	6	(5.1108543025162909, -6.1935206726995595)	(-7.7337159658798571, -2.8000887800778793)	(0.32516948510799715, 0.11718659431990375)	(7.2025999049008238, 4.5199301507912999)	1.0	slash	0.958691
32	P	D	C	D	D	8	3	shapes	D	1	True	6	(-3.0640703638340412, 6.9491640227175093)	(1.4464926487152407, -3.365126490731857)	(5.3605991917271609, 7.1737065374690214)	(-3.2767471936191752, 2.856454958693341)	1.0	slash	0.820362
1	R	E	Q	E	F	4	1	shapes	E	2	False	6	(-5.0494438083772861, 3.6898638390232961)	(4.7534790901938617, -0.56360748162763841)	(7.7296284459152957, 6.8088749145342113)	(-2.009836690822306, -0.050308783975228977)	1.0	z	1.05996
2	Q	E	Q	E	E	4	1	shapes	E	2	True	6	(5.3105585424721244, 0.45451860764544882)	(-5.1588919048615054, 7.3093481099783375)	(-5.3735718660280529, -5.7939593609438589)	(8.150998993398062, -3.1175182194109139)	1.0	slash	1.66558
3	Q	E	Q	E	R	8	3	shapes	E	2	False	6	(-1.1668656404621105, 8.3563328553283078)	(5.4387656327060618, 6.2233025415495238)	(-1.0441529369335241, -8.333538574282974)	(3.3815618885539749, -2.3430027124504553)	1.0	slash	0.897155
4	Q	F	E	F	Q	8	7	shapes	F	2	False	6	(0.90810862722920049, -5.7770861888707934)	(-1.7736317558205741, 2.3205309042968629)	(5.3404298139904895, 2.7696441920992001)	(8.6562943888943309, -4.0681118693455538)	1.0	slash	0.714725
5	R	F	F	E	F	8	5	shapes	F	2	True	6	(7.0560991206631662, 4.2082071561593448)	(2.0673603621404677, -7.3950856882922036)	(8.3395127111781946, -0.90011168415834142)	(-4.3869890794755282, -7.0999684746221465)	1.0	z	0.762517
6	Q	E	R	R	Q	8	5	shapes	Q	2	True	6	(-4.3492202328287553, -1.2715173601780254)	(-2.1722462492821943, 4.7998007430598459)	(4.3183604880197315, 4.0188386520969601)	(2.4118434024604536, -8.4419466111932504)	1.0	z	0.814033
7	R	E	F	F	E	4	2	shapes	F	2	False	6	(-1.3842971393775345, -0.30545692079996734)	(3.969305856092884, -1.3390450384230883)	(-1.7442059605467728, 4.1746670080488819)	(8.191423293047432, 1.7982995063467033)	1.0	z	0.773711
8	Q	F	R	E	Q	4	2	shapes	R	2	False	6	(0.60841593314823328, -0.5652981415427476)	(-8.2451660619661808, 8.1638633136133052)	(5.1502352491441137, 0.057012493680426601)	(-5.8816856756225651, -4.3905825464757706)	1.0	z	0.693336
9	R	E	R	F	F	4	3	shapes	F	2	True	6	(-0.2024289728504769, 1.1808435398199286)	(-6.5209098347798484, -0.10346410027415764)	(0.2612565379261067, -5.2421905974275491)	(2.2869612106427848, 8.2030309521695486)	1.0	z	1.08512
10	Q	E	F	Q	Q	4	3	shapes	Q	2	True	6	(6.9010082518922129, 2.4506622054044982)	(-5.3662387491773682, 7.2539960183935683)	(-0.92727934557125202, -0.13257298849030263)	(0.58927397753696731, -7.1926828146285917)	1.0	z	0.710532
11	Q	E	R	R	R	4	2	shapes	R	2	True	6	(-6.1748861498253493, -6.9353107249115675)	(-7.3374952259155881, 3.8966016370310825)	(7.2578851537706974, -3.6881954742510068)	(0.83926199673672741, 1.5012875898928861)	1.0	z	0.786406
12	R	F	F	E	Q	8	4	shapes	F	2	False	6	(-1.7097053746461404, -5.6773111983423643)	(3.1254944297832932, 0.57649606059143821)	(-4.2616409579122374, 1.5769769195565324)	(-6.6943297001646629, -5.3737940952274625)	1.0	z	0.873977
13	R	E	F	E	R	8	3	shapes	E	2	False	6	(-6.7790956026414886, -6.7163681933739845)	(2.824328620849311, 0.51727030901331261)	(-7.1141943711586064, -0.57488548213391333)	(5.7249142467884706, -3.5655324625646383)	1.0	slash	1.15948
14	Q	E	E	E	F	4	3	shapes	E	2	False	6	(1.3022194258064967, 8.1341992591175902)	(-6.4696401501101235, 3.5015067123014916)	(4.1580769204760362, -7.9321848766226726)	(-3.786156027195104, -3.038479784878648)	1.0	z	1.20126
15	R	E	F	Q	R	8	5	shapes	R	2	True	6	(-6.9745014911098409, 3.7646493982027618)	(8.1803502813157323, -8.0555852454709029)	(-5.9884520110150872, -4.2806183349343652)	(-3.6187074776109798, 0.64792954405587722)	1.0	z	0.670801
16	Q	F	F	Q	E	4	1	shapes	F	2	False	6	(6.2962867017662489, 2.2563561920545858)	(-3.591515162459701, 8.6471959315684899)	(7.407149805322284, -3.8903425372391753)	(-2.0310257472336017, -6.2655770200301451)	1.0	z	0.706619
17	Q	E	Q	R	R	8	2	shapes	Q	2	False	6	(7.5715530359955352, -4.8461408344519183)	(0.27327546532155367, 4.7903535582949566)	(4.501225507909826, 2.3326387400894575)	(-3.9176688590787503, -0.96986050199397766)	1.0	slash	1.16208
18	R	E	E	R	E	8	7	shapes	F	2	False	6	(6.3544763331625518, 4.6459795162071007)	(4.494674726627311, -0.45366710242487684)	(-3.5530639006686142, -2.2740111407494927)	(8.5953345618543793, -4.0816204120183013)	1.0	slash	1.01585
19	Q	E	Q	F	Q	8	2	shapes	Q	2	True	6	(8.3259947127798846, -7.7305511844444679)	(-4.9087821527312894, 3.7079112145604398)	(-3.5273001212289063, -2.5373803822647272)	(6.7214052036662153, -3.6299077286452999)	1.0	z	0.753481
20	Q	F	Q	Q	E	4	2	shapes	Q	2	False	6	(7.2446756574146107, 7.3460081124137417)	(8.5633654505327108, -2.841901137822501)	(-0.94096861260093867, 6.2461299989580787)	(-0.39298577591913464, -8.6227556002713523)	1.0	slash	0.629211
21	R	F	R	E	R	4	0	shapes	R	2	True	6	(-7.1722151876801474, 0.80490299753461869)	(3.4440858919697366, -1.5836848432788528)	(-4.5189308625411488, -3.6429682450465011)	(7.3546812813007953, 6.9712205787748438)	1.0	z	0.888653
22	Q	E	F	Q	E	8	1	shapes	E	2	True	6	(3.419817007263255, 1.1742477938016513)	(-7.6710372591819942, 0.68531767808819666)	(4.6085126444124622, -5.216675098608099)	(-2.1698632229332828, -7.5724224053884495)	1.0	slash	0.972407
23	R	F	F	Q	Q	4	3	shapes	Q	2	True	6	(7.0003941858022412, -2.5135722340926296)	(5.6270207866176563, 2.1118107494380567)	(-2.9668406226504986, 3.7909664073048823)	(-4.8709432890386246, -8.5095137529323015)	1.0	z	0.748243
24	Q	E	R	E	R	4	3	shapes	E	2	False	6	(7.9129748859284383, -2.636773923650888)	(-7.3952460189542153, 4.462709635032418)	(-3.0016587172165883, -2.976210379661631)	(1.6004269456890245, 3.043428673327611)	1.0	slash	0.807762
25	Q	E	Q	R	R	4	0	shapes	Q	2	False	6	(-2.6912243909008131, -3.1850973714780384)	(0.34779934221397824, -0.51468683505999024)	(-1.0853192288168483, 3.9034924177188035)	(4.1375523761705111, 5.3118036394046584)	1.0	slash	0.809358
26	R	F	Q	Q	R	8	0	shapes	R	2	True	6	(-6.3104608390247643, 0.96169222610915917)	(6.46503081897073, 2.7307896484653522)	(-5.7688833749681274, 6.5136497638778827)	(3.2210721724733382, -0.40695609577445957)	1.0	z	0.684945
27	Q	F	E	Q	F	8	1	shapes	F	2	True	6	(2.8119984477157054, 2.742616055104385)	(7.6192125235525552, 7.1391973618691189)	(-1.8313338690716936, -3.8037371498103099)	(-0.13641986051052868, 6.6009375711241134)	1.0	z	0.952655
28	R	F	E	E	R	8	1	shapes	F	2	False	6	(1.1808368024200977, 5.8574645998969093)	(-4.5372819299322762, -4.088339846179915)	(6.7346120833544596, 2.7833128692768607)	(4.9750519040459871, -6.5370956562037117)	1.0	z	1.08623
29	R	F	R	F	F	8	4	shapes	R	2	False	6	(-3.865665890728943, -4.9557813331102487)	(-5.5674457510639206, 6.7854387280199742)	(5.5896347092183003, -6.7643003353433322)	(-6.2962832533122395, -8.5909165750236891)	1.0	slash	0.794064
30	R	E	Q	E	E	8	4	shapes	E	2	True	6	(-5.3564419961962226, 2.2335515772918484)	(-2.0229734425088672, 7.1808047550785545)	(-2.1688473844905038, -1.254551383218411)	(2.3297462007499217, 2.239610789061345)	1.0	z	0.831669
31	R	F	Q	F	Q	4	2	shapes	Q	2	True	6	(-6.5493486269634236, -4.6619956198800754)	(-7.6631036279250191, 2.6875491202828456)	(0.66239828165935322, 3.6003502856528673)	(4.9479984231686718, -1.1083133500966831)	1.0	z	0.771348
32	R	E	F	Q	R	4	0	shapes	R	2	True	6	(0.68208075271557611, -7.4831369592318895)	(-7.456749180125974, -0.9516017832434045)	(1.3904905410848691, 8.3159727291370054)	(-2.501911194466345, 6.7767877492599915)	1.0	z	0.674975
1	M	B	A	A	B	8	0	shapes	M	3	False	6	(0.022919139728745819, -0.49568472866323177)	(6.1452396566004666, 3.4287563708031161)	(6.0253444519760304, -3.5736622642612277)	(-4.3567934438453966, 4.4937616784684558)	1.0	z	0.59277
2	N	A	N	M	M	8	2	shapes	N	3	False	6	(1.6410485254479887, 6.6667086343056265)	(5.9554052216537503, -2.2920735570687372)	(-5.4271117332599861, 0.80284260153064579)	(-7.5581969118050125, -6.7529813262187837)	1.0	z	0.918141
3	N	B	N	B	N	4	0	shapes	N	3	True	6	(4.369383936150312, -2.6488116748826025)	(0.141772071473655, 2.9728395598233242)	(-5.5690733142238473, 4.1220718266833103)	(-1.2021538137118997, -2.1286649139463076)	1.0	z	0.871932
4	N	B	A	A	A	8	2	shapes	A	3	True	6	(-3.3481090869168701, -7.3759644053154467)	(6.6784445782465784, 2.1635208090160081)	(7.3714565584063365, 7.0423081836076999)	(6.9386478700439405, -7.9373075556045167)	1.0	z	0.757601
5	M	B	B	A	B	4	1	shapes	B	3	True	6	(-6.9275045690802441, 1.8655988395197269)	(3.3568593750200897, -7.0035109497339878)	(4.862195347112074, 0.22662076941464093)	(-0.26696530920809103, -1.9017700267472346)	1.0	slash	0.727205
6	N	A	N	A	M	8	5	shapes	M	3	True	6	(4.711869344778842, -6.725401081741416)	(-0.65547705725375494, -1.5012070784688554)	(4.2051951718930063, 1.0056538114434339)	(-0.76561197171039641, 5.6759938586920011)	1.0	z	0.624752
7	M	A	A	N	M	4	2	shapes	A	3	False	6	(2.8100985595375398, -4.7206522968248299)	(7.0838435918890106, 1.607318719730177)	(-3.4036203314645164, -4.9533920777030893)	(-7.8622076147367883, 6.5777816055699923)	1.0	slash	0.950533
8	N	B	N	M	N	8	0	shapes	N	3	True	6	(-4.9522789052018847, 8.1610951483361163)	(3.0046546427636596, 0.67188698106268774)	(1.5343302289917595, -7.0075791021688154)	(-5.681251522194799, 1.4559287202061775)	1.0	slash	1.00611
9	M	B	B	A	A	8	6	shapes	M	3	False	6	(-2.3654384275147846, -4.8984404950134408)	(7.5347793188026486, -0.50548113207191747)	(-6.0094510173233182, 0.98900038803638779)	(2.1836272369905831, -4.3727630251911132)	1.0	slash	1.04993
10	M	B	A	A	A	4	2	shapes	A	3	True	6	(6.981283508889284, -3.7620163277301053)	(-2.6214296178818168, -6.4142118300121496)	(0.93047187614318005, 2.3689012949984374)	(-4.6736991142802964, 0.70544067016693468)	1.0	slash	0.841416
11	N	B	N	N	N	8	0	shapes	N	3	True	6	(6.4516866126188681, -5.3018416307602019)	(-3.3953795552662207, 7.9162838316920165)	(3.7857242516078777, 0.79057841077084845)	(-0.89848764774578882, -7.7734258898653312)	1.0	z	1.07712
12	M	B	A	B	N	8	1	shapes	B	3	False	6	(-3.2604139685933236, -0.099632927769155444)	(0.9122617423474253, 8.1709728221714037)	(-5.6899399046752093, 6.2193970875957145)	(-0.6913795686790305, -3.3887720218463881)	1.0	slash	1.09685
13	M	A	N	A	B	8	5	shapes	N	3	False	6	(-6.4542136411332045, 5.7077866986040213)	(0.10308607715881735, 3.7837799261758782)	(-6.822538062785755, -1.106181865705171)	(6.3042356334805376, 4.970374003637037)	1.0	z	1.2104
14	N	B	N	B	B	8	1	shapes	B	3	True	6	(-7.6283261252558114, 8.1252529543050009)	(-4.8623297475489906, -7.9852236653705928)	(-0.50338341217244142, -0.87850982102400899)	(6.3413985323643445, -8.2949302366893978)	1.0	slash	1.08599
15	M	B	M	A	M	4	3	shapes	A	3	False	6	(5.3715079354448356, -4.9276593683006178)	(-7.1179580762290549, 2.2090778907331998)	(-4.7542034160941569, -2.6429098224778693)	(1.2232059900239456, 5.7266920707062603)	1.0	slash	1.14367
16	N	B	N	N	M	8	2	shapes	N	3	False	6	(2.6184579273276576, -0.14840213449337014)	(-2.4240313262071389, 3.3493620721033981)	(6.8146106783656979, 3.1065514538714414)	(-6.2392981885602925, 7.3220195718375507)	1.0	z	1.11128
17	M	A	B	N	N	8	5	shapes	N	3	True	6	(-4.7753935755718899, -4.5644628688440694)	(-4.3600707956143809, 6.2404990691243842)	(3.1943271428191, -4.6390861296601331)	(0.97396809159271136, 3.308753488995384)	1.0	slash	1.0128
18	M	A	B	B	A	4	0	shapes	M	3	False	6	(-0.84081844231534131, -7.1227243064843258)	(-0.29342543468790616, 2.4561350177647316)	(3.9286911524470955, 1.094674496319529)	(7.7671326878050131, -1.3577420465248062)	1.0	slash	1.1406
19	N	A	M	A	A	4	3	shapes	A	3	True	6	(1.9276253591225316, -6.0280511021280061)	(3.672484011542732, 7.4751250153592252)	(-1.4053044970575828, 5.2605427672079035)	(-1.452844210700059, -1.9025748391673574)	1.0	slash	0.762213
20	M	B	M	B	B	4	3	shapes	B	3	True	6	(-6.2986055432241699, 7.135156016584272)	(7.9666568510804794, -1.1718756090010993)	(6.2302194452708672, 4.4101600226691886)	(-1.6994783839428891, -6.7601489991186874)	1.0	z	1.27592
21	M	A	M	B	B	4	0	shapes	M	3	False	6	(-3.087010466575582, 1.337001710881335)	(1.3556581353977375, 7.3155129393863731)	(0.69595899706660092, -0.61003938014220971)	(-7.677766597256225, -1.9343100755546621)	1.0	z	0.895505
22	N	B	A	B	M	8	5	shapes	A	3	False	6	(1.9486129649111188, -6.7672714122303184)	(-8.0456407003998702, -8.4870565134518916)	(5.3700072819551306, -1.5220090007270484)	(-5.2938151019254356, -2.1742682181809396)	1.0	slash	1.40908
23	M	B	M	M	B	4	3	shapes	M	3	False	6	(6.8604545873604454, -2.8563601270767771)	(-4.317876993865946, -2.8581846091735956)	(1.8075610208474764, 3.05778021055694)	(-7.3708544401914748, 5.7334602625140878)	1.0	slash	0.89668
24	M	A	M	M	M	4	0	shapes	M	3	True	6	(-6.1786836833106449, -8.4111902717809741)	(-3.783019145372954, 0.036821845393458119)	(4.2645319390092062, -5.1237811982969248)	(5.5263912305520204, 4.8459190116391468)	1.0	slash	0.80072
25	M	B	B	B	A	8	6	shapes	B	3	False	6	(-3.3530049543940921, 6.8113512913658649)	(0.39715845915199566, -6.5249368785097257)	(7.333280097011059, 1.0975091196418116)	(8.3628547256515233, -4.2346482886241352)	1.0	z	1.8119
26	M	A	B	B	M	4	2	shapes	B	3	False	6	(8.7471997454691994, -7.4212362493877864)	(-0.77968822962239237, -1.2603790998241005)	(0.92240027272748115, 7.5372568723705093)	(-5.4900047422627338, 7.5735118942698954)	1.0	slash	0.899874
27	N	A	A	N	A	4	0	shapes	N	3	False	6	(-8.1372497216226751, 7.171857197816113)	(-8.4482862079615177, -4.6161830649964752)	(1.6707466496956762, -6.7548191326217086)	(4.1210226227664162, 6.8896102482639563)	1.0	slash	0.801191
28	N	A	N	B	M	4	0	shapes	N	3	False	6	(0.92097108701382524, 1.8335473514754792)	(2.6806668836340304, -3.6198207377897784)	(-8.7345957278977195, 0.88091425285904101)	(-3.1117146597936314, -8.2754106052284016)	1.0	slash	1.70683
29	M	B	A	B	B	8	1	shapes	B	3	True	6	(-7.5983370581390712, 1.8315254353138481)	(2.9978323993022791, -3.4376789666533663)	(3.6381424594374501, 2.9044656269122857)	(-5.9277430653586611, 7.0381897023127795)	1.0	z	1.00249
30	N	B	M	B	M	4	2	shapes	M	3	True	6	(-3.350923174461971, 4.8193690371626712)	(-1.9550090426701106, -5.6560634457150201)	(2.4328477504917299, 1.056009471066611)	(6.4773876298388942, -1.636351929651612)	1.0	slash	1.39422
31	N	B	N	M	A	8	7	shapes	A	3	True	6	(-8.3777718803538654, -4.8998631521249401)	(0.90703147329423572, -2.0925893450124562)	(-3.1402312567491535, -8.0435622690329325)	(5.5609880449079832, -6.8081886254251902)	1.0	z	1.07169
32	N	A	M	A	A	4	1	shapes	A	3	True	6	(-1.4069695826297286, 1.7229981282994871)	(-0.61452344637261191, -3.276481457911097)	(6.7527402864417603, 0.84614251533200502)	(3.9298307666845407, -3.8639684218981625)	1.0	z	1.07533
1	O	C	C	O	C	4	2	shapes	C	4	True	6	(-4.6765108027662379, 0.27991031298889268)	(-1.5969689057700096, -5.2769953844754287)	(4.7762708956337026, -8.6082600148871897)	(6.1879984585759829, 3.3099981296768579)	1.0	slash	1.69898
2	P	C	O	D	D	4	1	shapes	C	4	False	6	(-6.4498543352288058, 0.52788414132018247)	(-8.2600877835658135, -4.7812187881277239)	(3.5220904836177613, -8.5431580118644774)	(2.6874795826180851, 4.68332623096798)	1.0	z	0.856601
3	P	D	P	O	P	8	5	shapes	O	4	False	6	(2.162258582779641, -0.27449855220340247)	(1.3041316466334667, 7.6594860371916234)	(-4.0177170245885785, 8.0675002832542475)	(-5.3298281980313948, -1.2093428231531984)	1.0	slash	1.85822
4	O	D	C	O	O	4	0	shapes	O	4	True	6	(-6.0504421123527283, 6.1684316589306754)	(6.831922910153418, 7.5422434001845247)	(3.0202344490193003, -1.0034685835266677)	(-8.5345475835059137, -5.923004724410303)	1.0	z	0.80774
5	P	C	C	P	C	8	2	shapes	C	4	True	6	(7.646862714284147, -3.2187202500754601)	(1.8786684829783962, -8.1692308263051814)	(-3.6258233190038185, 3.0068468651911928)	(-7.9888303944203711, 4.7639206588884164)	1.0	z	0.723513
6	O	C	D	D	D	8	7	shapes	P	4	False	6	(-6.2333654728280106, 5.8344356400658182)	(2.6184182761174686, -8.0383136281679182)	(-1.1446471228834616, -6.6687855990414473)	(2.5965258458272817, -4.0119927244501685)	1.0	slash	0.807133
7	O	D	O	P	O	4	0	shapes	O	4	True	6	(2.8174805022574692, -0.19009126246591457)	(-3.614123161108977, 1.9295825877756467)	(8.1110732393425771, 5.0424611072992374)	(-2.6528802798101818, -5.1045694659335847)	1.0	z	1.20083
8	O	C	D	D	D	4	3	shapes	D	4	True	6	(-5.9875153511877786, 2.7117696387351788)	(4.4422559554414871, -1.4274590932168811)	(6.8010446298122744, 6.121938594595008)	(-5.0307877060190744, -2.3195656156152964)	1.0	z	2.03439
9	P	D	O	P	P	8	6	shapes	C	4	False	6	(0.93087146544153754, 6.9654742765508928)	(3.1366575702341528, -0.069327839569606198)	(0.67611916757049606, -8.073765182705225)	(-5.5713544583323609, -5.1481639565304302)	1.0	slash	0.752004
10	O	C	P	P	D	8	4	shapes	O	4	False	6	(-7.3231784044374324, -7.3196005316373283)	(-6.2030426526103746, -1.3986991313569863)	(-0.36490940445021991, 2.7256894075534372)	(-3.7068534268662443, 8.2180473075903286)	1.0	slash	0.861639
11	O	C	O	P	C	8	7	shapes	P	4	False	6	(-6.8588975903628322, 8.2002425927252602)	(-7.2793281836472357, 0.21386709114349678)	(8.4847664098219795, -5.4704977046122067)	(1.649019704866781, 6.6579213469839882)	1.0	slash	1.32521
12	O	C	P	P	O	4	2	shapes	P	4	False	6	(-7.3821277937463652, 3.3568335376399627)	(-5.6220819833667806, -0.37222722831560695)	(7.4654799430318448, 8.0673018315349694)	(2.9195641789239808, -8.0877882049227097)	1.0	slash	1.287
13	O	D	C	C	P	8	4	shapes	O	4	False	6	(-8.1357200285979197, -6.6315534781109404)	(-8.3933677451434789, -1.2942111982146027)	(2.6258003167335016, -3.7089597923986366)	(5.080102946923077, 4.9412992289976199)	1.0	z	0.922517
14	P	C	D	O	C	4	2	shapes	D	4	False	6	(0.57584495689443571, -7.8381626258746113)	(-0.42814120966716906, 0.70614862258742939)	(-8.379279442630704, -4.8323915270965259)	(2.7530229594830118, 5.3779105473173683)	1.0	z	0.868201
15	P	D	D	O	D	8	2	shapes	D	4	True	6	(-4.8109805363911313, 5.7896431919205078)	(-7.5302780399496125, -2.9175846998605079)	(6.9680106257372785, 5.9747285592383257)	(-0.2600195818394333, -3.1375687144165667)	1.0	z	0.707829
16	O	D	O	D	O	8	0	shapes	O	4	True	6	(8.3673802496196537, -1.7987263566104339)	(0.99007195970651019, -1.1516544869616148)	(-1.6458706911029024, 3.5143538551186193)	(-7.3297171424270262, 1.202599720160066)	1.0	z	0.59526
17	O	C	O	O	O	4	3	shapes	O	4	True	6	(-5.0741229363077078, 6.6503235329106296)	(6.3655999951901219, 7.2445817742777194)	(-1.9924640095502344, -3.873950573984124)	(3.1926077904822243, -4.5930682063457349)	1.0	z	0.59119
18	P	D	C	D	C	4	3	shapes	D	4	False	6	(1.7157139247805624, -6.5397240122856166)	(-6.5567000334503831, 7.0297975389677845)	(8.425317804717789, 7.3758278100755241)	(-5.1635961151639567, -5.3149067881597887)	1.0	z	0.650836
19	P	C	O	C	P	4	0	shapes	P	4	True	6	(8.4014134776451463, -4.410038206848756)	(0.98577937674770055, 7.5871452055854469)	(-0.83613092073105832, 3.9698584951548952)	(-6.8498597840869717, -2.9282065451596608)	1.0	z	0.554514
20	O	C	O	P	C	8	5	shapes	C	4	True	6	(-2.6192393181440927, 3.0464890250366938)	(6.3367140793385772, -3.5341023862831262)	(1.1968683164723881, -6.2119455722150558)	(3.6364921453110419, 1.0110277357854027)	1.0	slash	1.4642
21	P	C	O	D	O	4	0	shapes	P	4	False	6	(7.4742609465738745, 7.6311176409580277)	(0.75006605634000323, -6.6798096565208471)	(-6.5956406956295996, -1.4178178869771028)	(-5.3913583288051452, 3.9508384666744334)	1.0	z	0.805577
22	P	C	O	P	D	8	7	shapes	D	4	True	6	(6.9823090940117289, 0.073516216233368681)	(-7.4381941316864744, -8.7312443785844298)	(0.99984814601511651, -8.3319513680183164)	(-2.8411277917093338, 3.0227087357308502)	1.0	z	0.793414
23	O	D	P	C	C	4	2	shapes	P	4	False	6	(7.3691882595268545, 2.4777681745455045)	(-4.2405528949828719, 3.627138008622234)	(-6.4077563525135606, -6.4820242415183413)	(1.306155960643629, -2.3797022198096522)	1.0	slash	0.852988
24	P	D	C	D	D	8	7	shapes	D	4	True	6	(-4.2745594009795642, 6.868371573239914)	(1.30774593537142, 3.279595588147096)	(4.4632956109155089, -7.0268712363149533)	(1.472793153858186, -1.7008449078048482)	1.0	z	1.03074
25	O	C	D	D	O	8	0	shapes	O	4	True	6	(-0.1445389007370288, 1.2144660275769592)	(-6.7334370087229205, 0.37733818449702206)	(0.92052867722069287, -3.2223118973088836)	(5.5833117145701596, -3.9681923437629392)	1.0	slash	1.02826
26	P	D	P	C	P	8	2	shapes	P	4	True	6	(4.1379916236040497, 8.5015104395138508)	(-3.7000618156705585, 1.9480162710236026)	(-7.9043533293626069, 2.1529071535426372)	(8.4254429258556875, 1.9212350894530914)	1.0	slash	0.732023
27	O	D	P	D	D	8	6	shapes	O	4	False	6	(-5.6441461013686647, -5.5678690757004556)	(3.359421721365127, 0.16842236328590765)	(-5.0089190167674627, 0.77229310961668673)	(5.0531851993141217, 5.7414676574455559)	1.0	slash	0.717642
28	O	D	D	D	P	4	1	shapes	D	4	False	6	(8.6200781017292698, 7.169852693376777)	(-5.298907860079586, -1.087420128992644)	(6.3803301076316519, -3.3444108300367708)	(-2.4649915284927477, 1.9927607554885114)	1.0	slash	0.687082
29	O	C	C	O	D	8	3	shapes	O	4	False	6	(-0.91242064442648196, 7.1560448926544638)	(-7.1057502324283508, -3.0397885548901993)	(-7.7316799910670371, 7.0390139887321368)	(1.3835789012699138, 3.0398089618642992)	1.0	slash	0.608977
30	O	C	C	O	D	4	2	shapes	C	4	False	6	(-2.2790924563178718, 0.74593199018926271)	(-8.0901754082006718, -5.297803857621771)	(7.8262713160480288, -8.2422849392457245)	(3.8435338623482931, 0.18284068441185219)	1.0	z	0.96068
31	O	D	D	C	D	4	1	shapes	D	4	True	6	(5.2988813292057806, 6.0234979043687584)	(-7.1665504733267724, 6.0289759792463098)	(6.7650423624663887, -8.7133667686359608)	(-5.340253926544011, -7.0384420503734368)	1.0	z	1.0576
32	P	D	D	C	C	4	3	shapes	C	4	True	6	(-5.8894834406006034, -2.1481790657089803)	(5.5749581558154411, 0.61329118006522876)	(2.1094859508148893, -1.821802277439283)	(-7.7391743709915986, 3.9737233621729686)	1.0	slash	0.623938
1	R	F	F	R	R	8	6	shapes	R	5	True	6	(-4.7451513561184022, 7.9361991639047389)	(-7.3526030133360578, -3.645218488218064)	(7.2306743342067001, 4.3252909173444944)	(-2.8009802617286397, -1.8833524312366379)	1.0	slash	0.859415
2	Q	E	F	R	R	4	2	shapes	F	5	False	6	(3.5706162121502807, -6.2810391962614238)	(-0.044664012655481145, 8.2596376037395416)	(-6.4198040190416386, -2.2774443609900068)	(5.1133586563336326, 5.7235602578572298)	1.0	slash	1.00919
3	Q	E	E	R	R	8	4	shapes	R	5	True	6	(2.6096487314818742, -2.5400368606041592)	(-1.9090966458892353, -5.2932337817299455)	(-8.0595721008843064, -5.4241075222550625)	(-8.1592320600930321, 5.2426636303136238)	1.0	slash	0.812717
4	R	F	E	R	F	4	1	shapes	F	5	True	6	(-7.9886391847089566, 4.3756408041809376)	(-3.4516705379224613, -8.2014596315644059)	(1.5823291719184986, 0.89897415883350007)	(0.72887357347975268, -5.8502702118569232)	1.0	z	2.0363
5	R	E	F	Q	R	8	6	shapes	E	5	False	6	(8.3267842493333859, -6.4477900565814199)	(-6.9534498171380488, 6.0339383199160377)	(5.4032500743906304, 1.9005306679265725)	(2.5350680858378318, -2.7550772521373084)	1.0	slash	0.930009
6	Q	E	Q	Q	Q	4	0	shapes	Q	5	True	6	(6.8131176992240157, -8.7462646632300416)	(3.4318885281483453, 8.7072933914948294)	(-2.4179817668340027, -5.3700211808618352)	(-4.1610253359425098, 5.0849130820638564)	1.0	z	0.657604
7	Q	F	E	F	R	4	0	shapes	Q	5	False	6	(-6.6945549939239424, 6.781766649105716)	(4.2695430747724892, -3.7935171077227867)	(3.3275162550359862, 1.7673055689589319)	(-0.87736996704838344, -5.8551887735617596)	1.0	z	0.76132
8	Q	F	Q	F	E	8	6	shapes	E	5	True	6	(-8.3435400105963069, -4.5739957926949932)	(-3.8626736869712985, 4.2608333337833955)	(-6.5647742838930725, 0.14861504182580987)	(7.9426388881597951, -0.95817178220899279)	1.0	slash	0.390908
9	Q	F	Q	Q	Q	4	0	shapes	Q	5	True	6	(3.2448713808081973, 1.2583736669540517)	(7.8974761659985404, -0.1414928665192221)	(-7.7456312560875888, 6.1526458215081608)	(-1.512859479177898, -7.2179552637775286)	1.0	z	1.81865
10	Q	E	R	R	E	8	1	shapes	E	5	True	6	(6.4209062046408274, -5.7340981767790389)	(2.4096029818218501, -1.2013778718647359)	(-6.7492660504977184, 3.2468083270323014)	(-8.5393178867764377, -3.6662925677260079)	1.0	z	0.908205
11	Q	F	Q	Q	Q	4	3	shapes	Q	5	True	6	(-8.6670490937923059, -0.53115033036415227)	(-7.963014657030314, 5.1091173686577811)	(0.33749392062733641, 6.0188106047561831)	(0.30005755446339322, -0.70534303599269776)	1.0	z	0.607963
12	R	F	E	R	E	4	2	shapes	E	5	True	6	(-4.5872647734427447, -1.7853788083060333)	(-1.5198343272576489, 8.3908117800431583)	(7.1104855185180291, 0.50220900476024966)	(7.1265376115429326, -7.6859168547025751)	1.0	z	0.577558
13	Q	F	E	E	Q	8	6	shapes	E	5	False	6	(6.0524229697113405, 2.7483346517528844)	(2.6695838380449501, -2.1950894666518153)	(8.516366631960345, 7.5062312852419169)	(-5.3896550320868588, -1.5241966971685112)	1.0	z	0.769196
14	R	F	F	R	Q	4	3	shapes	R	5	False	6	(-7.8213490058721131, -0.61514509456250543)	(5.3470900704989237, -0.51951396919623072)	(6.0103031033957386, 7.6239135182771562)	(-2.4008756629239985, 6.7150674984319227)	1.0	z	0.704832
15	Q	E	E	E	E	4	1	shapes	E	5	True	6	(-0.70129625003396256, -0.29731224741021656)	(6.3645859697960159, -0.42251437078270371)	(7.0871154991747058, 7.2927290057528005)	(-7.7636937889531517, 1.3412381493374035)	1.0	z	0.55858
16	R	F	F	E	R	8	0	shapes	R	5	True	6	(-1.4276284285644971, 7.7985939936050421)	(-4.7696770250128004, -2.5526653258364984)	(6.6341515676964544, -7.8889589259981587)	(-5.6435590467992043, 6.732180063745016)	1.0	z	0.628149
17	R	F	R	E	E	4	2	shapes	R	5	False	6	(1.2081508528833051, -5.6088331613408773)	(-5.8616433702670188, -5.0027335859890609)	(6.4451884005961944, 0.053316214664617334)	(-7.6623922092879582, 2.8426372895435925)	1.0	slash	0.760017
18	R	F	F	R	E	8	7	shapes	Q	5	False	6	(6.8974010196713156, 1.2784483382351013)	(1.8698808083442451, 0.62808499857660927)	(-3.5956580220084655, -7.3325214813619084)	(-1.8148619096160825, 6.7618452986208446)	1.0	slash	0.973697
19	Q	F	E	R	E	8	7	shapes	Q	5	False	6	(6.7706170573361568, -1.6961430349327893)	(-2.8604946357131222, 2.8976274095109442)	(-7.8958277394987828, 0.64930408718735855)	(5.0674986994431332, 5.0078849414224997)	1.0	slash	0.783326
20	R	E	F	E	R	8	0	shapes	R	5	True	6	(-3.8283326216969238, 4.8626940813660422)	(-1.7803386285298766, 0.28230659279811476)	(-2.9888506319249011, -8.2907921071098478)	(-4.8480252435791691, -4.3672866308679703)	1.0	z	1.39271
21	R	F	F	E	Q	8	7	shapes	E	5	False	6	(2.6380881128000393, 2.3597990221281275)	(-7.281588677573489, -8.1608170130370681)	(6.7566693544947167, 0.9930118972891151)	(-1.6076580283635327, -2.9032699847185865)	1.0	slash	0.814447
22	R	F	Q	F	E	4	1	shapes	F	5	False	6	(7.1104964541504341, 1.4251347016533558)	(-8.3589320509307576, 2.796509544224989)	(2.0005678435746876, -2.0328171175806267)	(-6.3515734445593104, -8.1822074109447662)	1.0	z	0.926185
23	R	F	R	E	F	8	0	shapes	R	5	False	6	(6.1676817279646485, -1.3341755985064676)	(5.9808830899718011, 5.2936003612243496)	(2.9444820318338358, -6.9316560217521852)	(0.30045094389058136, 5.4649193104175158)	1.0	slash	1.22776
24	R	E	Q	Q	E	4	2	shapes	Q	5	False	6	(0.95540267748294383, 8.1469199465463369)	(2.2629729839977877, -0.50708561283135722)	(-4.5374651083289201, 8.3482072485150844)	(-0.16473759859945147, -7.7106178494162894)	1.0	slash	2.66542
25	R	F	Q	R	F	8	5	shapes	F	5	True	6	(-8.5239612601842651, 8.0426147002621242)	(2.0622424777958841, -3.1597893287287677)	(2.1674940510678908, 7.0227161185102709)	(5.569286252051354, 2.9774446286904528)	1.0	z	0.768885
26	R	F	E	F	E	8	4	shapes	Q	5	False	6	(2.8275464573327938, -8.2399778812237763)	(1.0861265112655669, -2.6851121290597852)	(-5.1287162846260124, -6.4694596620717544)	(-8.2925875178096344, -1.7755416127337948)	1.0	slash	0.740695
27	R	E	E	F	R	8	5	shapes	R	5	True	6	(2.4467172407785043, 1.9581409906251412)	(-4.572309107979871, -4.8429651109470457)	(-1.0178280337103747, 4.3913330133657258)	(-4.4133616847200212, 6.9675807943234691)	1.0	slash	0.750285
28	R	E	R	F	R	4	2	shapes	R	5	True	6	(8.5646993898908477, 6.7397690333890949)	(4.7170384210707113, -1.5037468456239331)	(-3.8983759368719255, -6.0455176277283016)	(-2.7343717061929409, 1.3646459799755366)	1.0	z	1.96977
29	R	E	E	Q	F	4	1	shapes	E	5	False	6	(8.4861787036599949, -3.6655629362098274)	(5.6007651705403454, 5.7884719391756967)	(-5.2894508244997391, -4.1989430123611484)	(-2.4055293166240297, 7.9313711444113295)	1.0	z	0.873493
30	Q	F	R	R	Q	4	0	shapes	Q	5	True	6	(6.1743119959125732, 2.9299773276288459)	(-0.64631297980933766, -8.1490604902521717)	(5.2421414312462904, -6.994355739749718)	(-6.90120085686819, 8.1135337854592784)	1.0	z	0.685089
31	R	F	R	F	E	4	2	shapes	R	5	False	6	(4.1529902774733589, 1.1690206855121659)	(-7.2881632542090502, 5.2783871094755987)	(8.6912937493039522, -7.1608453634426787)	(-3.275334848795862, -7.5310220037916498)	1.0	z	0.590302
32	Q	F	Q	E	R	8	2	shapes	Q	5	False	6	(-3.774314092431263, 1.1812748597050451)	(2.3108185123572422, -2.3253050768619676)	(8.7345042314645553, -6.2540260330496231)	(-8.5228035070981107, 6.0597872469482432)	1.0	z	0.694468
1	M	A	A	B	M	8	0	shapes	M	6	True	6	(-0.54238667288078091, 4.2838361174333617)	(-5.0713785967539611, 3.7088608462482622)	(-7.5867828556828965, -1.9017039091914683)	(6.4197626407741151, -7.122386744010706)	1.0	slash	0.93817
2	M	B	B	N	A	4	3	shapes	N	6	False	6	(2.8332552938551192, 0.15035984827827953)	(7.8943127498996439, -0.69876476582344438)	(-0.56402368859128416, -5.1386373117694664)	(-3.1700450142507055, 0.42865520877476904)	1.0	z	0.791742
3	M	A	M	B	M	8	5	shapes	M	6	True	6	(6.2874371679543639, 2.0082235195974718)	(-8.0063146898206767, -3.3425574151576587)	(3.9948117283096849, -4.8013001684115366)	(0.38257198927924208, 6.9463581039235898)	1.0	slash	0.981426
4	N	B	M	M	A	8	5	shapes	B	6	False	6	(-2.7531259869720248, 0.82511441650413708)	(8.643836229302714, 6.0276905093761979)	(-7.1882666498121131, 4.4601961596178263)	(0.98305141213698732, -5.4505617608793919)	1.0	z	0.887298
5	N	B	N	N	B	4	3	shapes	N	6	False	6	(-0.82230370831158517, -7.3027010382695456)	(8.0141918795521434, -4.8811483637527164)	(-0.17158261009427456, 0.87793856192485542)	(8.6153375728816961, 7.6528870336910302)	1.0	slash	1.44052
6	N	A	M	N	M	4	2	shapes	M	6	True	6	(-2.8449821759129357, -5.3119748517836367)	(8.0893264256200474, -7.5528993395603825)	(4.0634316995857009, 2.5429387971818489)	(-6.5548606597758194, 3.0071465012453427)	1.0	z	0.850212
7	M	B	M	A	A	8	2	shapes	M	6	False	6	(7.9065051861777889, 7.3368662997686975)	(1.4546742969023629, 0.41981410092219029)	(-3.924993571335988, 1.179974867496977)	(-1.4061341368714233, 5.8852230269895589)	1.0	z	1.08396
8	M	A	A	M	M	8	5	shapes	M	6	True	6	(-7.2624793653059729, 1.1807093547338496)	(-1.1744425566066203, 3.683542122496748)	(3.5766636468719639, 7.0273308190132138)	(2.0177419870589119, 1.1845262809793997)	1.0	slash	0.655641
9	M	A	B	N	M	8	0	shapes	M	6	True	6	(-2.3183967052424137, 2.5634666694630415)	(-3.1907376971334909, -2.7293526707768034)	(3.2592712064646872, -8.6212913252490839)	(4.8359673159570171, -1.8199373802648404)	1.0	z	0.921198
10	M	B	B	B	M	4	1	shapes	B	6	False	6	(-0.99287803972360944, -0.50089098398879628)	(0.68829769518160333, 8.2234992079575164)	(8.6593205449267607, -1.6753700878304096)	(-3.5023486474190921, 7.7267355809159994)	1.0	slash	1.00286
11	M	B	M	N	N	4	2	shapes	M	6	False	6	(-3.4508003043227431, -6.384747234592334)	(4.185607863142998, 2.9263928284070779)	(-3.9649910679555083, 2.050330440809141)	(6.8775088617011715, -1.8500941134737481)	1.0	slash	1.05234
12	N	A	N	M	N	4	0	shapes	N	6	True	6	(4.6227319205771131, -4.401007073904184)	(-5.5935318042540025, -4.8345493441897354)	(1.0329735442060315, 7.5882041853753499)	(-3.0143239543697078, 1.0761521614883147)	1.0	z	0.948102
13	N	A	B	B	M	4	3	shapes	B	6	False	6	(-4.8166435754860162, 3.01161350790942)	(6.1075854451812823, -7.0268144072809893)	(2.5407939526259984, 4.3182473488948574)	(-8.6686934180115891, -8.070665191256829)	1.0	z	0.751761
14	M	B	N	B	M	8	0	shapes	M	6	True	6	(0.71031395145889675, 0.14189627634090485)	(5.4915287686499177, -5.173477078160527)	(6.2242844712687138, 2.6532402831504225)	(-5.4393481728715267, -0.35163139384820497)	1.0	slash	0.893373
15	N	B	N	B	N	8	7	shapes	A	6	False	6	(2.295390507157526, 4.953512394674755)	(-7.8414271680860992, 2.6363945203417263)	(-7.0498724406889668, -7.6742461859269788)	(6.6732025238430861, 2.036752728010967)	1.0	z	1.8311
16	M	A	B	M	B	8	2	shapes	B	6	True	6	(-4.715947119942288, 0.8028629678314303)	(-5.3354711968503885, 7.9586691152926718)	(3.9696378100928751, 0.75679626623184681)	(4.0130755781309233, -8.2192092741033989)	1.0	slash	0.556718
17	M	A	B	M	B	8	1	shapes	A	6	False	6	(-5.4698121808500115, -2.6630070535658676)	(6.9118660188360064, 1.1812265683483396)	(-2.6567254844636219, 4.7899107638100347)	(1.8368284528094847, 1.1714413140692042)	1.0	z	0.754428
18	N	A	M	N	N	4	0	shapes	N	6	True	6	(-0.17191320424473844, 0.073455925180702764)	(-1.6549902278541424, -4.9488484518314859)	(3.9080309785776173, 4.1221105689531949)	(7.3339528122753741, -2.2776088674626767)	1.0	z	0.606145
19	N	A	B	A	B	8	2	shapes	B	6	True	6	(-3.2710630945137478, -3.6285736072279677)	(1.9973693839352986, 6.2689286540536369)	(7.0289175186427197, 2.7401323146087293)	(7.7767479492500833, -3.3136709820580155)	1.0	z	0.657693
20	N	A	B	M	N	8	3	shapes	M	6	False	6	(8.3736476500638801, -4.1105411103360918)	(-2.1815007425981943, -2.0258104389973406)	(-1.4480250089166153, 4.4256151923947193)	(8.066278662446976, 7.839547747055633)	1.0	slash	0.723402
21	N	A	M	N	A	4	1	shapes	A	6	True	6	(4.1774168913696208, 8.5237215152660895)	(-4.7772834062834004, 3.3904036088751219)	(-7.0913493201989004, -3.0396578611344278)	(7.4071948918628152, -6.6269592218891962)	1.0	z	0.757098
22	M	B	N	M	A	4	3	shapes	M	6	False	6	(-4.5190467855511205, 5.2215431359425395)	(4.4597649531984995, 6.7154537081423893)	(-3.2154852505314864, -3.9458050221368799)	(7.9643624212291932, -5.6706867231445086)	1.0	slash	0.696655
23	M	A	N	A	M	4	0	shapes	M	6	True	6	(1.7536957442268282, -1.9417885139841289)	(-1.5133433220575627, 4.7234112453836783)	(-2.0126270801419794, -3.8965958729920533)	(8.3085153943179719, 8.2329127593551092)	1.0	slash	1.22429
24	M	A	A	B	A	4	2	shapes	A	6	True	6	(5.2995298419812045, 0.46164271302537685)	(-2.1636862346931069, 7.0149962747054975)	(-6.1087055348244688, -8.555537428308547)	(4.394060401904909, -6.7953606147388994)	1.0	z	0.79794
25	N	A	A	B	A	8	2	shapes	A	6	True	6	(-6.4414425228743974, 4.5436753282541957)	(-5.7075079436904606, 0.50876396061063467)	(8.4369873147741856, 0.79406282861605426)	(-4.6311195818811424, -7.1612306616768802)	1.0	z	0.675489
26	N	A	B	B	A	8	5	shapes	M	6	False	6	(-8.4702129696081734, -3.1755151972616087)	(-0.64886568685839485, -3.5177965108006752)	(3.0952484189014982, 6.5103801718949494)	(-4.434379018593078, 0.58492967346607116)	1.0	z	0.825147
27	M	A	B	B	M	8	2	shapes	B	6	False	6	(3.2500693611078866, -3.6242319537718872)	(7.4451271296698103, -5.8938423535002036)	(-4.1173771471885399, 3.4442431787856105)	(2.6394144385594629, 8.0373665123301201)	1.0	slash	0.681173
28	M	A	N	A	M	4	2	shapes	N	6	False	6	(-4.3913155738151852, -4.7215414583337836)	(6.7271430866756869, -0.81666439536643853)	(-0.50599051128050476, 5.8976234883095326)	(5.3152497615086425, 4.8971690246087753)	1.0	slash	0.770473
29	N	B	M	M	M	4	0	shapes	N	6	False	6	(-2.7169468270920243, -7.0596746537612329)	(-0.36748139950622338, 5.7574484089270186)	(3.3296104344754891, 7.9483786441814814)	(0.10035561912406621, -0.33412465570848582)	1.0	slash	0.714381
30	N	B	M	B	M	8	5	shapes	N	6	False	6	(5.6884401769884043, 1.1679952956193915)	(-3.9083471932182823, -2.6611941768768812)	(1.9867716103630286, -6.5925138950045685)	(1.0623309613294207, -2.1593118139658074)	1.0	slash	0.527949
31	N	B	B	N	N	4	0	shapes	N	6	True	6	(5.7116366700255927, 4.481909283038247)	(-0.71006388494018147, 1.2476038242771867)	(7.2233638026704536, -8.1285054441289581)	(-3.7601373540454546, -8.5010176204002637)	1.0	z	0.655639
32	M	A	M	A	M	4	0	shapes	M	6	True	6	(5.0304748695126289, 0.3579868672842661)	(-3.9946696903604773, 0.88844325152911807)	(3.1765371774962112, -7.9847138150289361)	(-4.3099495299801882, -4.0593811792198977)	1.0	slash	0.733347
1	O	C	D	C	O	4	0	shapes	O	7	True	6	(-0.32841828847181631, 0.37323687790099491)	(-7.3855169270071954, -2.1883665625960846)	(2.5141554974487086, 7.9682278097769021)	(2.336707797865337, -8.0870742920002847)	1.0	slash	0.736913
2	O	C	P	D	D	8	5	shapes	O	7	False	6	(6.6673656759201947, 6.8093396386430616)	(8.2448186164126369, 1.3090581283070328)	(5.8178403389611546, -3.9674792616852805)	(-5.3150786187338159, 8.6656828718735035)	1.0	z	0.690568
3	P	D	D	D	P	4	0	shapes	P	7	True	6	(2.9194589856033808, 7.2293728265455144)	(-6.7722460458691192, -4.3967266460970578)	(-2.4390714821546906, 8.1264360333758923)	(2.1058378281603147, -3.0528956854756135)	1.0	z	0.77823
4	O	C	C	O	D	8	5	shapes	P	7	False	6	(0.79586819361638206, 7.8367938337180867)	(-5.8051044978579327, 1.1356868042645853)	(1.6698787312733394, -1.5890768880309913)	(-1.2372288839576937, -6.994566496644433)	1.0	slash	0.627794
5	O	D	D	P	C	8	4	shapes	C	7	True	6	(1.8566741866486289, 3.7235003426626072)	(-2.2603595669217764, 7.0082168031627212)	(7.1090845029564456, -1.3861522802991955)	(4.9059692684920453, 6.6740293035730822)	1.0	z	0.81963
6	P	C	C	O	D	8	3	shapes	O	7	False	6	(2.8821195598152247, 1.0072092761684495)	(-1.5993966087998128, 4.1594702232956227)	(8.6823983607747515, -2.3231493287600173)	(-4.619866619054271, 1.5244527643450514)	1.0	z	0.877213
7	O	C	P	O	C	8	4	shapes	D	7	False	6	(-7.5121501788182288, -2.9355699523709333)	(-0.019102383133962064, -2.1251415364134063)	(5.6845609086220961, 3.2947648369038482)	(6.3583045783089549, -7.5042034641622912)	1.0	slash	0.898724
8	O	D	P	C	C	8	3	shapes	C	7	True	6	(-7.9308512694615327, -8.2705821392152217)	(-3.1796192539655621, -2.6179793672098679)	(6.5471902202675629, -8.524265110803988)	(0.74843438982887101, -0.85210597315551784)	1.0	z	0.860508
9	O	D	C	O	C	4	3	shapes	O	7	False	6	(7.3165427505789715, 7.2321849252118398)	(7.5212155524620954, -7.3758053128506749)	(-4.9973427997109248, 5.9540472991374873)	(-6.9530279794360386, -7.2602571812516778)	1.0	slash	0.898042
10	P	C	O	C	O	8	4	shapes	C	7	False	6	(-4.7049877718339168, 7.5664318075735189)	(6.0575163321633294, 4.9680912102419619)	(-2.6693258363356982, 2.1909964212573829)	(4.2718524584481266, -6.8969756298478559)	1.0	slash	0.915756
11	O	D	D	O	D	8	6	shapes	C	7	False	6	(4.2227516603454696, 4.5347920631107481)	(-0.78684406468968859, 5.4547204240575304)	(4.8498609216196993, -5.8182968241719237)	(-7.2305908319431582, -4.9572010586113846)	1.0	z	1.50528
12	O	D	C	O	P	4	1	shapes	D	7	False	6	(7.4553204943276974, -6.0584820480494201)	(-0.37448798130948369, -4.8339633827913246)	(2.0565855013275254, 0.8764994232797001)	(-4.4330017910862285, 5.5441969150469994)	1.0	z	0.670987
13	O	C	O	D	O	8	0	shapes	O	7	True	6	(4.3279604434894292, 8.2328300841403532)	(1.2284263662484349, 4.8889793925843268)	(2.2806470752678525, -3.3227213098183555)	(7.1208316827299001, -4.9356187059858883)	1.0	slash	0.836681
14	O	C	D	P	P	4	2	shapes	D	7	False	6	(2.0091760969235892, -7.7459009927262272)	(-5.5950842104843694, 2.9529779609076297)	(-2.185310801857784, -0.037856436936284155)	(2.0107038917948223, 0.96795203842385646)	1.0	slash	1.28029
15	O	D	D	P	D	8	1	shapes	D	7	True	6	(-2.0521387853623967, -0.55472590832381563)	(7.7451818599894189, 0.0075687945699183246)	(1.5609967946931178, -3.7693536942502845)	(-0.57623964269028427, 4.4441850613307885)	1.0	z	2.11588
16	P	C	O	C	P	4	3	shapes	C	7	False	6	(5.8190488244754803, -2.7123426718902239)	(-3.7846501985428125, 8.2855824024330609)	(0.35509788246833907, 4.552543396142072)	(-2.9334430940751712, -0.8012384690982044)	1.0	slash	0.887539
17	P	C	P	D	P	4	2	shapes	P	7	True	6	(-0.30749576308745752, 2.8745829720054701)	(8.5409073021329505, 0.90822741894926651)	(-5.0581428858045712, -3.0169078217978207)	(4.1408917997918735, -2.6242118691816305)	1.0	z	2.37513
18	O	C	O	O	P	8	6	shapes	D	7	False	6	(-2.7074668482301583, 1.886551090817548)	(-4.7874693648644557, 6.0067824863425408)	(-7.3656786161998262, -6.1496958895610536)	(-3.0220723598748345, -2.505678063158495)	1.0	slash	0.896695
19	O	C	C	O	C	4	2	shapes	C	7	True	6	(6.628736279107045, 6.3758123761373611)	(-6.8676631527526562, -5.8469832221797162)	(-3.2975603599123664, 2.9655474672330389)	(2.3642150987458574, -4.5517234160503124)	1.0	z	1.09631
20	P	D	O	D	O	8	7	shapes	D	7	False	6	(5.2269140407735772, 1.0010103018307479)	(3.4464183281996448, 7.5503818189982717)	(0.8595031565112361, -7.7417778728751347)	(-3.6489467756628233, 7.5108898466007048)	1.0	slash	0.984056
21	P	C	D	D	P	8	4	shapes	P	7	True	6	(3.2237165078914352, 2.4827272571623524)	(5.588676490931876, -2.3686181008114806)	(-7.598799851042112, 0.66483426541676138)	(8.5557300683999884, -7.0812468427780058)	1.0	slash	0.73566
22	P	D	D	D	C	4	1	shapes	D	7	False	6	(-8.400644368178952, -4.0934599496525648)	(2.7880536982479498, -7.7553937543459552)	(4.61659245416981, 3.0068888809357972)	(-3.1276523482386063, 6.8301605939061805)	1.0	slash	1.1034
23	O	C	C	C	C	8	1	shapes	C	7	True	6	(-8.5995026894378146, 7.8877238652253645)	(1.0519961470176558, -6.6677516921743596)	(-5.4434928966970784, 2.2460241115457524)	(4.5168600946940867, 5.1879990617535725)	1.0	z	0.998846
24	P	C	D	O	P	8	5	shapes	P	7	True	6	(-8.2086355655084677, 6.2137378378519799)	(7.3850302161362364, -5.461137363301261)	(1.4815210793057467, -5.6516800320292786)	(6.5691294627340664, 6.163340006096762)	1.0	z	0.708378
25	O	D	O	C	P	4	3	shapes	C	7	False	6	(-1.4305779106518992, 2.4864095247055964)	(2.5359182741848283, 8.375837947906895)	(-1.6552416970265327, -6.3975593927666523)	(4.2661047144326343, -8.4848328419653427)	1.0	slash	0.831726
26	P	D	D	O	C	4	1	shapes	D	7	False	6	(-5.6926406560928084, -1.8630942296105966)	(-6.0036179992514356, 2.7911249808298173)	(6.2714585667446876, 6.8562772921111375)	(4.5124964294864256, -8.3118113962884639)	1.0	z	1.06783
27	O	D	P	O	D	4	1	shapes	D	7	True	6	(2.1285791424799694, -6.5050065969983271)	(-8.5999609233841134, -5.2261442654500367)	(6.8507944521386896, 3.1731595429830932)	(-2.4067213887558587, 6.5756698767888739)	1.0	z	1.44752
28	P	C	C	P	C	4	2	shapes	C	7	True	6	(0.10720398886048699, 6.3491907421880178)	(-2.8334994459866998, -8.092948878986034)	(4.0095938944288498, -3.5234544353247443)	(-6.1458956392918376, 4.4669388720919159)	1.0	z	0.800856
29	P	C	O	D	O	8	7	shapes	O	7	True	6	(1.6085486600753658, 5.8273113323840811)	(-4.9126669228472721, -0.32678149282698854)	(7.273193030316687, -3.867986210664653)	(-2.6205711499535944, -7.2091109050399584)	1.0	z	0.828537
30	O	C	P	D	C	4	1	shapes	C	7	True	6	(-5.2180892601251951, 3.2516461055603827)	(0.32603643713954611, -7.3727013677704036)	(-5.0321352954540082, -2.3564592479711184)	(2.1922277733239532, 5.8590058162686631)	1.0	z	0.800337
31	P	C	D	C	D	4	0	shapes	P	7	False	6	(-1.3135667805484053, -3.6045853953329114)	(0.7050383744095523, 4.9173584708224034)	(6.7692344328466483, -7.2724398919669886)	(-8.1203435395819241, 7.747754224148121)	1.0	slash	0.697958
32	P	C	P	D	P	4	2	shapes	P	7	True	6	(8.7478676280942729, 7.5537940103412851)	(-0.62677158851076697, -3.0393933881866424)	(8.3954495138784928, -2.3842108051522235)	(-3.0603477230425264, 8.4226707673869186)	1.0	z	1.23904
1	Q	F	F	E	F	8	7	shapes	F	8	True	6	(4.3087227200806879, 1.7630134849414798)	(3.4482377115580238, -4.5129099167909095)	(-0.65474369292506296, -6.9801987809134136)	(8.5583161398801053, 7.4750476261731755)	1.0	z	0.993294
2	R	E	F	E	E	4	3	shapes	E	8	True	6	(6.3225000277127208, 6.5656087282320676)	(-1.1800081672589204, -7.4834510482471002)	(-0.68785430627406718, 3.2860859621470144)	(4.7591312880999901, -1.001288360135713)	1.0	z	0.805038
3	R	F	R	F	E	4	3	shapes	F	8	False	6	(7.7609169045113795, -2.5773051292364038)	(-7.4007185217652385, 3.3897513552800334)	(1.4985206223772511, 8.6648780984489733)	(-4.880471625818342, -5.9105394007717242)	1.0	z	0.758555
4	R	E	Q	R	E	4	1	shapes	E	8	True	6	(1.1996361812995566, 5.4178176007753525)	(-2.0077270364458606, 0.82823090074506389)	(7.6165079599953458, -2.4267197934302933)	(-1.3184115279071325, -4.9329536931261551)	1.0	z	0.680267
5	Q	F	F	E	R	4	3	shapes	E	8	False	6	(8.134601482781612, -3.3815871666961153)	(-0.79789543121553663, 2.8651347074877531)	(-3.4274753497487636, -4.2539130405999721)	(4.2213328477037617, 0.51768704073121263)	1.0	slash	0.914042
6	R	F	E	R	Q	8	1	shapes	F	8	False	6	(-0.66355068340363843, 2.9591248405960169)	(-3.7994858303523795, -6.581347566332707)	(-6.1588831510028434, -2.6250493407923008)	(8.2536605280759225, -6.2735441049465486)	1.0	slash	0.775644
7	Q	E	R	R	F	8	2	shapes	R	8	False	6	(2.1324772329638364, 3.4483947128048893)	(7.5187173799233911, -2.5692230255158268)	(-3.1770942676906717, -3.8436715976653844)	(1.2108086297789988, 8.097355206967535)	1.0	slash	0.769135
8	Q	F	E	Q	E	8	1	shapes	F	8	False	6	(1.7207111398552755, -2.0550722359091793)	(-8.3904428194397216, -2.7955763393940467)	(-3.9658929747701643, -4.1778672909068657)	(2.3446112330841693, 8.3633677269224513)	1.0	slash	0.694968
9	R	F	Q	Q	E	4	3	shapes	Q	8	False	6	(-2.30679440895433, 3.6144506404813033)	(5.2130904922352563, 7.7840861300327902)	(6.1400533136564484, -4.6276597049013466)	(-8.6548004184968708, -0.26654223774138686)	1.0	slash	1.07019
10	Q	F	Q	Q	Q	4	3	shapes	Q	8	True	6	(-5.7547403659016769, 4.5256726728896677)	(-6.0802807910201633, -5.5282026716780459)	(1.2814410240972158, 6.2700457556542322)	(8.7227815232309069, -4.0433676904315545)	1.0	z	0.802321
11	R	E	R	E	Q	8	7	shapes	Q	8	True	6	(1.9564555706532332, -5.2630451554466777)	(-8.2793720964368909, -7.6927133368121785)	(-1.9982210832706793, -7.9746327859663531)	(0.29289195434711246, 7.2605594365351962)	1.0	z	1.21392
12	R	E	Q	R	Q	4	0	shapes	R	8	False	6	(-2.1874167946649763, -8.2435134598010471)	(0.61618681762678307, 2.932028082377176)	(-8.6309816568677853, 8.3403321060311733)	(7.3119838147267231, -0.45827610742267311)	1.0	z	1.12561
13	Q	E	E	Q	F	8	7	shapes	F	8	True	6	(-8.2665136193533808, 6.0452446727035465)	(3.1391088481530716, 5.1835043905199303)	(8.1060806091659892, 1.1402141491023805)	(-3.6566742302355042, 4.1891833034281287)	1.0	z	0.801221
14	Q	F	R	E	R	8	2	shapes	R	8	True	6	(7.8793082291345833, -0.85342868598057997)	(-2.7581159554788401, -0.07273277135161571)	(2.9592453452887444, 4.4919752624553286)	(-3.5269698548616111, 5.9867845182528399)	1.0	slash	0.72687
15	R	E	E	Q	F	4	3	shapes	Q	8	False	6	(5.0976617903913848, -4.3116651589638977)	(-6.8145649215229849, 8.4016136628958122)	(0.8979721455767784, 5.0172858092772277)	(-1.2235316132154779, -7.7665767090540125)	1.0	slash	0.920777
16	Q	F	F	Q	R	8	6	shapes	R	8	True	6	(-2.1769551478085782, 7.2950139571679777)	(1.2938149320256613, 1.1952704831142746)	(6.928806383366922, -2.1596140503009957)	(5.1325298786894571, 7.2201772566411648)	1.0	slash	0.821982
17	Q	F	F	E	F	4	2	shapes	F	8	True	6	(8.403050068299752, 4.5396469148676761)	(5.7283098968820365, -0.53573538881200733)	(-8.1352878776705957, -2.3626926022715296)	(-4.7050069058395323, 6.2957445913109193)	1.0	slash	0.907716
18	Q	E	E	Q	E	8	2	shapes	E	8	True	6	(2.0736991255574466, 0.1206729657869392)	(2.1818494063657052, 7.2288123218889275)	(8.2533716480426804, -6.6492491276687637)	(-4.1696673720209469, -5.6864087555990892)	1.0	z	0.859424
19	Q	E	F	R	Q	4	1	shapes	E	8	False	6	(7.4060621326368015, 7.4290859441768369)	(7.7502026334337302, -0.46664715136657975)	(-5.5698556546984612, 4.4191694322411372)	(-8.1846819032884159, -2.8292280455898764)	1.0	slash	1.02499
20	R	E	E	E	F	8	1	shapes	E	8	False	6	(-6.2719879549657183, -2.070145386143996)	(3.2689544481323551, -7.7675848716148757)	(-0.096612316435797041, 3.9185928878633636)	(-0.67908743059362564, 7.9631319761638153)	1.0	slash	0.854527
21	R	F	F	R	E	8	4	shapes	F	8	False	6	(7.2272558091298542, -7.3938654722401616)	(-4.6780780450554493, 6.8413143973378912)	(4.8199026189369274, 0.89695231944484277)	(-8.3343141488624646, -5.2283500893467938)	1.0	z	1.16627
22	Q	E	R	E	Q	8	0	shapes	Q	8	True	6	(4.3233196060108803, -3.2555027476483573)	(-2.6391366066286448, 6.1936288538752304)	(7.5210896386432147, 4.2397897104089584)	(-5.7280112940928234, -8.3818357261972913)	1.0	z	0.961938
23	R	E	E	R	E	8	2	shapes	E	8	True	6	(-6.7257600313781882, 6.3504263528821578)	(-8.2561459249100579, 1.4779163922923573)	(8.548208394520934, 5.655777316816657)	(1.1284734783038335, -0.19991297585925949)	1.0	z	0.695428
24	R	E	F	E	Q	4	2	shapes	F	8	False	6	(-3.8621245291931317, 6.4563207948244905)	(-0.56656056827752721, -4.4736168940837659)	(5.8077831069876584, -6.404417083232973)	(8.0185098379048085, 4.2209166353633183)	1.0	slash	0.711156
25	R	E	F	R	R	4	0	shapes	R	8	True	6	(-5.701707545616145, -4.351007202777871)	(-6.4929649132543394, 4.4274682528119982)	(1.5594884957774688, -0.9220586621397997)	(1.2789815773494659, 7.948204986908074)	1.0	z	1.26684
26	Q	F	E	E	Q	8	1	shapes	F	8	False	6	(-5.5944753828856841, -5.5602150521498954)	(0.0024275495255476898, -8.5975614102895932)	(6.6790257283167929, -6.3116416754964639)	(4.4354932909826097, 1.1714441224909944)	1.0	slash	0.808682
27	Q	F	E	E	F	4	1	shapes	F	8	True	6	(-1.2954390283434538, 5.5927874519858314)	(8.0112081099662262, 4.9465864649866234)	(-7.7831235998262454, -7.8147683484222741)	(3.8669057482047773, -3.4126791316684004)	1.0	z	0.888101
28	Q	F	Q	E	E	8	6	shapes	Q	8	False	6	(-2.4121771352115911, 2.8745532538487417)	(5.7267288309227666, 0.30777271104207493)	(-1.2376009900938563, -3.3242823714675422)	(-7.9217910075163207, -2.7760564717372738)	1.0	slash	0.817819
29	R	F	F	R	E	4	2	shapes	F	8	False	6	(-2.1568398363781309, -2.1290435207177163)	(5.4691384223207518, 1.3704219402025721)	(8.181344632750676, -5.5181133973906844)	(-1.9202017512307563, 4.068949663462158)	1.0	z	2.36146
30	R	E	E	Q	Q	8	5	shapes	R	8	False	6	(4.7176636529012264, 2.0691389095955408)	(-1.9118293257676795, 5.6258880484618885)	(-5.8294276390124065, 6.8665925632161127)	(7.2045852090968552, 5.7732170563665228)	1.0	slash	1.11698
31	R	F	Q	Q	Q	4	2	shapes	Q	8	True	6	(5.612358833490017, -1.298685603081525)	(4.0555979813781562, 7.568945300875491)	(-1.0334328572735165, 0.50766049010164593)	(-5.9632023784228316, -3.1851066222282478)	1.0	z	0.776448
32	R	F	Q	R	Q	4	2	shapes	Q	8	True	6	(-6.0655200546930494, -7.2144137353498916)	(-3.7224770834206513, 6.2348365962850067)	(6.2647299147010731, -6.7985555868345617)	(0.65702882993600475, 8.5409736491627051)	1.0	z	0.776254
