TrialNumber	stim0	stim1	stim2	stim3	stim4	stim5	stim6	stim7	stim.probe	ttl.stims	corr.num	trial.type	stim.corr	block	match	Subject	stim.pos0	stim.pos1	stim.pos2	stim.pos3	ran	resp	RT
1	N	A	M	M					M	4	3	shapes	M	Practice	True	60	(-1.836866642749972, -6.0814864534435191)	(6.5893817211300227, -1.9884202515429585)	(-8.5491935814164215, 2.3391207754985928)	(1.8181170645807985, 4.0512562348154901)	1.0	z	1.28786
2	M	A	A	N					B	4	3	shapes	N	Practice	False	60	(-7.0745997563327911, 3.7961226979330256)	(5.7755767270066229, 7.9061437245279649)	(8.6221616706549078, -5.3211794548435085)	(-0.69630777877361538, -3.2312075784430787)	1.0	slash	1.72728
3	N	A	B	N	B	M	A	M	M	8	5	shapes	M	Practice	True	60	(-8.2518292188206424, 2.2227380531632388)	(2.1608994060672373, -1.1991276412720211)	(-3.5870288449737942, 2.2018150757272696)	(0.61124506152703262, -7.9116632797562838)	1.0	z	1.0429
4	N	B	M	N					N	4	2	shapes	M	Practice	False	60	(-6.9325129617632246, -2.0372789511896103)	(8.4262684094736358, 6.2119194246416107)	(-5.8734033028782804, 3.0083173462593589)	(3.8965583164426043, -7.3530925711765827)	1.0	slash	1.292
5	N	B	A	A	N	B	M	M	A	8	0	shapes	N	Practice	False	60	(-0.69853841759487167, -6.4239826995037221)	(-7.5030007518429951, -6.554071842267212)	(2.8093745164365593, 4.032820716712056)	(-2.1894278807047147, 2.7567363052291771)	1.0	slash	1.31816
6	M	B	A	N	B	A	M	N	N	8	0	shapes	M	Practice	False	60	(8.0729961343612366, -2.3030412100394759)	(-8.1871361882121771, 8.0871062778147262)	(4.0941619839362975, -3.0358805990031668)	(-2.1802627583066982, 1.8611622973179163)	1.0	z	1.29985
7	N	B	N	M	A	M	B	A	A	8	7	shapes	A	Practice	True	60	(-1.2765934211871741, -0.57815912789074098)	(3.470078297184779, 0.89814349245836489)	(5.8885051686524204, -5.6752236642102538)	(-2.4579616642554782, -6.3703960066227898)	1.0	z	1.49933
8	M	B	A	M					B	4	1	shapes	B	Practice	True	60	(-3.1781564860444993, -0.52362379162114259)	(4.9200808025738709, 8.7078005718020854)	(-4.606275154023237, 7.1243533793176308)	(6.8929844785947552, -3.378186198786624)	1.0	z	1.38495
1	M	A	A	B	N	B	N	M	M	8	5	shapes	B	0	False	60	(8.6259072269354817, 1.3427753708297772)	(-6.0272930891010521, 3.866510285203212)	(7.2764324766282762, -6.6604247655371704)	(2.6116049940895039, -8.018213461400773)	1.0	z	0.983282
2	M	A	M	A	N	N	B	B	M	8	0	shapes	M	0	True	60	(8.5057910525985285, -7.7339407502705715)	(0.51494367525457108, -2.5676321087113019)	(-2.1710132152138035, -7.0983938103157778)	(5.697751015758131, 7.0628810904448009)	1.0	z	1.90881
3	N	B	A	B					N	4	2	shapes	A	0	False	60	(8.1100481301398233, -0.32204117384257103)	(-3.7864215649284576, -5.4236822612294837)	(-4.7190943985286342, 6.3521740991592601)	(3.719402850969491, 5.549114011448415)	1.0	slash	0.664293
4	N	A	B	M					N	4	1	shapes	A	0	False	60	(6.7946436494474245, -0.70350609257961239)	(-5.7959207877544401, 7.542781455421963)	(-5.0307872659735429, -8.2481692391504815)	(3.9204989373126562, 8.1353312920692566)	1.0	slash	0.526135
5	N	B	M	N	A	A	B	M	B	8	5	shapes	A	0	False	60	(-0.82182276289353418, 0.17967044288099387)	(-4.9105500816971768, -0.83243687897846019)	(4.2136661504873576, 7.4347620211701901)	(-8.6471927385432945, -6.6732459629147698)	1.0	z	1.04175
6	M	A	M	A					A	4	3	shapes	A	0	True	60	(8.0567973202724161, -3.4459741596124323)	(-6.1074463292374475, 7.7404844558605426)	(6.394788469156353, 8.3730281985058106)	(-2.6171303894123223, -2.249390645666284)	1.0	z	0.483251
7	N	B	A	N	M	M	B	A	N	8	7	shapes	A	0	False	60	(-1.8771167751945894, -0.83946521883558933)	(4.4881453358558918, 3.6280798190600123)	(-7.0260107111631331, -5.0466023163169851)	(-1.7396137456071381, 3.475960835561601)	1.0	slash	1.31096
8	N	B	B	A	A	N	M	M	M	8	6	shapes	M	0	True	60	(6.155268934094881, -0.58526979716875438)	(-8.2276132072716806, 7.4223508444082498)	(0.33940883186668103, 0.17815129324529444)	(-3.4957242356870655, 8.6886886517392696)	1.0	slash	1.02056
9	N	B	A	B					N	4	0	shapes	N	0	True	60	(-5.5348919935872267, 8.3688618654484657)	(1.0703542852362062, -7.9233469079815793)	(5.9370709664732093, 4.2427114562661465)	(-3.3486512295259194, -0.97441712813868797)	1.0	slash	0.666263
10	N	A	M	A					M	4	3	shapes	A	0	False	60	(-0.05477257215403597, 3.7237471245124159)	(7.7903478168890175, 1.8583480118587872)	(6.0566673734263752, -6.2954961371916376)	(-2.8569648235027953, -1.78706957223595)	1.0	slash	0.599953
11	M	A	M	N					M	4	0	shapes	M	0	True	60	(-0.15448487822928847, -8.3316864408251323)	(8.3759447515384409, -8.1871345507722246)	(8.120226033226416, 3.28702278210387)	(-8.5054394931096375, 4.2846147947234137)	1.0	z	1.03368
12	N	B	B	M					N	4	0	shapes	N	0	True	60	(5.7024133808754964, 8.7022845320796094)	(-4.8309047215163581, -8.5018422030643421)	(-6.149409972359158, 6.3113060695985439)	(5.2995464886204733, -0.68844939073577827)	1.0	z	0.901051
13	N	B	A	B	M	N	A	M	A	8	2	shapes	A	0	True	60	(7.2045180392381756, 8.268314785122449)	(-7.1823323940307624, 6.0170506849493712)	(6.3777704414012657, -0.004852390291997466)	(2.9775861189312813, -3.5244770266065233)	1.0	z	0.869154
14	M	A	M	A	N	N	B	B	B	8	7	shapes	B	0	True	60	(-7.9504103189988031, -7.3887788172481823)	(-0.31681875966283357, 8.3290051351470886)	(-0.081775411536826326, -7.8214621456257278)	(1.5454279353702365, 0.34723754617133906)	1.0	slash	1.25248
15	N	A	M	B					N	4	0	shapes	N	0	True	60	(5.3354723506875406, -4.0850872377601419)	(6.692677675398631, 1.4926553210824132)	(-2.1200940731939433, 0.71076044319577392)	(-4.5781410542608505, -5.6754029627686435)	1.0	slash	0.716261
16	N	B	N	M					M	4	1	shapes	B	0	False	60	(-1.5827417097394862, 2.8928720446105256)	(-1.9733761368638625, -8.170538479293203)	(4.0882224733170442, 8.6804599176532591)	(8.5757460189140176, -4.9248489928661314)	1.0	slash	0.559713
17	N	B	B	N					B	4	1	shapes	B	0	True	60	(-8.4914476735150988, 2.4699050024752989)	(-5.3843212657866069, -0.76430298103211314)	(8.1198625425371986, 1.4705571127349657)	(1.063587136641102, -7.0964084902786446)	1.0	z	0.905401
18	N	A	A	M	B	B	M	N	N	8	2	shapes	A	0	False	60	(-2.2260717325221151, -3.7399903589462538)	(3.2191788814682152, -4.3025006405699777)	(2.8382538130903274, 6.1504093250392984)	(-6.7974185724600957, -3.0549833086812841)	1.0	slash	0.817124
19	N	A	B	A	M	B	N	M	A	8	4	shapes	M	0	False	60	(-5.3269154684015279, -0.98556979475690731)	(3.6853900632494394, 2.0334843415397685)	(-3.6128924414362569, 5.0051568298050757)	(4.2160396227792258, -7.2760247630870083)	1.0	slash	1.03489
20	N	B	A	N	A	M	B	M	M	8	1	shapes	B	0	False	60	(4.7219971982973412, -8.3579406409349186)	(-3.1093709570626675, 2.221338466003516)	(-7.2368802399540098, 1.3529589233064492)	(2.3369205909881554, 7.0473605542905808)	1.0	slash	0.776685
21	N	A	N	B	M	B	M	A	M	8	6	shapes	M	0	True	60	(4.2935743541051128, 5.867136088618258)	(3.8619853515195981, -6.6277244377166236)	(4.4988115856380055, 1.5155004337451246)	(7.7024955656238738, -4.5605662822106199)	1.0	z	0.817967
22	N	B	A	B					N	4	0	shapes	N	0	True	60	(-6.1624944920640159, 5.0061211506075605)	(-8.1229665215898557, -6.8448806778469304)	(4.9479568572610653, -5.84456611033605)	(5.6745269413447996, 4.4056492797297526)	1.0	slash	0.631978
23	M	A	B	A	N	B	M	N	N	8	6	shapes	M	0	False	60	(5.6937824206763104, -0.97558918237591818)	(-5.997669647462363, 3.5280413847077998)	(-2.8811193357743576, -0.51269292014571022)	(-7.0654978008755318, -6.9414556819862394)	1.0	z	1.07752
24	N	B	M	A					N	4	0	shapes	N	0	True	60	(-5.2388432279654928, -1.0997593462587858)	(-7.4472638742729309, 5.1562375145489643)	(0.84022332644781095, 0.35331691172344826)	(4.3003139719328622, -8.0176209621940924)	1.0	slash	0.639052
25	M	A	N	B					B	4	0	shapes	M	0	False	60	(2.1506080115363382, -3.1055007115251083)	(-3.7471162644547995, 0.35669199809270857)	(2.0442789616908303, 4.4561270200033185)	(-4.376246137409681, -8.1873220184334414)	1.0	z	0.528715
26	N	B	M	N					M	4	3	shapes	N	0	False	60	(2.4058216492759286, -3.5722142434671751)	(-6.0595457349774886, 4.7620870108241835)	(-4.2354686831574613, -4.8280559761965529)	(8.5673441559014947, 4.4485941593320177)	1.0	z	0.824485
27	M	B	N	M	A	B	A	N	M	8	3	shapes	M	0	True	60	(-2.9126600795927162, 7.724457818853729)	(0.59843661348837607, -8.2726141815455794)	(3.0535556480344699, -0.39833349236076465)	(-7.7865192890957582, 1.6744253267884943)	1.0	z	0.77607
28	M	B	B	M	A	N	N	A	N	8	5	shapes	N	0	True	60	(3.3020631968750855, 8.0786581823675192)	(1.8208540976187262, -7.1546677135694461)	(-5.3424917843943813, 3.8588069036833925)	(-5.0453436810501779, -8.418132357211233)	1.0	z	0.841606
29	M	A	N	M	A	B	N	B	A	8	2	shapes	N	0	False	60	(0.56341577872326631, 4.6711450079357455)	(5.6498508949138984, 0.15637394042088282)	(2.5455712132175012, -2.7998920370672007)	(4.0364418468855199, -7.0791649992077383)	1.0	slash	0.653275
30	M	B	A	M	B	N	N	A	A	8	7	shapes	A	0	True	60	(5.238666551344819, 2.113766771334106)	(-4.9909690186607314, -1.6787945798685291)	(-2.530507863792713, -7.9895337030775826)	(-8.0051013819073482, 7.9263066028972702)	1.0	z	0.64498
31	M	A	M	A					B	4	3	shapes	A	0	False	60	(-0.9447269691730682, 1.8544542654478668)	(6.3573958927537397, 5.7148581290121303)	(-6.3447386390039435, -5.2041108970648295)	(2.3650202752211662, -4.1662206530140491)	1.0	z	0.774058
32	N	A	N	A					B	4	3	shapes	A	0	False	60	(-7.3273938319623051, 0.61893693581673581)	(-8.3279394218203162, -6.4282452009838922)	(3.1420090056300261, -7.7078444788136995)	(5.8198168742727034, 4.4618895682335573)	1.0	z	0.638419
1	M	A	B	N					M	4	1	shapes	A	1	False	60	(-6.9211656152438401, -0.5835923671994987)	(-1.919458031277915, 0.43951395460422482)	(5.1469998876820711, -6.9613698436356151)	(7.9746874204117582, 0.70322417097685275)	1.0	slash	0.88382
2	M	B	B	A					B	4	0	shapes	M	1	False	60	(-7.6243728713972647, -6.9048448906508719)	(-3.7566526903099122, 5.4404725797858564)	(1.6917886835970322, -1.2233357393597153)	(5.7985302575464726, 7.9720578640679172)	1.0	slash	0.533684
3	N	A	N	B					N	4	2	shapes	N	1	True	60	(2.6540861335042507, -7.4345301734555278)	(-3.5739514830995907, 4.2228935466312389)	(-7.0459655058976933, -4.0236290864038624)	(3.5326997748163151, 0.17849774514973937)	1.0	z	1.27719
4	M	B	N	M					B	4	0	shapes	M	1	False	60	(-3.0362822872668529, 5.4186730161100751)	(4.9499886292306421, -5.7241949219719706)	(6.7376578662181021, 4.9621637184728691)	(-1.1396160595767357, -6.8291600875842979)	1.0	slash	0.785034
5	M	B	N	A	A	B	N	M	M	8	0	shapes	M	1	True	60	(-0.86208948057622603, 8.1871389823310885)	(4.3056463352272178, -6.8064390022644528)	(-5.0854546636441995, 7.1430374520019075)	(6.4918486726068192, 4.3479315302515111)	1.0	slash	1.01448
6	N	B	B	N	A	M	A	M	N	8	1	shapes	B	1	False	60	(-5.7236113106656212, -6.2059720022582496)	(1.9039737797214418, 2.7755984009773282)	(-7.3869290043559328, 7.5694935645228298)	(-3.2201513212050825, 3.9517336793738043)	1.0	z	1.2143
7	M	B	A	B					A	4	1	shapes	B	1	False	60	(-4.4486150289650297, 5.1876948683993369)	(-3.9576130017309445, -4.4815452994273688)	(3.1142247862113575, 7.2603700777121176)	(0.41013815929507658, -2.3563158088700433)	1.0	z	0.797734
8	M	B	A	A					N	4	3	shapes	A	1	False	60	(0.77108265048385149, 5.0371378455511806)	(-8.3529148306364807, 1.7718862318090629)	(1.5236342771224365, -8.6274840028162032)	(-4.7939575077790053, -0.69175451646917097)	1.0	slash	1.19955
9	M	B	A	M	N	N	B	A	B	8	3	shapes	M	1	False	60	(-5.2797115903751219, 6.2409783572463038)	(3.8884329134092273, 0.92629671162064753)	(-2.4676971544525852, -5.0350496356199876)	(-0.63939277080429413, 1.5740549459085003)	1.0	z	1.24512
10	N	B	N	B					B	4	3	shapes	B	1	True	60	(-0.20031150720161151, 4.6666811231234089)	(6.0294358122811325, -6.426658420036766)	(-2.9811930999425442, -7.3479253947493337)	(4.4752365067704609, 1.5818485346285236)	1.0	z	0.950839
11	N	A	B	N	M	A	M	B	A	8	1	shapes	A	1	True	60	(5.4990951439156373, -0.64297433576311214)	(-7.9889233395103316, 2.0071245816334518)	(-3.6466609936577221, 5.8383227994677114)	(1.0918667051849482, 8.2184084432839448)	1.0	z	0.900363
12	N	B	A	B	A	M	M	N	A	8	4	shapes	A	1	True	60	(0.60329173274834957, 2.7273196130879089)	(3.7519573966198365, -3.8689118512827703)	(-7.2592596544160113, 6.1753749030699367)	(-5.6060496609895951, 2.4906962523233407)	1.0	z	0.652177
13	M	B	A	A	B	M	N	N	M	8	1	shapes	B	1	False	60	(-8.105582113899473, -0.23813564088382755)	(7.3702457646113864, 6.2098541757850931)	(6.1604917526193841, -0.04538432270606485)	(-1.9194262847459482, 4.7712704154011796)	1.0	slash	1.26172
14	N	B	B	N					N	4	2	shapes	B	1	False	60	(5.7002090726825685, 8.364266172334311)	(-1.8335422543092896, -0.0074034026573048806)	(-6.1222911961553006, 7.330962215501966)	(0.99909857341556574, -6.3775192711027895)	1.0	slash	1.17919
15	N	B	M	M	B	N	A	A	N	8	0	shapes	N	1	True	60	(0.15030389710946856, 7.8329694340332878)	(-7.6380965598708634, 2.3703062343550734)	(2.7054227792298668, -3.1623286985001808)	(-1.917256082740959, -2.6156001566192675)	1.0	slash	0.635147
16	M	B	A	M					A	4	0	shapes	M	1	False	60	(8.6582764470587676, 4.7087304088762583)	(-4.1221230933810444, -4.6266453463946053)	(3.4352010989624109, -7.8132384190258133)	(-7.3305864258980566, 2.5667537322237326)	1.0	slash	1.30282
17	N	A	B	B	A	M	M	N	N	8	0	shapes	N	1	True	60	(-3.4142764880377685, 5.9165624797192162)	(8.7032092900787781, -7.8858787242426613)	(-0.83656508304668531, -2.7416406285867234)	(-8.0628932642645754, 1.3119010160683171)	1.0	z	1.02228
18	M	B	B	N	M	N	A	A	M	8	0	shapes	M	1	True	60	(-2.962085088181035, -5.8497318837442069)	(-0.31346951229161313, -2.6879284254071241)	(2.506100149206933, 7.9593826527380038)	(-8.4095885950193754, 0.79012958385223087)	1.0	z	1.12599
19	N	A	A	N					A	4	1	shapes	A	1	True	60	(8.582659361175125, 5.3602727903941574)	(-7.5221225449018831, 4.2082560089883891)	(-4.3431524185481267, -8.6148203711896141)	(7.5789390640851799, -0.33682532651469188)	1.0	z	0.711578
20	N	B	B	M	M	A	N	A	B	8	7	shapes	A	1	False	60	(8.2862354637462836, 4.3945445698297121)	(-0.71115560425141844, 7.4422639577955039)	(-2.888662854799235, 0.15954858430994712)	(3.0304195047700535, -3.7323930041492197)	1.0	z	0.757152
21	M	A	B	M					B	4	0	shapes	M	1	False	60	(-1.5348071540007329, -0.86054304766136269)	(7.5407609084732279, -0.18157032743395973)	(-6.5793160307417615, 6.8968794540930958)	(6.2011615798800825, 7.1567532681468222)	1.0	slash	1.22274
22	N	B	M	A	N	B	M	A	A	8	5	shapes	B	1	False	60	(6.2686600730956243, 7.4837782083615245)	(-0.9831722315975906, 7.2797261020070358)	(-6.3723927674187166, -8.4698733033803286)	(5.6758665292857629, -3.6473354084079794)	1.0	z	1.51051
23	N	A	M	M					A	4	1	shapes	A	1	True	60	(-2.5662398431439932, 5.5916267934125408)	(-8.2340720542347299, -8.5697886291615486)	(5.7349947369848291, 4.3230966275813039)	(2.1788905269444712, -6.0520900144613101)	1.0	z	1.28213
24	N	B	B	N	A	A	M	M	A	8	0	shapes	N	1	False	60	(5.7379594154170039, -5.9756196446581491)	(7.0346965776968204, 6.9950237683576209)	(-2.5199069311407163, -2.7036437141207452)	(-2.2566143990731051, 4.758640678226552)	1.0	slash	1.1736
25	N	B	N	M					M	4	3	shapes	M	1	True	60	(-7.0479035777713346, -4.3413272029629555)	(0.11586067398837407, -2.8587290029480128)	(-8.0599274366553946, 4.8840481588090032)	(5.7728504402344392, 2.0707618654233375)	1.0	slash	0.965155
26	M	A	M	B					A	4	1	shapes	A	1	True	60	(-7.1986581314932936, -4.8988856905414249)	(4.6275691502867016, -0.25992486266605752)	(4.6324781652845566, 6.7744429634898644)	(-1.8549806290843023, 2.3929533764187063)	1.0	z	1.11901
27	N	A	A	N	M	B	B	M	B	8	3	shapes	N	1	False	60	(7.3076640980308518, 1.608153045748983)	(-5.2361769558403619, 4.5226987374393097)	(2.7052800526220739, 7.8899155699072878)	(-5.0577754771152215, -5.9800818796751045)	1.0	z	1.1303
28	M	A	N	B	N	A	M	B	N	8	3	shapes	B	1	False	60	(2.7750458873900623, -2.8168576994750527)	(-3.5911968074764289, 1.1126430859856598)	(0.98524767072913733, 3.0572463075562748)	(-2.192364895191778, -7.1197054418910852)	1.0	slash	0.602288
29	N	A	M	N	M	B	A	B	B	8	7	shapes	B	1	True	60	(7.8755398782352515, 1.5664133489397472)	(-6.4873361590661336, 3.8242723133352889)	(6.0062016444893427, 6.2146518443200875)	(-0.84048644809595086, 0.39573099409233237)	1.0	slash	1.3017
30	M	B	N	A	M	N	A	B	A	8	6	shapes	A	1	True	60	(-8.6668544378105619, -1.9155759398900285)	(-1.8907039859089219, 4.2178554644561057)	(-7.7320235091389833, -6.626526746010887)	(6.9733236945375374, -4.1989502762338402)	1.0	slash	0.773456
31	M	A	A	M					A	4	2	shapes	A	1	True	60	(6.391070469507877, -7.8629042788984753)	(-3.2284202680383771, 1.9559521368430914)	(1.0469178765842777, 0.78546379052411552)	(-8.320280516503237, -7.9156309422037143)	1.0	z	1.12514
32	M	A	A	N					N	4	3	shapes	N	1	True	60	(-5.503183208874427, -6.3032619974629718)	(8.2409500397557593, 4.6787757564010288)	(6.9911460614629579, -8.11352397400365)	(-1.9695078037748939, 0.40675305138700324)	1.0	z	1.10272
1	N	B	N	B					B	4	1	shapes	B	2	True	60	(-2.6381211016822608, 4.2611805701624821)	(-5.2858428714469232, -7.2038988382461344)	(0.96865501453232028, -3.6098517265042904)	(5.7964071703062174, 2.4735357648610083)	1.0	z	0.542306
2	M	A	A	B					A	4	1	shapes	A	2	True	60	(8.4304809488991665, 6.4238109658496256)	(-4.7145427751319939, 8.1453117617851802)	(6.7261415788073133, -5.2578096903611016)	(-0.85870897941187696, -1.3315582955251672)	1.0	z	0.524114
3	M	A	N	M	N	B	B	A	N	8	2	shapes	N	2	True	60	(3.1328875480320537, -4.0900696165605721)	(-3.7908153600091561, 0.82596573267331763)	(-8.0726788468473138, 2.9463837140305547)	(2.9017089759829719, 8.099514179978204)	1.0	z	0.671745
4	M	B	N	M	B	N	A	A	B	8	1	shapes	B	2	True	60	(2.8618751471457333, 8.2354628221717157)	(-7.1168450928149767, -4.7916292037312944)	(-4.9065844016105267, 8.1963844926573408)	(4.4912593628462005, -2.5849501919156941)	1.0	slash	1.69137
5	N	A	A	M					N	4	1	shapes	A	2	False	60	(-7.0557050724843275, 2.4591143294917703)	(8.546560373195625, -4.4500842679929642)	(-4.8632206944056557, -2.0516780937146368)	(3.9227540707879598, 5.7749052591017129)	1.0	slash	0.570961
6	M	A	A	N	B	M	B	N	M	8	1	shapes	A	2	False	60	(2.3525075532383131, 5.9470460018120566)	(-1.5388611341391512, -2.2115502442105743)	(3.512110704996843, -3.0288073906417292)	(8.0573457581473633, 3.2236969567230069)	1.0	slash	0.628724
7	N	B	B	N	A	M	A	M	A	8	6	shapes	A	2	True	60	(7.4194842095803644, -0.48967366926683731)	(2.3726483274392756, -1.0327879086343259)	(3.4534124388196705, 4.6123266187395622)	(-3.0426934154814109, -5.3426071792479748)	1.0	z	0.964226
8	M	A	M	A					A	4	2	shapes	M	2	False	60	(0.0062377246509157658, -1.3449800964238037)	(2.3671834022258569, 2.6648013593712587)	(-1.5963707430529981, 3.3945606134565995)	(-0.14109369953613893, -7.9885653541894879)	1.0	slash	1.09386
9	N	B	M	A	B	A	N	M	B	8	4	shapes	B	2	True	60	(-0.60302795962014066, 7.3539705655826246)	(-0.67990936240446764, 1.6082602729464703)	(-4.2862645465194884, -6.3338608238821523)	(6.3778354482159507, -4.8152663148435924)	1.0	z	1.0455
10	N	A	M	N					N	4	3	shapes	N	2	True	60	(3.1737350773374207, 0.12413167173160566)	(-2.3335043522562735, -5.2432216695423453)	(-8.2011934510122995, 6.6117418098027336)	(4.101747386908265, -8.629437377165754)	1.0	z	1.0712
11	N	B	M	N					N	4	0	shapes	N	2	True	60	(0.94306409068290087, 3.1899596252718112)	(-3.4471526831875634, -4.7401841545877677)	(5.0277415222806319, -0.52709073970487275)	(-7.9108071557424378, 7.6835183169511367)	1.0	z	0.64274
12	N	B	N	B	M	M	A	A	B	8	0	shapes	N	2	False	60	(-4.472208652905711, -6.0602715737881248)	(-4.3871252804779166, 4.2962965482950359)	(2.9311493309012278, -4.7091039883633359)	(-8.6775276178919682, -6.1287491722479182)	1.0	slash	1.40457
13	M	B	B	A	N	M	N	A	A	8	6	shapes	N	2	False	60	(7.3466732466484501, 1.1676504956250948)	(2.604548471531908, 1.8476809109428043)	(-5.5801443984849994, 6.981297828343239)	(-0.74284624042680569, 8.4892460262760032)	1.0	slash	1.26409
14	M	B	N	A	N	B	M	A	A	8	1	shapes	B	2	False	60	(7.3019357033037053, -0.1791879815826789)	(-2.6238450166093825, -2.0813172143574974)	(-8.4201609867093321, -8.4468599154546897)	(0.0036507224071122835, 3.3252174395647636)	1.0	z	1.25568
15	M	A	B	M	N	N	A	B	B	8	7	shapes	B	2	True	60	(2.4729407411885287, -5.6351370388288675)	(-3.8375603128593436, 3.1137216885122907)	(-6.0558975378893738, 8.7369033862887413)	(8.7424710736385656, 6.3221858064449545)	1.0	slash	1.25747
16	N	A	M	B	N	A	B	M	M	8	7	shapes	M	2	True	60	(4.2812772173041136, 5.349086301161968)	(1.3407810354969261, -8.5505359693584335)	(-6.4534358376015426, 3.705327224957248)	(-6.813498477963936, -5.5316706943171177)	1.0	z	1.15495
17	M	B	A	M					N	4	0	shapes	M	2	False	60	(-1.2883778153457355, -6.1045122851665887)	(5.7157452141703988, -0.16284146137090794)	(0.48593962478567576, 4.0715698033191217)	(-3.2367676708594706, 8.2218650011450833)	1.0	z	0.638581
18	M	A	M	A	B	N	B	N	M	8	2	shapes	M	2	True	60	(-2.2903041464710894, -0.52812923426406044)	(-0.093405027081963965, 7.0810352878118898)	(-1.1130673819094916, -4.7679920392633246)	(-8.5699852724235903, 5.0967223224058724)	1.0	slash	1.31616
19	N	A	A	B	N	M	B	M	M	8	0	shapes	N	2	False	60	(4.5337462561210433, -7.4916897033709473)	(6.7976083554178945, 2.924811763653425)	(-6.035527752130232, -2.8408720131183438)	(-1.3189591575650272, 4.9200507861888738)	1.0	z	1.07389
20	N	B	M	B					M	4	2	shapes	M	2	True	60	(4.2404562821611691, -7.4555508323263062)	(-1.7074502392545465, 5.0990346975445799)	(5.5301037618301763, 6.3346593753762086)	(-0.78410478307886144, -4.0389426376775246)	1.0	z	0.741398
21	M	B	N	N					M	4	0	shapes	M	2	True	60	(0.32923552582111171, -4.2435204267781934)	(1.0612036754523793, 5.9247559431303358)	(-1.4493293200498574, 1.6593606383121227)	(-8.2351331522742175, -1.9397105827329444)	1.0	z	0.763211
22	M	A	M	B					N	4	1	shapes	A	2	False	60	(3.0092703343359375, 2.2840688991176634)	(-8.4927002404342282, -3.0975232669269852)	(-3.4414050016883557, 6.8610221319698432)	(0.17592342146518192, -2.9481862561167427)	1.0	slash	1.28489
23	N	A	N	M					M	4	0	shapes	N	2	False	60	(-1.6732397138727206, -2.4000817887668742)	(-7.7634161342942152, 5.0481168863522612)	(7.9912943122366968, -2.2365572601720149)	(3.1006161840422646, 8.1229634925372594)	1.0	slash	1.03851
24	M	B	M	B					M	4	0	shapes	M	2	True	60	(-7.4300499455833338, 3.7692991923985186)	(-3.0699188214601509, -7.4612913123450122)	(0.90984013674724551, -1.6990593867630661)	(8.1480805097711624, 3.2348985332119948)	1.0	z	0.92003
25	N	B	N	A					B	4	0	shapes	N	2	False	60	(-5.4979304725056615, 8.5231784552510739)	(6.8541764661073348, 5.8079945922373835)	(-5.535037623745696, -0.99597896216654114)	(2.2532964579844084, -2.9499306075633029)	1.0	slash	1.28991
26	M	B	N	A	N	A	M	B	M	8	0	shapes	M	2	True	60	(1.1747360571440506, -2.2037068585250612)	(-4.2334108052561952, 0.63928959715691924)	(-3.3351072448566859, -7.5551484874685944)	(8.5923796028546455, -0.74071339759185406)	1.0	slash	0.965196
27	M	A	N	M					A	4	0	shapes	M	2	False	60	(1.1325223888593587, 3.5117253604446947)	(-8.5351204606043023, 6.5377457484242587)	(1.0035743464648803, -7.1513063972318616)	(-6.6187252433361037, -1.0191625210235449)	1.0	z	1.00709
28	M	B	B	N	N	M	A	A	A	8	2	shapes	B	2	False	60	(-2.6518714995841579, -5.3604219552470429)	(-6.8696235654246482, -0.78951935530477257)	(4.2878471130138358, -1.8801595323397251)	(6.8190221455994937, -6.3260560163407735)	1.0	z	0.994659
29	N	B	M	A					M	4	1	shapes	B	2	False	60	(0.021233067608783074, 1.6853776385556802)	(-8.0473748801465117, -6.1884952561316702)	(0.45179025673987461, -3.7163992497386111)	(-8.2445202768525476, 8.2185973041067264)	1.0	z	1.83027
30	N	B	N	B	A	M	M	A	M	8	3	shapes	B	2	False	60	(3.2131191419818013, 7.2134685139453296)	(7.5083902206401483, -6.7240348524913545)	(1.4920682251642088, -1.1003647240595855)	(-3.9292358746067437, -5.5410797705976478)	1.0	slash	0.837835
31	M	B	B	A					M	4	0	shapes	M	2	True	60	(8.685262783448799, 3.9592762633299685)	(-2.5824606842785158, 1.4064604192082832)	(-6.9652043225724292, -1.0110543302994701)	(0.58060325686630776, -3.0695354638322332)	1.0	z	0.693592
32	M	B	N	A	M	N	B	A	A	8	0	shapes	M	2	False	60	(2.4861233897624526, -0.25860072314534399)	(-6.9199742696285957, -0.28252951734138954)	(-0.60006472289367352, 5.2669937380039009)	(6.3891822507046783, -2.5866074732928421)	1.0	slash	0.63115
1	M	B	B	M					M	4	3	shapes	M	3	True	60	(4.9519909288856212, 7.4418675213088754)	(1.0727975044975508, -1.2823306142164448)	(-7.0595825269515142, -5.3269934810501205)	(-5.574602000438416, 2.1737707671522948)	1.0	z	0.916976
2	N	B	M	A	B	M	N	A	M	8	0	shapes	N	3	False	60	(3.3627684230486654, -5.919804206851234)	(-2.3321609196559727, 3.9969134067939507)	(-2.2907900394177938, -7.1664696038013975)	(1.6592062465606361, 5.6080448104114691)	1.0	z	0.970468
3	M	B	M	B	A	A	N	N	A	8	4	shapes	A	3	True	60	(-1.0171307588202732, -4.2007081143223699)	(-0.20429595331784789, 2.7870712673935092)	(4.927918186929924, 5.4942761656633099)	(-7.4193516282008991, 5.3778748617071894)	1.0	slash	0.795966
4	N	A	A	M	M	B	N	B	M	8	3	shapes	M	3	True	60	(-3.1512893593550402, 6.0254165887885076)	(-6.2003547577284195, 2.4935748498539603)	(1.9119773572370455, 1.63219213322472)	(6.4261446222097423, 8.570187641304404)	1.0	slash	0.745749
5	N	A	N	A					A	4	1	shapes	A	3	True	60	(-2.2947979057314924, 2.2346694893036556)	(1.9093543159611812, -3.2361188138640058)	(2.4339041551268732, 0.91245216220173653)	(-6.3946228748798513, -2.135588209959618)	1.0	z	0.535481
6	N	B	B	A					N	4	0	shapes	N	3	True	60	(2.9759265716543926, 4.7695293235262568)	(-8.256442658501971, 2.9548449695741237)	(1.3142896388067378, -4.474801147224003)	(-7.3514815570462746, -8.3750369589472466)	1.0	z	0.735114
7	M	B	A	A	M	N	B	N	M	8	4	shapes	M	3	True	60	(-4.5536376699261831, 2.7413386132136708)	(-0.20561319056860938, 2.535349879755751)	(-3.5245663459818335, -1.3740979834588511)	(-8.5664247406008727, -3.9241992237610983)	1.0	z	0.68683
8	N	B	A	A	N	M	M	B	N	8	4	shapes	N	3	True	60	(3.1946077171939375, 2.3337214476145665)	(-4.9928755698074108, 5.8943392319746426)	(6.297296809499775, -4.588757817243561)	(-8.1133733284680094, 3.2006243142761512)	1.0	slash	1.89837
9	M	B	A	N	N	M	A	B	A	8	3	shapes	N	3	False	60	(3.1129997579542543, 7.7707488778858469)	(0.5717092253881777, 1.7448612199128863)	(-4.2948188658526831, -0.0047067933376823134)	(6.2492443281104606, -7.6349265252277734)	1.0	slash	0.681908
10	N	A	B	M					N	4	2	shapes	B	3	False	60	(-3.8982634036154398, -3.8142155766592047)	(8.3052948939739153, -6.5681483401068803)	(-4.7990701623517786, 3.2889857878786586)	(7.4260650706250715, 7.5171565808994103)	1.0	slash	0.963738
11	N	A	M	M	A	B	B	N	B	8	5	shapes	B	3	True	60	(-1.2560640584480423, -3.2294526190629895)	(-7.4803647428449755, -5.2782681446622881)	(5.0151490288937079, 1.995408965180296)	(5.8086090444100709, -8.1075748088369792)	1.0	slash	0.847362
12	M	A	B	B					M	4	3	shapes	B	3	False	60	(-1.9809570345534402, -6.0843457485813648)	(8.5471718640883942, -6.7362769282645978)	(-6.8502684515040135, 3.1588759632914112)	(7.1739060987024867, 8.0596634555652997)	1.0	slash	0.793033
13	N	A	N	A					B	4	1	shapes	A	3	False	60	(7.1069401264821455, -0.098214873656894852)	(-3.4456384446012533, 3.1473051985163387)	(-2.2452167191657946, -3.931006927564427)	(2.7801834709314583, 2.8060169532271146)	1.0	z	1.30871
14	M	A	N	M					N	4	2	shapes	N	3	True	60	(-1.176869824132484, -2.5839066334089349)	(1.4499132179975103, 6.1833350540527725)	(-5.621678364836681, 7.313803332535322)	(4.1177090999535118, -6.1547747973776179)	1.0	z	1.23216
15	M	B	M	B					B	4	3	shapes	B	3	True	60	(1.1321359772764819, 5.8254675619284999)	(-8.6749342932536759, -2.8280876238451258)	(-1.4500482654677285, 1.320321192272889)	(7.1180581172781352, -1.0625883959440126)	1.0	z	0.723814
16	N	A	B	M	A	N	M	B	M	8	6	shapes	M	3	True	60	(-5.2665288833307775, -2.3418528489127581)	(-8.206118899631603, 2.6560714361335922)	(3.2111955196230006, -2.0544300656623777)	(7.3542309794560623, 8.4996836847834274)	1.0	z	0.911593
17	M	A	B	B	M	A	N	N	B	8	1	shapes	A	3	False	60	(-3.0214571871592426, -3.773967941720433)	(2.0577289984724647, -6.2713705616687561)	(-8.1655620332823489, 2.9370804348457984)	(6.6701071514772181, 3.3208872462751913)	1.0	slash	0.716192
18	M	B	N	B					B	4	1	shapes	B	3	True	60	(-0.41458104843258425, 6.1964628760211991)	(8.1547861410008906, 7.3723008403697463)	(-4.9889291261941011, -6.0966894757625028)	(7.7901080052061964, -3.2017864792766169)	1.0	z	0.646675
19	N	A	B	M					N	4	0	shapes	N	3	True	60	(2.7818757204679265, 0.19728403730817412)	(-0.053832429987807018, 4.2360970879059838)	(-4.2126661674564856, -3.2918764330116783)	(8.5702140578391663, -6.611982654813648)	1.0	z	1.0004
20	N	B	N	A	A	B	M	M	N	8	5	shapes	B	3	False	60	(-7.5356759670575411, -1.8694436322471102)	(-7.2766488578159638, -8.391059375245403)	(-4.9535839816425344, 5.6427124572896119)	(3.4915723700912888, -2.7045875974069249)	1.0	slash	0.796104
21	N	A	A	M					A	4	0	shapes	N	3	False	60	(-1.4864486483227664, -0.33192127915976144)	(8.3604789944239783, -8.3668531798807813)	(5.0356915755364966, 8.2926014986938874)	(-8.3127959803064151, 3.5497363499642542)	1.0	slash	0.823659
22	M	B	B	A					M	4	1	shapes	B	3	False	60	(-8.1936361930804456, 8.5654834044606183)	(3.8270279109074181, 6.4310820155400101)	(3.438598980540263, -4.7437601744643283)	(-3.7309028754092548, -6.5735913942323503)	1.0	slash	0.54135
23	M	B	A	A					B	4	0	shapes	M	3	False	60	(8.650790977228322, -4.8207842032054442)	(-5.5965328187466348, -1.5996766022430018)	(4.8259057454173124, 2.4628989096077394)	(-1.221233311506035, 6.9845866424987495)	1.0	z	0.546811
24	N	A	B	B	M	A	N	M	B	8	4	shapes	M	3	False	60	(7.3805817018462676, -6.9442095763914882)	(1.2492630703543313, -4.9451660279886234)	(1.4523205554022809, 5.4603574352957907)	(-2.9873637547481131, -8.2558401766823959)	1.0	slash	0.658823
25	M	A	A	B	N	B	M	N	A	8	0	shapes	M	3	False	60	(7.2423081031789245, 7.2799824329574818)	(-3.2577489083698872, -3.8697664181222269)	(-7.9109166637509505, -7.7911021391873545)	(4.2681870590700068, 2.1979265605706573)	1.0	z	1.13839
26	N	B	B	A					A	4	1	shapes	B	3	False	60	(5.697458275090403, 5.9341499421860604)	(-1.1267121216062188, 3.8654127498684883)	(4.1928088568392514, -5.4330854473294643)	(-7.2724471871568959, -0.72238953733716293)	1.0	z	0.613984
27	M	A	N	N					M	4	0	shapes	M	3	True	60	(-8.4756111972938051, -7.0946328549194542)	(2.0187625393727107, -2.5927192323665524)	(5.6847075862146355, 4.1331743893594908)	(-6.4421832602092213, 4.4702866583497123)	1.0	z	1.11755
28	N	A	A	B	N	B	M	M	N	8	4	shapes	N	3	True	60	(0.13362554293007811, 5.9159711533343042)	(-3.5149171571983802, -2.3667760420269097)	(3.1094455721196272, -7.0943352006958449)	(7.5405801558157783, -7.9355932859258695)	1.0	slash	0.729331
29	M	B	M	B					M	4	1	shapes	B	3	False	60	(-1.3344368573702114, 4.6104760005432581)	(6.868796310211529, 5.8914538646620915)	(-0.63021824284543548, -0.73821450069103811)	(7.2475214406177226, -1.4972661676878882)	1.0	slash	0.672983
30	M	B	B	M	A	N	A	N	A	8	3	shapes	M	3	False	60	(3.0465527057133457, -7.2395039722038597)	(-7.9506567875101206, 0.32609001130339266)	(-6.1061543360455701, -5.8075743914258462)	(6.952659386691705, 1.7039546265508285)	1.0	slash	0.724693
31	M	A	A	M	N	N	B	B	B	8	6	shapes	B	3	True	60	(-4.2376897792303785, 0.41855564875375606)	(4.0921822964390344, 2.6126036199992395)	(4.3243581224763918, -7.8888390248167521)	(-7.7822302629214546, -4.7964175102466768)	1.0	slash	0.696146
32	N	B	M	A	A	B	M	N	A	8	2	shapes	M	3	False	60	(-5.2234121812649388, -2.5099002213596409)	(2.8839984377582173, -7.802330051656277)	(0.55702001363576947, 1.4554079026252733)	(7.7312100818128293, -5.936580698511321)	1.0	slash	0.84003
1	N	A	B	B					B	4	2	shapes	B	4	True	60	(-2.0330514711583323, -5.1490753763158184)	(2.4887620755223754, -6.7582314566131023)	(3.7146488228794521, 1.2588222097631778)	(-5.2105025791663184, 6.9586017339386164)	1.0	z	0.741567
2	N	B	M	B	A	A	M	N	B	8	5	shapes	A	4	False	60	(4.637723837316571, -7.4550178281524762)	(-7.5592300039394784, -2.7585083904822989)	(4.0168283183843361, 1.2948604484936261)	(-4.872426517075624, 5.665030783798473)	1.0	slash	0.781192
3	N	B	N	A	M	A	M	B	M	8	5	shapes	A	4	False	60	(7.9541700607289023, -3.0774564961653574)	(-0.89660815283887274, -3.6784179222941136)	(-7.354189122484037, 3.4147177075604418)	(3.5310657012816691, -1.9234133315808926)	1.0	slash	1.00304
4	N	B	N	M					M	4	1	shapes	B	4	False	60	(-7.6269733584572155, 1.2208140186026952)	(8.7462636452260476, 2.8501049472429241)	(3.6968173820555474, -8.2391290190298552)	(-2.7762745395791715, -1.5284916492997054)	1.0	slash	1.09248
5	N	A	B	B					A	4	3	shapes	B	4	False	60	(6.4221184911516502, 6.4631732023892674)	(-3.5441596097876324, 4.4615656156428187)	(2.7796875247399377, -6.849320065101951)	(-3.0516619899075197, -5.6111485476232374)	1.0	z	0.986196
6	N	A	A	N	M	B	M	B	A	8	7	shapes	B	4	False	60	(3.5148873962794926, 0.66710306726352009)	(-6.3499774452008086, 7.060885350536676)	(3.5067125211087689, 7.861282725114993)	(-6.1831169265893617, -7.4783018628491629)	1.0	z	1.83913
7	M	B	A	M					M	4	2	shapes	A	4	False	60	(-4.9736377331434731, 5.4603335397390058)	(-7.7847112464956147, -7.0051116397819619)	(2.5963679826349466, -5.7132713497942165)	(2.6671944268519816, 4.3647269916135762)	1.0	slash	1.33746
8	M	A	M	B					A	4	1	shapes	A	4	True	60	(4.776093511023829, -6.3376081854206934)	(-4.8584790121182255, 3.9453476333673212)	(-7.8745189787987862, -1.3788427736855686)	(6.651897969407516, 2.2726772186859368)	1.0	z	1.15885
9	M	A	B	B					B	4	2	shapes	B	4	True	60	(-2.7536030052690057, -2.20491798480362)	(-1.1697120055084858, 4.6808146276922695)	(7.7743861867651027, 7.2383784435281093)	(4.0474298212938979, -0.043747139745430985)	1.0	z	0.664587
10	M	B	B	N	N	A	A	M	B	8	7	shapes	M	4	False	60	(-6.2264442337576451, 2.0802754318515646)	(4.3826448925745414, -6.9203613241413455)	(-2.4797469469305833, -2.0467146626065675)	(2.5264760134825188, -2.8005402080778925)	1.0	z	0.934378
11	N	A	M	M					A	4	1	shapes	A	4	True	60	(0.24946037002437649, 5.3387406501268551)	(-4.5175019574971866, -3.9943769852780147)	(-2.582935324184362, 8.6020582526516804)	(7.4139433112576008, -8.1933630130438804)	1.0	z	0.95001
12	M	B	A	A					B	4	1	shapes	B	4	True	60	(8.4332706873601104, 0.8473690954959423)	(-3.7354877712825632, 6.7803491750181486)	(7.1123381843065374, -4.2728724692756375)	(-5.6897605853753479, -4.6535704732771341)	1.0	z	0.585751
13	N	B	N	M					N	4	0	shapes	N	4	True	60	(-5.8813784953552002, -6.508818946422501)	(-3.5119906319101313, 8.2884933544843946)	(2.9900214227909832, 8.4596212049291601)	(3.0115458736950416, -6.6626458719196027)	1.0	z	1.39932
14	N	B	A	N	M	M	B	A	M	8	3	shapes	N	4	False	60	(-1.5790419972382779, -1.9989279495970811)	(-7.5614002266726708, 3.5843469545362776)	(-2.7586746218033831, 6.8935514096371815)	(-6.9409245869788023, -3.5967051071890337)	1.0	slash	1.2029
15	M	B	A	A					B	4	1	shapes	B	4	True	60	(-7.3196485178905064, -1.4974809441190606)	(-3.3555935765945781, 8.0777482252926625)	(2.7809852746298347, -3.8701885632109265)	(1.4992260940073567, 0.36898319063375595)	1.0	z	1.10842
16	M	A	B	N	M	N	A	B	M	8	0	shapes	M	4	True	60	(-4.9359645630045996, 8.5786506159975815)	(6.4533562723091205, 7.7474892843676457)	(-5.6621785248812309, -1.6320680062289945)	(-8.2041892106652234, 4.9184459258392259)	1.0	z	0.705944
17	N	B	N	A					B	4	2	shapes	N	4	False	60	(-4.4661702987658778, 3.1774136654585394)	(7.8602833440540536, 0.87357779964377968)	(0.59531621869452422, -1.4293970889540581)	(-3.3178882214242131, -3.0157320037789459)	1.0	slash	1.30376
18	M	B	A	B	N	M	A	N	B	8	3	shapes	B	4	True	60	(6.3395489437680368, -1.109873240900658)	(8.5870486089813021, 8.7056479782700613)	(2.6683333853916462, -8.2128453144584732)	(2.0330648642353033, 0.20482485772308046)	1.0	slash	0.68744
19	N	B	M	M	N	A	A	B	B	8	1	shapes	B	4	True	60	(-3.073004382516654, -5.4444405399214002)	(-5.7315748020716111, -1.8570694868437148)	(2.6133266278935796, -6.9357633130437781)	(-5.5378723242693573, 5.1992033660126147)	1.0	z	1.83307
20	M	B	B	N	N	A	M	A	N	8	7	shapes	A	4	False	60	(-4.0052023146602931, 5.9104083791950366)	(-5.1350269640117521, -1.2644726685425889)	(-2.032119863306451, -6.0602019932655971)	(5.3583871728769399, 3.2005941335528796)	1.0	slash	1.17477
21	M	B	N	A	B	M	N	A	A	8	7	shapes	A	4	True	60	(8.6503607523236177, 1.4319441032981111)	(-0.92999656189246505, 1.9977600229025203)	(1.5946846299313204, 7.166184383285028)	(4.773874003417907, -1.193550601831352)	1.0	z	0.68018
22	N	B	N	M	M	A	B	A	B	8	6	shapes	B	4	True	60	(-4.1906259246619779, 1.6125496914212647)	(-0.11169409165780131, 7.8219592774140523)	(2.8570012074556619, -5.1598372960150396)	(5.4223653549079316, 1.8966438582405285)	1.0	z	0.659521
23	N	A	N	M	B	M	A	B	M	8	4	shapes	B	4	False	60	(3.2677883151364995, 4.1582037327719288)	(1.2915213698367864, -7.2555763459129148)	(6.3611057873424688, -2.455659702092726)	(-7.4516189436106366, 7.6402609543992455)	1.0	slash	1.16357
24	N	A	A	B	N	B	M	M	M	8	6	shapes	M	4	True	60	(-5.6576052593516373, -1.0161692211721629)	(-0.28118328442413798, -7.1822194532048993)	(1.4185975980311021, 1.1830772687479882)	(6.2241414135790976, -2.5708312228767332)	1.0	slash	0.845206
25	M	B	B	M					M	4	1	shapes	B	4	False	60	(0.11419064197085049, -4.3261620867945902)	(-2.158861796743575, -0.23476004111270576)	(0.28283032996350954, 3.5555969236580616)	(-5.332373402871097, 2.2016342892188678)	1.0	slash	0.766894
26	N	B	A	B					A	4	0	shapes	N	4	False	60	(-0.4164194654341884, 4.299728794280119)	(-6.4030317588514452, -8.0824686370873415)	(1.5588130980881481, -5.1020956164571416)	(8.5431845360705303, 6.4932920925757394)	1.0	slash	0.67247
27	N	A	A	N	M	B	B	M	N	8	0	shapes	N	4	True	60	(5.2218235106178614, -8.5674810158184211)	(7.0271245570823631, 5.4592997539686685)	(-5.9285972985769977, -0.99945013714702746)	(2.3219387620030218, 7.4467557922446375)	1.0	slash	0.724199
28	N	B	A	B	M	M	N	A	M	8	5	shapes	M	4	True	60	(8.5704520475161452, 8.4878704496790611)	(-5.2206522667506032, 4.0351119558972766)	(5.4759734994062264, -3.3650674022663658)	(-3.4527126544166666, 8.2333005347713026)	1.0	z	0.751816
29	N	A	B	A					M	4	0	shapes	N	4	False	60	(3.1688939496105135, 3.2692909879643324)	(6.7845357191707532, -7.4280071718429195)	(-6.7221405877192204, -6.4365134662599157)	(-7.9190419911821888, 0.38161794294159712)	1.0	z	0.929404
30	N	B	M	A					B	4	0	shapes	N	4	False	60	(8.5275426926528226, -8.1496500259840783)	(-2.1997514485017673, 0.44099513359473796)	(1.6453836493218237, 4.5477505198308101)	(-3.6965956228570125, -6.8888977447062789)	1.0	slash	1.31126
31	M	A	M	A	N	N	B	B	N	8	7	shapes	B	4	False	60	(-3.1711948623558524, -5.1805648785243701)	(7.9124734758501987, 3.6454858645689914)	(1.9555403533060449, -5.5325963440717194)	(3.9719564312321207, 4.7350565943716791)	1.0	slash	0.74874
32	M	A	M	N					M	4	0	shapes	M	4	True	60	(-5.8416652228998496, 5.9029623978041226)	(1.7408522190709679, -7.5708380416528929)	(-6.2497947272001433, -8.1245925453585972)	(7.272685103392913, 1.7089855454221734)	1.0	z	1.12874
1	N	A	M	A	B	M	B	N	B	8	3	shapes	A	5	False	60	(4.4316116644203571, -4.0499349877167843)	(-8.0995071809046841, 1.0380098829058486)	(-0.4322332567201741, -2.8111312697442861)	(0.54869375390629394, 4.0992308696176352)	1.0	slash	4.06996
2	N	B	N	A					M	4	3	shapes	A	5	False	60	(-1.7158244457367493, -2.8004183324754326)	(7.1896722960497961, -8.0798904373121161)	(-3.6696563558365423, 7.7228584906453257)	(0.1154241581403852, 2.7484021296033667)	1.0	slash	0.673075
3	N	A	B	N					B	4	2	shapes	B	5	True	60	(7.5488429856925379, 5.629850487643937)	(5.0214214617599584, -5.8398165472670698)	(-2.4074181190769774, -6.4428128322125691)	(-1.8010963032071157, 0.46112498004392322)	1.0	z	0.996846
4	M	B	B	A					M	4	1	shapes	B	5	False	60	(6.7834669976870572, 8.0432990459097766)	(5.7659611799460659, -1.2202654126283914)	(-6.7179135609891745, 4.4912627572050798)	(-1.5599792220102735, -6.3791038567190927)	1.0	slash	1.11076
5	M	B	M	N					N	4	2	shapes	M	5	False	60	(-0.31714306409797821, 2.1219210058667173)	(-3.7400803654240917, -2.2129619745591729)	(7.3210990275229051, -5.9802106839930467)	(8.6566789510315303, 5.6929318224633771)	1.0	z	1.29845
6	N	B	M	M	N	A	A	B	A	8	1	shapes	B	5	False	60	(2.1941524214482477, 5.7537178871248944)	(-0.42943158207033783, -2.4704913433724531)	(-2.1241211248429614, 5.6671121940684692)	(7.9382224667210473, 8.6924500410774286)	1.0	z	1.43606
7	N	B	A	M	A	B	M	N	M	8	7	shapes	N	5	False	60	(1.5340453216300691, 4.9762140379257005)	(5.5494275856047199, -4.8560225841669062)	(-2.3276273666201996, -2.9746120633882347)	(5.2687869142814492, 1.9946654843963447)	1.0	slash	0.905554
8	M	B	M	A	B	N	A	N	N	8	0	shapes	M	5	False	60	(-6.3576456611705545, -4.7212164445886735)	(-6.1374572297199599, 4.95236088260814)	(7.245897079288417, 5.009592913762166)	(3.4603356964015202, -3.0425616945440392)	1.0	slash	0.766738
9	N	B	M	B	A	A	M	N	A	8	5	shapes	A	5	True	60	(-5.8956968714606557, 5.9244928474843555)	(6.9705079980223132, 3.5661024266603363)	(7.1861017491649335, -8.3805131596970472)	(-6.6042654038162123, -4.3710790891413831)	1.0	z	1.32299
10	N	A	N	A	M	B	B	M	A	8	1	shapes	A	5	True	60	(8.2295933627854936, -3.501287910297104)	(-8.2208879383932736, 6.6678687616499133)	(7.1345818946990391, 1.1704260252082701)	(1.9165749498904407, 6.3253160528624708)	1.0	z	0.854469
11	N	B	M	A	B	M	A	N	B	8	1	shapes	B	5	True	60	(8.589172191485531, -6.5379473568372823)	(8.0040552411709385, 8.289140584254163)	(0.36718367442046507, 2.3170824860986201)	(-2.6499219201478184, -3.8934997834217819)	1.0	z	0.982045
12	M	A	M	A					N	4	3	shapes	A	5	False	60	(-3.6131044687310423, -2.6739320987291491)	(2.728066506883124, -3.3573769187756124)	(-7.3267613051114608, 0.5671095325123634)	(5.7972553591549207, 1.0416258396245581)	1.0	slash	1.28367
13	M	B	A	A	N	N	M	B	M	8	6	shapes	M	5	True	60	(5.8401347259198388, 0.54363460052674917)	(8.3791670797364084, 7.1358429459957424)	(3.0879504973144805, -4.9657059045985017)	(-5.1829707244769132, -0.68455018132249101)	1.0	slash	1.04541
14	M	A	B	B					B	4	3	shapes	B	5	True	60	(8.475703237872402, 3.6237175370511281)	(-0.63400789206286667, -3.6648823954117509)	(-0.45580485569773899, 4.5223145000693705)	(3.8776300868883276, -2.236037260450229)	1.0	z	0.855214
15	M	B	M	B	A	N	A	N	M	8	7	shapes	N	5	False	60	(-8.1998032388057123, -7.0103392177882702)	(-5.5785500059984807, 3.490890645322299)	(5.7239013354413046, 2.1021418025642546)	(-3.383929693125121, -0.07157482114596192)	1.0	z	1.63273
16	M	A	B	N	B	M	N	A	A	8	7	shapes	A	5	True	60	(3.2709125245704804, 5.9532832130011784)	(0.289189493778224, -6.8426516273887774)	(6.5802088531436436, -1.0290137469950036)	(-6.9211638232668395, -6.3644255729347421)	1.0	z	0.630345
17	N	A	M	M					M	4	3	shapes	M	5	True	60	(8.347364569835257, 1.1975715601596306)	(-1.389044055670257, 0.22586259119727359)	(4.7868897008238172, -3.7851620188247521)	(-0.38883745910612788, -6.7252568614351276)	1.0	z	0.905896
18	N	B	N	A					B	4	1	shapes	B	5	True	60	(-8.5139815238611671, -1.7882837356915982)	(3.4917964045881611, -3.8685321181274075)	(2.0314607675825869, 8.6338271172223351)	(-0.87056616075555038, 5.7817927860780216)	1.0	z	0.743657
19	N	B	M	M	A	N	A	B	M	8	4	shapes	A	5	False	60	(4.7256893575196344, -3.8542800185676178)	(8.293278988361763, -7.7018509605922958)	(-2.8429215183422274, 2.9973614009343379)	(6.6000522647823523, 6.4856686746452503)	1.0	slash	0.959223
20	N	A	M	A					B	4	2	shapes	M	5	False	60	(0.3168773226248689, 5.8411326647008881)	(-5.5741975728986386, -3.8100119059533659)	(2.4447777462440428, -6.7127422493990672)	(-4.3980879952144631, 4.8587702785710913)	1.0	slash	1.16095
21	M	A	N	N					A	4	1	shapes	A	5	True	60	(1.6715846040609286, -0.69037626327426338)	(-5.9928525913557804, 5.8952700690568562)	(-6.5370069541133597, -5.9824528157217163)	(6.5762470190478801, 1.1910478941115326)	1.0	z	0.858579
22	M	A	B	B					M	4	0	shapes	M	5	True	60	(7.9593158814617482, 5.8491047783188375)	(4.1687366681336666, -2.3168879516195524)	(-8.3522952619075532, 5.9035482189530217)	(-5.1085469655393165, -5.5694655413792651)	1.0	z	0.920239
23	M	B	N	N	A	A	B	M	A	8	3	shapes	N	5	False	60	(-3.5542665461483676, -8.1011379082334116)	(6.4365036883762787, -1.8675710140680186)	(-0.72187971867899847, -1.0137366849844849)	(7.9703283504120392, -7.2353858744895572)	1.0	slash	0.593716
24	N	A	N	B					A	4	2	shapes	N	5	False	60	(-6.5834725562722003, 3.0048059751359268)	(-8.0258146319692152, -2.1642825465217133)	(7.1756048676112769, 7.1243405202867258)	(5.4226633115346132, -1.8988207965562705)	1.0	slash	0.597517
25	N	A	A	N					N	4	0	shapes	N	5	True	60	(4.0337479336137232, 2.9700147989319667)	(-7.9894298609131544, -8.5252391690934211)	(2.3995900825409588, -1.2866826813336658)	(-5.3840581161344181, 5.1418261967217092)	1.0	slash	1.21316
26	N	A	A	N					M	4	0	shapes	N	5	False	60	(6.4866024054420723, -0.62962847139867684)	(-0.20893526322184286, -0.77142262975475262)	(-2.6284346881235541, 8.5662258416023853)	(8.679201876931554, 5.6092811358769552)	1.0	z	0.780726
27	N	B	A	A	N	M	B	M	M	8	7	shapes	M	5	True	60	(-0.34245112070467698, -3.27327507907835)	(-3.8854107816934222, 6.3619077572908882)	(7.6232666286622788, -2.3344120105277719)	(1.4312688271369982, 2.9983151186830703)	1.0	z	0.804445
28	M	B	M	B	N	N	A	A	M	8	2	shapes	M	5	True	60	(6.7582202900345614, 3.8387342882825095)	(7.4270069674693566, -3.2506685227415915)	(-2.8276802677497415, -7.0901154853524115)	(1.2215260196483495, -5.4801668136941508)	1.0	z	0.744331
29	N	B	B	N					M	4	3	shapes	N	5	False	60	(5.2018633337950035, -4.9543293260517096)	(0.56046017689991601, 0.083294538750342539)	(-5.734532031534112, -0.30570792385500312)	(-0.9946280441750659, 6.7027498398262999)	1.0	slash	0.709302
30	N	B	A	A	M	N	M	B	B	8	4	shapes	M	5	False	60	(-6.0902446644403074, 4.8197963583825789)	(-2.0894765378218798, -5.2182549087345151)	(8.577525945237138, -5.4529705908050019)	(1.1140203527419423, 7.2464046888273295)	1.0	slash	0.74951
31	N	B	A	N					B	4	1	shapes	B	5	True	60	(1.032074139904104, -0.08402752297353544)	(-4.916261240271151, -5.1501642494549902)	(-5.0901065273775306, 6.7601586346048688)	(7.4932130232574963, 1.5404488756586865)	1.0	z	0.592945
32	M	A	N	M	B	A	N	B	B	8	4	shapes	B	5	True	60	(-0.087259012990577034, 0.14408187469164524)	(8.3175946670723526, -8.4179298810762848)	(-0.3574823225160717, 7.982904193439623)	(-6.5229355793234634, -7.0662233033696236)	1.0	z	0.52643
1	N	A	N	M					N	4	0	shapes	N	6	True	60	(4.6176482995801962, -1.8492627958355312)	(-0.94131102860312765, 2.9442569002243726)	(-5.5139282871493123, -3.0342550905732368)	(7.9713586818076791, 7.5195365779268464)	1.0	z	0.618385
2	N	B	M	M	N	A	A	B	M	8	1	shapes	B	6	False	60	(-5.4521042122303811, -6.2715962751037573)	(1.243522595894138, 2.6832399517798535)	(-5.5810071318771044, 0.72573691750832836)	(3.1904765074438579, -5.2907781749108675)	1.0	slash	0.594175
3	M	A	M	B					N	4	3	shapes	B	6	False	60	(-6.2943688048343205, 2.3990665449657556)	(8.6336229369363515, -1.3772905250600189)	(-3.8629485696905128, -6.2795981565597216)	(4.0140215205261036, 0.068060643102496599)	1.0	slash	0.573797
4	N	A	A	N					B	4	3	shapes	N	6	False	60	(1.9055477150081206, -5.1601862694477418)	(1.9436966796995971, 5.767717864860483)	(-7.8589653332260205, 6.6056703095024893)	(-0.85045554041566707, -1.3351497000043704)	1.0	slash	0.509495
5	M	B	M	A	B	N	N	A	N	8	6	shapes	N	6	True	60	(-7.094210565866554, -8.1146645967676694)	(-6.8288505774415826, -2.6544657148784339)	(-3.8263136267372495, 2.1209165012735856)	(7.1729752127895097, -7.5140112276096902)	1.0	slash	0.781159
6	M	B	M	A	B	A	N	N	M	8	2	shapes	M	6	True	60	(-4.0169079005589889, 3.7985951171470429)	(7.1236377653064729, 8.350626722039113)	(0.85269554082697141, -8.6276443804157701)	(0.87532719510230272, 7.2294026338654032)	1.0	z	0.748843
7	N	B	M	A					A	4	2	shapes	M	6	False	60	(-7.8957531977864832, -6.9155800925663051)	(-6.8613724767017112, 7.9280727585191109)	(5.1750523027336914, 2.4111182264047155)	(7.1957020823034572, -4.8289690071478617)	1.0	slash	0.43244
8	M	B	B	A	N	N	M	A	B	8	2	shapes	B	6	True	60	(5.9860545910513885, 7.8168216852755528)	(3.9692013898562273, -1.1152253745737557)	(-0.039233771768010683, 3.035187867573125)	(-6.698440044248132, -2.2244869356044683)	1.0	z	0.664024
9	N	B	M	A	A	M	N	B	A	8	3	shapes	A	6	True	60	(-7.8585621782497803, -1.5523829425238418)	(-1.3080155406673448, 6.7546930090691149)	(2.0786138472068192, 3.6834686107027572)	(-3.5600478839641134, 3.2340845883768932)	1.0	z	1.06381
10	N	B	A	N	B	A	M	M	M	8	7	shapes	M	6	True	60	(5.6470679226794029, 1.9464177836254049)	(-4.8970135214398942, -5.2000080038339522)	(-0.70960620057855195, -5.0157281946424543)	(-6.3197010238322804, 5.3831123198622244)	1.0	z	0.685332
11	N	A	B	A					A	4	1	shapes	A	6	True	60	(5.833696622407988, -2.1143202158009311)	(-8.5585054923568578, -2.6434354647228799)	(-6.7852900685909923, 6.3377914323500733)	(4.9864980895716098, 6.4704748951461823)	1.0	z	0.783108
12	N	A	M	N	B	B	A	M	B	8	0	shapes	N	6	False	60	(8.2001149920959087, 2.396161011561853)	(-8.5929605546491121, -6.4764014512173862)	(6.4518353678808911, -3.3243016457890588)	(-2.2076645414303817, 8.6944317167656422)	1.0	slash	0.780585
13	M	B	A	B					M	4	0	shapes	M	6	True	60	(4.2756954851373195, 6.6761930767893531)	(4.8222132221312872, -7.1802942009727859)	(-4.5047224372785299, -6.8445427446935856)	(-7.8131015485337159, 6.5402577964962312)	1.0	z	0.770397
14	M	A	M	B					A	4	3	shapes	B	6	False	60	(6.627224982806931, 1.7621883397500024)	(6.5973453612488679, -8.040920371532879)	(-0.36190451618672093, 3.0749932263965061)	(-3.9607704906110026, -1.9674834614278742)	1.0	z	0.689986
15	N	A	N	A					B	4	3	shapes	A	6	False	60	(7.0996409445845163, -7.6817716830433778)	(-1.266182893049641, 3.6178484954241075)	(3.1373267798236917, 4.9994340556473755)	(-0.68240215963935213, -4.0333833234008987)	1.0	slash	0.967604
16	M	B	B	N					N	4	3	shapes	N	6	True	60	(3.3915390314106588, 3.8957017319340608)	(-6.3169253710506386, 6.0400250764530448)	(0.071662798465723654, -6.6202254494488049)	(-4.4623698076313882, -6.9183180993876361)	1.0	z	1.14936
17	M	B	B	A	M	A	N	N	M	8	4	shapes	M	6	True	60	(6.8257797392108159, 5.8359648180445038)	(-5.9292899647737798, -7.647501299822169)	(0.02147591632414958, 4.644809028165632)	(-2.105556011975942, -5.0656235113928885)	1.0	slash	1.49897
18	M	A	B	A	B	N	N	M	B	8	5	shapes	N	6	False	60	(2.1587517759310391, 8.2003211273133196)	(-6.5387432139419364, -0.54424842314725375)	(-3.4603964224451058, -7.2616215639972328)	(-5.9303116825867246, 5.6508034475131694)	1.0	z	0.946409
19	M	B	M	A	A	N	N	B	A	8	2	shapes	M	6	False	60	(0.50690742810383149, 5.0222945817952773)	(3.2804800316483167, -3.72929552575863)	(-5.203129339281988, 3.4680603198387718)	(5.9067718675683825, 1.0242974774300464)	1.0	z	0.634227
20	N	B	B	M	M	A	N	A	A	8	4	shapes	M	6	False	60	(0.3435468193901805, 3.48982498936493)	(-8.4932098104749478, 6.7635692218129879)	(-3.6283531965926468, 7.688877183826591)	(7.8188388423433537, -2.0161271442975455)	1.0	z	0.623847
21	N	A	M	B	M	B	N	A	B	8	5	shapes	B	6	True	60	(-3.6393754195798884, -8.6133830418205495)	(-5.7701228366392971, -4.4115500470510751)	(-6.2677056886780376, 5.2587782573640514)	(5.7494974444581288, 3.6301853950798044)	1.0	slash	1.30147
22	N	B	B	M	M	A	N	A	B	8	4	shapes	M	6	False	60	(1.3477203837520335, 5.4589691697121339)	(5.5468667062088226, 4.6298098879517227)	(-3.2411242083822378, -4.4677781292059526)	(4.5399376609388007, -7.3849976200029355)	1.0	z	1.53322
23	N	B	N	B					A	4	2	shapes	N	6	False	60	(-6.1615006442310349, -4.3047427566191256)	(0.1389858711813563, -1.078305357397646)	(6.5371130757185814, 1.0188401326901673)	(-8.1338242829816263, 6.9834148387916457)	1.0	z	0.770787
24	N	A	B	N					A	4	1	shapes	A	6	True	60	(-7.0559910746745462, 2.1072499944710934)	(2.0244001381740162, 0.75468657407506967)	(5.2593202178489538, -6.0190911347037881)	(-5.3716404416359529, -3.4363972273778183)	1.0	z	0.610495
25	N	B	A	N					B	4	1	shapes	B	6	True	60	(7.450177907012133, 2.9576858505840971)	(-3.1300030771506311, 7.5372645165717174)	(-5.7328742048661532, -3.2201208658262921)	(5.2535342559474785, -6.35316280924423)	1.0	z	0.994097
26	N	A	M	B					N	4	1	shapes	A	6	False	60	(-8.3907852803159777, -2.2781051160884154)	(-8.5078554338443251, 1.9596035840670556)	(1.7875238235407132, 1.0487370594681771)	(2.6925687221187911, -4.4867823999671854)	1.0	slash	1.20567
27	M	A	B	B					B	4	3	shapes	B	6	True	60	(0.058666010662911106, -8.0890390961580731)	(6.5803090777283622, 1.3234614699960723)	(-6.4573849282171949, 4.065133098137018)	(-4.6993050749259311, -6.6045090430893492)	1.0	z	1.23134
28	N	A	B	A	M	B	N	M	N	8	6	shapes	N	6	True	60	(2.2596486409903811, 7.6298543734507724)	(-5.5235586070808047, -0.29251719074302329)	(-5.491507107493236, -6.8108492736462471)	(8.6230275055086771, 4.3188168804031353)	1.0	slash	1.09286
29	N	A	A	N					B	4	1	shapes	A	6	False	60	(-1.8272213125549657, -8.6105356511725493)	(-5.153108992872605, 0.17730227891130212)	(5.7385229543726748, -5.4811524500923454)	(0.75408755794890503, 7.8266104389003459)	1.0	z	1.10668
30	M	A	M	A	N	B	N	B	N	8	0	shapes	M	6	False	60	(-2.9870516152846838, -3.6192036169095525)	(4.2459832799322417, -3.3205619586397956)	(7.9610085646695481, 7.4286130909309271)	(-1.0374451839822996e-05, -7.0331807346294024)	1.0	z	0.88003
31	N	A	N	A	B	M	B	M	M	8	1	shapes	A	6	False	60	(1.6042762075817087, -5.322485943489168)	(1.2925345517869644, 7.0667866216988937)	(-3.2827144164168232, -6.4865582367532628)	(-3.4396198104174855, 3.861840982628717)	1.0	slash	1.36584
32	M	A	B	A					A	4	1	shapes	A	6	True	60	(-3.9933403891940191, -6.5304957377711208)	(-8.7391524361894213, 8.0981313035211286)	(5.1013408949783763, 5.0786280586782091)	(8.5160626580177201, -2.1789709924029523)	1.0	z	0.959324
1	M	B	B	M					A	4	2	shapes	B	7	False	60	(-2.1545122965826637, -1.7510828806530663)	(-7.6744857999118654, 0.15030151057283625)	(7.2670816899474495, -7.5586443000868178)	(3.88636856870753, 3.1806225646036559)	1.0	z	0.509065
2	N	A	B	M					N	4	2	shapes	B	7	False	60	(3.2919871321413261, 0.63444530891119477)	(-4.3893742169335477, 1.7738096083625372)	(1.7710429034655473, -5.9193137138662202)	(-1.4448430424010219, -2.7128427037141076)	1.0	z	0.680824
3	N	B	A	A					N	4	0	shapes	N	7	True	60	(-4.1947489521262673, -6.3409593511553171)	(5.9694420079496879, -3.2935580328071961)	(8.0601978018373579, 4.71876059302177)	(-0.18279497168947145, 8.3685028171752336)	1.0	z	0.666671
4	N	A	A	B	B	M	M	N	N	8	1	shapes	A	7	False	60	(8.62760753958705, 0.2319634121838714)	(-8.0171191077083321, 7.0539592668109226)	(-2.5095758519020102, 4.3982010333074815)	(-0.31800727303350484, -5.0264075679185769)	1.0	slash	0.952037
5	N	B	N	B	A	M	M	A	M	8	7	shapes	A	7	False	60	(-6.8536507441598022, -3.310283437650182)	(5.6253672184975052, 4.0763530642423422)	(-6.9042202576815379, 7.3106471312378112)	(-2.2576866388264545, -7.2705926609170284)	1.0	z	1.79133
6	M	B	M	N					M	4	0	shapes	M	7	True	60	(-3.2990615097460321, 0.39917370210696745)	(7.8639050957345802, -3.785451422279519)	(-7.8501181119224208, -4.3188890690135677)	(2.9788111348837045, 2.952414244933701)	1.0	z	1.01944
7	N	B	B	A	A	N	M	M	M	8	0	shapes	N	7	False	60	(-0.86587630577350438, 1.9896934838462688)	(-4.8359135538107152, 6.6554646675244697)	(3.8923827963210496, 2.8443222090085509)	(-0.97786066320074116, -8.7348448144610007)	1.0	slash	0.475162
8	N	A	A	M	B	N	B	M	B	8	3	shapes	M	7	False	60	(-7.4341717052204821, 6.1543395578520137)	(5.8335605681480747, 4.4866410215677828)	(-6.9750759101810198, -1.6142416693428165)	(5.0202743496293003, -8.3656581462536241)	1.0	z	1.03077
9	N	A	M	N					N	4	0	shapes	N	7	True	60	(8.49092653057183, -7.485731943641893)	(-7.2216749984244428, -0.032925171545171494)	(5.7743780038796881, 1.0645530268296532)	(-1.0475638836188423, 2.5018247413322001)	1.0	z	0.554344
10	M	B	A	M	A	B	N	N	M	8	0	shapes	M	7	True	60	(1.17012320711199, 4.884841228317331)	(2.2008549393238361, -4.6325726717560816)	(7.0746769364513273, -8.3034306409203467)	(-1.9377238981739993, -5.0490584255188269)	1.0	slash	1.47003
11	M	A	M	N	B	B	N	A	M	8	4	shapes	B	7	False	60	(0.99676948849873348, -0.44804219237687803)	(5.5446901469296836, 3.9712831297472384)	(4.2972119696694442, -4.7798133302539636)	(-3.6824859654272011, -5.4852899568862217)	1.0	z	1.1075
12	M	B	M	N					B	4	1	shapes	B	7	True	60	(8.3129218859420746, 2.6774703990298967)	(-0.72127128127958962, 3.626667324294381)	(-3.0198779606731341, -3.9106228139028865)	(6.71771379307045, -3.2462087806601749)	1.0	z	1.40714
13	M	B	N	N					B	4	1	shapes	B	7	True	60	(-4.4815589107363163, -6.1769956267710509)	(1.8679443963472497, -7.3413500224161083)	(4.5133632894425073, 4.9767081511929376)	(-4.3934612133498216, 6.5006860314100443)	1.0	z	1.5026
14	M	A	N	B					A	4	3	shapes	B	7	False	60	(8.1860539102347758, -7.8377545740842542)	(-0.81690773049117116, -5.9753713710929111)	(6.7787638759846072, 3.749186958780113)	(-0.82546873216749628, 4.4039802794731848)	1.0	z	0.732425
15	N	A	M	A					N	4	2	shapes	M	7	False	60	(7.6039550182748528, -0.21107746793107829)	(-1.059730269297166, 5.2356968457153652)	(2.4100867553776801, 0.42138541489882186)	(-0.73415346923470715, -2.4827381779484865)	1.0	slash	0.500114
16	M	B	N	B	N	M	A	A	N	8	4	shapes	N	7	True	60	(-3.3021424034373865, -7.6746311335392665)	(-8.5223381378230698, -5.0182853072656304)	(-1.5108578466895963, 4.0730792260245821)	(6.3218730019420004, 8.5053215854666178)	1.0	slash	0.62977
17	M	B	M	B					B	4	0	shapes	M	7	False	60	(-6.0747595802129846, -7.7405113699132722)	(-1.8433691511677237, 2.222070678862158)	(6.618284192900612, -6.8910516097376959)	(8.2166606045195003, 3.3779985603806288)	1.0	slash	0.409366
18	N	A	M	A	N	M	B	B	B	8	7	shapes	B	7	True	60	(3.4989032524504609, 1.4150184753750832)	(-0.82615961336500821, -2.4808330459630161)	(-8.290090821845018, 7.2999412194501403)	(7.4122823215679574, 4.371544002740011)	1.0	z	0.251213
19	M	A	N	B					A	4	2	shapes	N	7	False	60	(-4.032565326956675, -5.7531636398393857)	(2.2976858699286957, -4.8308773042799373)	(-7.5226071476613399, 3.5748085727088945)	(1.5073206563841275, 0.4185901864588395)	1.0	z	0.434732
20	M	A	N	A	B	N	B	M	A	8	3	shapes	A	7	True	60	(-6.1076095826235743, 8.3171044592279593)	(-1.7011481028162239, 0.9147838986211223)	(-7.153606762547625, -3.9945040590404544)	(1.62459809755428, 6.8672291122532698)	1.0	slash	0.598723
21	M	B	M	A	N	B	A	N	B	8	0	shapes	M	7	False	60	(8.5749749090678229, -4.8441230665456363)	(4.1306209075623617, -0.86980066475995077)	(-1.5115629024487349, 8.3697149846346299)	(-8.2868284371359131, 7.7819643454268608)	1.0	slash	0.474395
22	M	B	N	A					M	4	0	shapes	M	7	True	60	(7.2542361329333538, 5.9225460077169689)	(7.5710936078663202, -3.9236111597345209)	(-0.48488221036361523, 0.48507689987562763)	(-6.013900728908018, -3.9621912907178389)	1.0	z	1.09184
23	M	B	N	A	M	N	B	A	M	8	4	shapes	M	7	True	60	(1.5951845563605271, 4.7554111063821392)	(5.1922029124771374, 1.6113975700020617)	(-8.17038012698867, 7.8947525906175429)	(7.3531500644400438, -6.8567573599942016)	1.0	z	1.26742
24	M	B	M	B	A	N	N	A	B	8	0	shapes	M	7	False	60	(-6.4968677546484965, -8.4713290192049637)	(-7.0113892792126915, -1.703642979650918)	(6.3650777474829869, 1.3584805603616612)	(8.4561966154056769, -8.5560454452771868)	1.0	slash	0.899121
25	N	A	N	B	M	M	A	B	N	8	2	shapes	N	7	True	60	(0.51770639959051046, -8.0351629283284449)	(6.3023670424717562, 5.2853231639126186)	(-6.1376953311480742, -2.4240178381364714)	(4.1426416449910501, -3.8637248034528318)	1.0	slash	0.538772
26	M	B	B	A					B	4	2	shapes	B	7	True	60	(-0.37339857630320239, -1.21581736639365)	(-7.1392740897606277, 2.1765689689926777)	(3.4420995017441065, 1.914277544647117)	(1.7199808317615908, -5.1916433177065944)	1.0	z	1.23829
27	M	B	N	N					A	4	3	shapes	N	7	False	60	(-6.3673465163414322, 7.3571238237973446)	(3.3874262731231646, -7.4578007673609115)	(-1.6756055496302817, -7.2152059712050347)	(6.7252899247199807, 6.235139957271052)	1.0	slash	1.17399
28	M	B	N	B	M	A	A	N	M	8	0	shapes	M	7	True	60	(1.4404178208849476, 0.10651177653702248)	(3.0327376472890837, 4.1743129379971506)	(8.3388189752417787, -8.2300756280172624)	(2.0216747153399908, -5.3683598966755461)	1.0	slash	0.645422
29	N	B	M	B	N	A	M	A	M	8	2	shapes	M	7	True	60	(-1.1368241862065815, 6.8794493814998887)	(-6.3652462968907528, -5.2267860375272139)	(-8.6191372867805836, 0.33470167641409176)	(-2.0144776656593795, -3.3387369864192982)	1.0	slash	0.40923
30	N	A	N	A					M	4	2	shapes	N	7	False	60	(8.6018367059247964, -2.9775960470047842)	(-6.5727187927054178, 2.9785988270385158)	(5.9030393445081195, 8.7395445591718506)	(-4.0714742178671406, -7.6580891171995544)	1.0	z	1.13708
31	N	B	N	A					N	4	2	shapes	N	7	True	60	(-4.8640457720153165, 3.7022464285167693)	(-3.849001996760161, -7.2293205725629655)	(3.2654276505144164, 7.6753125815854801)	(3.6828622385139287, -5.8772867752619664)	1.0	slash	1.78457
32	M	B	A	M	B	N	N	A	A	8	6	shapes	N	7	False	60	(4.9937081099789964, 4.3924174337776645)	(3.2162023991433006, 0.25573379108853977)	(-7.4518533492530405, -5.1294919660530844)	(1.2125411284866274, -4.6419351568090716)	1.0	slash	0.822097
1	M	B	B	N					N	4	3	shapes	N	8	True	60	(5.4051480452874863, -5.1452637393866913)	(6.383913108419172, 4.2653952040198178)	(-4.7378563986630393, -1.0238454922690314)	(-7.8479459358988048, 2.6192768432473894)	1.0	z	0.215891
2	M	A	A	N					N	4	3	shapes	N	8	True	60	(3.3280359485522144, 7.205441855742988)	(4.4522285021656796, -6.1033084662915167)	(-0.70850524752654209, 6.9716703454212947)	(-4.3762469057100599, -0.13175763220213277)	1.0	slash	0.43143
3	N	B	A	B	N	A	M	M	N	8	0	shapes	N	8	True	60	(-4.6707345966145164, 1.0434045518453594)	(-2.9718139325684145, -6.0185793612168332)	(-0.82561888075987255, -0.068603140179524402)	(1.5178957992016002, -7.9737502119954975)	1.0	slash	0.371322
4	M	A	A	M					N	4	3	shapes	M	8	False	60	(-0.8469603177211793, 7.3816858670407974)	(-1.8167471264682042, -1.5567223938982178)	(8.681451902983099, 6.1994885137077791)	(5.8519012032109359, -8.4615996558968565)	1.0	z	0.842935
5	M	A	B	M					A	4	0	shapes	M	8	False	60	(-3.8180760224520176, 2.5430289688139549)	(-7.2416100395090393, -4.115362679169837)	(6.1651656609749637, 1.0271550449555011)	(5.5939357042884197, -6.6890584918190186)	1.0	slash	0.54082
6	M	B	A	A	N	M	N	B	N	8	0	shapes	M	8	False	60	(-7.2231765368614598, -4.2045798707765112)	(1.6803824590650542, 0.17587639426163726)	(3.2539687728422493, 8.5382446834258765)	(4.6036824818134097, -7.2122820755157528)	1.0	z	0.396257
7	N	A	M	N	B	M	B	A	A	8	2	shapes	M	8	False	60	(6.4975552055891317, 7.4413834232342069)	(-1.4744252448162749, -8.5551162711795286)	(4.8342995398065494, -4.6361988050261882)	(0.86249027314548421, 1.9157818320282018)	1.0	slash	0.393891
8	N	A	A	B					N	4	0	shapes	N	8	True	60	(-1.3065007290606845, 1.2988727619119533)	(-1.4450858701892768, -8.6328196366317798)	(7.1510853824927114, 4.5150457099816865)	(8.4027020727821657, -3.9843559701189379)	1.0	slash	1.91752
9	N	A	B	N					A	4	1	shapes	A	8	True	60	(8.3050631600186655, -2.7311313648967417)	(3.3966079788954957, 1.9076457846412413)	(-1.8277700545871562, -0.30702719250430377)	(-8.6111589902280645, 6.7657092237900578)	1.0	slash	1.03119
10	M	B	B	M					M	4	0	shapes	M	8	True	60	(7.4975847175532166, 0.50468613557339204)	(2.6754710978368159, -5.7880000537563259)	(-1.3216035851654233, -2.466841260801492)	(-8.3719350286491032, 3.5660554841352852)	1.0	z	0.946751
11	M	B	N	M					B	4	2	shapes	N	8	False	60	(-1.7930127250781496, -1.5288411904675741)	(4.426072286706269, -4.7835572216370412)	(-8.577106751127376, 1.2235757932254909)	(4.5116299045195873, 6.6231338037714877)	1.0	slash	0.272439
12	M	B	M	A	A	N	B	N	A	8	0	shapes	M	8	False	60	(6.4994526254476845, -4.4453085367812744)	(8.356145014266815, 6.3660170741149358)	(-0.97744520013778313, 8.0180245017168232)	(3.6710611479681727, 4.3078558198799275)	1.0	slash	0.396154
13	N	B	B	M	M	N	A	A	B	8	5	shapes	N	8	False	60	(8.2705056133134747, 4.037229942483366)	(0.39559186020799864, 5.3804971638274104)	(-2.3877183556272241, 2.1307032370231838)	(4.2990507259956754, -8.5082808391137803)	1.0	slash	0.48791
14	N	A	B	B					B	4	0	shapes	N	8	False	60	(7.0976003450637482, -1.9414936533169245)	(-5.2538255427122049, -8.091899721640317)	(7.0651664958697449, 4.6466316346796628)	(-5.0019513069660801, 3.4714259455624248)	1.0	slash	3.5115
15	N	A	N	M					B	4	2	shapes	N	8	False	60	(2.3813972712677192, 5.0945746836692596)	(-0.24484251227421794, 0.037985967208790328)	(-1.1480056740536915, -6.037597226045321)	(5.6268241060735402, -0.21533453262732571)	1.0	slash	0.227001
16	M	A	B	N					N	4	3	shapes	N	8	True	60	(5.5849036431592616, 0.59167403224199866)	(-6.2834121719065639, 5.3542948208034993)	(-7.844762993042532, -6.8791403361507566)	(1.7555766167579101, -2.7084198093148757)	1.0	z	0.896655
17	M	B	N	M	B	N	A	A	B	8	1	shapes	B	8	True	60	(6.5007133873814045, 8.0761127278266365)	(0.38132327494866658, 1.789869684429318)	(1.0128775784997472, -8.098338735811776)	(5.0531806577104472, -1.7836359272394819)	1.0	slash	0.328528
18	M	A	M	B	A	N	N	B	A	8	7	shapes	B	8	False	60	(7.8196925265451576, -1.0434277007825186)	(-5.6372698014480376, -6.5359107587737064)	(-1.9482821393965315, 4.9178338824779111)	(-7.9688055800936421, -3.2461645159142298)	1.0	slash	0.347975
19	N	B	A	A					B	4	3	shapes	A	8	False	60	(2.2273348536976609, -7.019077947190679)	(0.35943856386052353, 2.8722004735554183)	(-6.4448019846943847, 7.9313194593081064)	(-7.0841978207475194, -2.0825607516000257)	1.0	slash	0.447726
20	M	A	B	N					N	4	3	shapes	N	8	True	60	(3.580459271577169, 1.5279379807502931)	(-5.0998343712618883, 0.36180052201937052)	(-0.40898119764711716, -1.3481390536307618)	(3.6532089439114763, -6.3294177644634022)	1.0	z	1.12744
21	N	B	A	A					B	4	0	shapes	N	8	False	60	(-7.626758813496207, 0.56949056985931712)	(4.8058555285598654, -7.2725888522766011)	(-4.3858964561026745, -2.0599462393749102)	(6.4024391535419998, 5.9068164061232569)	1.0	slash	0.831001
22	M	B	M	A	B	A	N	N	M	8	0	shapes	M	8	True	60	(8.5259157250460227, 0.42013635308721753)	(-1.6618938442868805, -2.5917232564183177)	(-2.1883909592077915, -8.0231297895182703)	(6.8737420832976994, -6.1875478093349052)	1.0	slash	0.814741
23	N	A	M	M					N	4	2	shapes	M	8	False	60	(-0.68750621845730642, 4.6795161505393672)	(4.045824452903986, -0.92243151888724739)	(-4.8492803350090758, -2.1446274620014041)	(6.9030627434814935, 5.9839895061404995)	1.0	slash	0.326152
24	M	B	M	A	B	A	N	N	B	8	0	shapes	M	8	False	60	(-6.4083410271374888, 8.1217358235730579)	(2.1826438280094074, -2.8643919275388896)	(-7.8401150548748424, -1.6925831111765612)	(5.6203813182310345, 6.094133349446853)	1.0	slash	0.415974
25	N	A	A	M					M	4	3	shapes	M	8	True	60	(-3.9094125944745874, -4.8852021305939051)	(-1.822639459208701, 3.504090870267401)	(7.3191864789862358, 5.1447284142738656)	(1.8554172483991156, -4.0826453477055749)	1.0	z	1.07976
26	N	A	N	B	B	M	M	A	M	8	7	shapes	A	8	False	60	(3.2036311247492755, 1.9833435495416829)	(-7.438208944707795, 2.3190730608315597)	(0.23536853318283768, 5.1332409812587674)	(-7.7362114644276829, -3.6881197138536397)	1.0	slash	0.46919
27	M	B	A	A	B	N	M	N	A	8	7	shapes	N	8	False	60	(-4.8311819866284615, 4.4862574484498818)	(5.379791181922954, 1.5451036722502991)	(-2.1293117143147944, -2.8553723308151708)	(4.4223364855284935, -6.3306000237654629)	1.0	slash	0.686821
28	N	B	A	M	A	B	N	M	B	8	5	shapes	B	8	True	60	(-5.7615824100373398, -5.4269559586583753)	(-1.8400312586758858, -3.1684781654227692)	(4.1398488882118762, -1.9079914895014713)	(4.0760871356727915, 5.3370415228377652)	1.0	slash	0.82679
29	M	B	B	N	A	A	M	N	N	8	7	shapes	N	8	True	60	(1.5759236391697513, -4.1926909973133348)	(-7.7216487848678605, -7.029452928185191)	(8.1817104080942649, -4.4128017060707592)	(2.8711074672629628, 7.3768315581583899)	1.0	slash	0.602443
30	N	B	A	B	M	A	M	N	N	8	0	shapes	N	8	True	60	(-5.0711402930832365, -0.42653218317440356)	(0.19086850408606004, -5.0123787443191876)	(8.1233481678165518, -8.137633083369975)	(-6.9914606290743126, 5.343310999860023)	1.0	slash	0.685921
31	M	B	N	B	A	A	N	M	N	8	2	shapes	N	8	True	60	(-4.7230244993404691, 1.9794807308675573)	(2.4647355484716158, -0.67540325308298321)	(2.94496087253623, 4.4356045948368301)	(-2.3515779148189351, -6.4507047100236932)	1.0	slash	0.561714
32	M	A	B	B	N	N	M	A	B	8	2	shapes	B	8	True	60	(4.8498061495986029, -8.5727191514106931)	(5.0425154832823971, 3.5087392836379614)	(-8.3255077006551303, -1.5061050728807901)	(-0.92370773429179565, 2.4388757212719891)	1.0	slash	0.533415
