TrialNumber	stim0	stim1	stim2	stim3	stim4	stim5	stim6	stim7	stim.probe	ttl.stims	corr.num	trial.type	stim.corr	block	match	Subject	stim.pos0	stim.pos1	stim.pos2	stim.pos3	ran	resp	RT
1	M	B	N	N	M	A	B	A	N	8	2	shapes	N	Practice	True	61	(7.2747458895649828, -5.836428488866364)	(-7.1462740132043558, -2.4404519351496461)	(-6.3732418776395061, -7.0454349683484061)	(3.9476632058846519, -0.51843639617447579)	1.0	slash	8.01703
2	M	A	N	A					A	4	3	shapes	A	Practice	True	61	(4.7868945667225358, 0.0037626176064122774)	(-0.88715263729923066, 0.40976145459261026)	(-5.7362210449545827, -1.5348651012646624)	(1.2807381464577432, -6.1946653020067677)	1.0	z	2.64414
3	M	B	B	N					A	4	0	shapes	M	Practice	False	61	(-8.0481813665590227, 5.2753444784717551)	(-7.2874951700277339, -8.1471703484440035)	(1.0932769986786148, 0.085936120681010308)	(5.0541711219743402, -7.2369469671058217)	1.0	slash	1.88554
4	M	B	A	M					N	4	1	shapes	B	Practice	False	61	(4.4468339078703121, 8.561178444070606)	(-0.64362452888979682, 0.090745291656357807)	(-6.2398310596875088, -3.0740973779809089)	(4.3439856984853034, -4.6027202563492171)	1.0	slash	1.37524
5	M	B	M	A	N	B	N	A	B	8	7	shapes	A	Practice	False	61	(1.6337515703056358, -1.8443590538594714)	(-4.1001122547221209, 0.47489402630751165)	(6.9311679757930129, 2.7405942701290513)	(-3.2027842024842483, -6.1970226163372821)	1.0	slash	1.95024
6	N	A	M	N					N	4	3	shapes	N	Practice	True	61	(-8.4760717458444716, 7.0736716936944415)	(6.1080035550846592, 2.0212401460254679)	(-8.6206563513881083, -8.5476417525488912)	(6.302831686472901, -2.0911273336120484)	1.0	z	0.944473
7	N	B	A	A	B	N	M	M	B	8	0	shapes	N	Practice	False	61	(6.8724050264570096, 1.387768386637017)	(-7.9118458257913797, -4.9756876557585059)	(0.012296983928777649, 2.6725732720257156)	(-8.7284540497889331, 4.8726818265783844)	1.0	slash	1.30211
8	M	A	B	N	A	B	M	N	B	8	5	shapes	B	Practice	True	61	(2.4076778231710509, -2.593526496055742)	(6.7622893711375358, -0.064493948902294207)	(-7.0376701643774346, 8.1016984088589901)	(5.1797183497227444, 4.5104099201856922)	1.0	slash	1.6271
1	N	A	M	N	B	B	A	M	N	8	5	shapes	B	0	False	61	(-0.43975558461852593, 5.7642834922156183)	(7.7684332419468944, -0.72112290832643922)	(-5.6790525274172134, 0.73367759549834766)	(-1.277573380579109, -0.0052245278649909466)	1.0	slash	0.96299
2	N	B	B	N	M	A	A	M	M	8	7	shapes	M	0	True	61	(-3.8491090443716471, -3.4528619740004087)	(-3.5017984399456035, -8.160480487142646)	(-4.7335725105389805, 3.2533549518290386)	(3.9077069564634961, -0.94875323151913715)	1.0	slash	1.17334
3	N	A	A	M	N	B	B	M	A	8	1	shapes	A	0	True	61	(1.6327623794055963, 5.2815542218027129)	(1.4055724990754594, 0.88050091141278131)	(3.1220516883944942, -3.813503986263119)	(-1.8654406207483714, -7.0450464347870865)	1.0	z	1.49243
4	M	A	B	N	N	M	B	A	B	8	6	shapes	B	0	True	61	(5.8005221520033601, -7.8282323721196656)	(7.6998051122691216, 5.2547385594825968)	(-0.57024044319716083, 2.5107393797586948)	(-5.2181692981083589, -8.5874258875879246)	1.0	slash	2.10838
5	M	B	N	B	N	M	A	A	A	8	0	shapes	M	0	False	61	(5.4289693351122832, -1.4417613088695722)	(-4.3437969191535339, 0.67288948053834119)	(-0.025519297061965318, -2.6230917027474066)	(-2.1880035495405501, 7.5719359170617757)	1.0	slash	1.03456
6	M	A	A	N					A	4	2	shapes	A	0	True	61	(2.4571583193745514, -0.75072200516771748)	(5.2181779366116228, 7.5481426149322353)	(-6.2359233951815103, 3.9742540573353597)	(-7.6760869226348483, -4.7409165844790948)	1.0	z	1.02098
7	M	B	M	N	A	A	B	N	M	8	0	shapes	M	0	True	61	(-2.5782991809964599, 5.0380948188884425)	(0.19109183307633337, -2.8231181252806055)	(5.6714546185294985, 3.7617388595069059)	(-0.078586744531152775, -8.3273685300904159)	1.0	slash	2.81875
8	N	B	N	M	M	B	A	A	A	8	3	shapes	M	0	False	61	(-0.38036802536952763, 1.5133321666844974)	(7.7680601926403057, 0.95764314659305683)	(-6.9771260152736998, -3.6749843938334328)	(0.6149589479772537, -5.6871166369700443)	1.0	slash	0.938251
9	M	A	M	B					B	4	1	shapes	A	0	False	61	(0.12619967887489558, -5.5921701404183466)	(-0.22978607156259301, 4.9956941363895542)	(-3.9812347071826935, -4.086478257013658)	(6.4395783812272303, 5.9338336257298518)	1.0	slash	0.736521
10	M	A	B	M	B	N	N	A	B	8	2	shapes	B	0	True	61	(3.1104305105200076, 0.81137670452946864)	(3.4988020815483889, 5.0337194745357472)	(-3.8117520867498804, -4.6285444174070465)	(-4.3771304362123153, -8.6930136618843825)	1.0	slash	1.99168
11	N	B	B	N					A	4	2	shapes	B	0	False	61	(1.1907728907716351, 7.8773301170290679)	(-4.7255620253742441, -0.83133772978555154)	(4.9162783991538159, -1.3249051476789688)	(-5.0228726033192963, 8.0940168195656952)	1.0	z	0.883098
12	N	B	M	A					B	4	1	shapes	B	0	True	61	(-8.1193990095809685, -4.2106440967561936)	(7.901645978068963, -5.9493363206927175)	(-4.404177899548908, 5.6841232862038016)	(5.9437768270503124, 4.4111948571682067)	1.0	z	0.933335
13	M	B	A	M					A	4	0	shapes	M	0	False	61	(7.3892007853467483, 6.8607831634214484)	(3.4805354043197188, -0.046381461127767309)	(-0.052679259068060702, -8.08795517579156)	(-5.825101023678009, 3.5919013866826965)	1.0	slash	0.98697
14	N	A	B	A					A	4	1	shapes	A	0	True	61	(1.2986864375255198, 5.6516618734652972)	(-7.5657430365317788, 3.4265909771709495)	(-5.1379805490841584, -2.3738036568559888)	(4.5884193813294356, -0.68030981864528073)	1.0	slash	0.918387
15	N	A	A	N	B	M	M	B	M	8	2	shapes	A	0	False	61	(2.030446312020965, -3.048312315557177)	(6.5502104041773386, -4.6595669811180453)	(-3.5535884324710274, -2.8976803732406191)	(-8.5832352761591384, -4.5516496890336393)	1.0	slash	0.962303
16	M	A	N	B					A	4	2	shapes	N	0	False	61	(7.5189529462883549, 2.9310559158231406)	(-0.47024164715590899, -2.2554329538951317)	(6.3110227576776676, -7.7039286805605629)	(-7.5664981029896978, 2.4497208888860253)	1.0	slash	0.955841
17	N	B	A	B	M	M	A	N	N	8	1	shapes	B	0	False	61	(8.140669208316492, -3.9666571268442734)	(1.7403479527067063, 7.8211913564297326)	(-6.0183309226463351, 7.7279927714670862)	(-3.2703868030154943, -4.0726828336659873)	1.0	slash	1.33493
18	M	B	N	A					N	4	2	shapes	N	0	True	61	(-3.1581794235960929, 0.53738270623765061)	(4.1502250750040588, 4.7095594216727363)	(0.93265112201390821, -2.6740581614205103)	(-4.1413474992046133, -7.7588219015148105)	1.0	slash	1.82303
19	M	B	B	M					M	4	1	shapes	B	0	False	61	(-8.6223379442854906, 1.6430319897205159)	(6.1982065228920664, -4.2251154087694118)	(-2.065685843364272, -1.2690787660777731)	(0.90176981695010383, 8.3400382793498515)	1.0	slash	0.772783
20	M	B	A	A	N	N	B	M	B	8	1	shapes	B	0	True	61	(4.7457226941368003, -0.70997292013693425)	(6.6357691673310821, -4.6612753424323667)	(-0.1913136801572719, -1.79019428415861)	(1.4897360017161159, 2.2642959567634602)	1.0	z	5.16436
21	N	A	B	M	N	B	A	M	A	8	1	shapes	A	0	True	61	(5.1804547389862314, -7.8945636553761727)	(-3.6456320914361857, -6.4010542843282003)	(0.41563849313230961, 8.2387161560681506)	(5.9471826158697905, 1.3998762772593736)	1.0	slash	1.30183
22	M	B	A	M					A	4	2	shapes	A	0	True	61	(-6.5080424277750897, -0.61622992595677495)	(6.1183681071650788, -8.010314566378268)	(-3.2671800900727064, 2.2758049768873931)	(4.6906401500047359, 6.8608696519533741)	1.0	z	1.01926
23	M	A	N	M					N	4	1	shapes	A	0	False	61	(-8.1519530956693469, 2.5258185389159387)	(6.1693545260266802, 8.1783162436314676)	(-7.7293454384377034, -6.8333730511167845)	(3.5149442257734016, -3.4963609860883702)	1.0	slash	0.808841
24	N	A	B	B	N	A	M	M	A	8	0	shapes	N	0	False	61	(1.8424571257504105, 2.875656092103835)	(-3.294567777832957, 5.1219621746270327)	(6.0070333533019706, 6.260115818020175)	(4.9601709610560683, -5.4305822831721287)	1.0	slash	0.778115
25	M	B	B	A					M	4	2	shapes	B	0	False	61	(6.5998405775122801, 0.71907012656792446)	(3.1526201473543214, -1.5156509292828328)	(-1.6263600365738693, -2.2549842968008162)	(-0.3067459698161592, 1.9333295071573424)	1.0	z	1.29416
26	N	A	A	B	B	N	M	M	M	8	2	shapes	A	0	False	61	(5.9660516144547078, 2.2841353387092234)	(-3.6489581511762816, 0.54290200677453271)	(3.427051142918712, 6.3045603980732103)	(-2.2598447325021027, 6.9446499125977592)	1.0	z	1.10924
27	N	B	B	A					M	4	3	shapes	A	0	False	61	(4.0492415783359323, 0.77641771007010796)	(-3.0427135361895976, -4.2104861124628368)	(-7.3588806108710223, 2.3527435573628299)	(6.1566753023060148, -8.4569873192420317)	1.0	slash	0.777602
28	N	B	N	B					N	4	0	shapes	N	0	True	61	(-3.6632337292201385, 2.9606670692301673)	(5.4976042346687759, -4.7908278911136115)	(-6.8995510939361306, -1.7898823752449005)	(6.2174760390104939, 6.9809738450527892)	1.0	z	0.825238
29	N	A	A	N	B	B	M	M	A	8	1	shapes	A	0	True	61	(-3.7595205856195708, -5.6951084302910395)	(-6.1348621703024513, 5.138450855161965)	(-1.4006262878767961, 0.14157769770071837)	(6.2398636450247036, 6.4342173309261916)	1.0	z	1.22376
30	N	B	A	A					B	4	1	shapes	B	0	True	61	(0.82731134507140602, 1.2019056108054311)	(4.2257200915705191, -7.6081237173825791)	(-7.3823708408621282, 8.6831139902129628)	(-7.841157499966215, -0.81409445147603421)	1.0	z	1.02795
31	M	B	N	N	M	A	B	A	A	8	0	shapes	M	0	False	61	(-0.7029699947754775, -4.2603410851895056)	(-5.7399311528104766, 4.3905112342037178)	(-1.209126285915108, 4.5503673068878445)	(8.4361553250755854, 8.3765149397811598)	1.0	slash	1.93063
32	N	B	A	B					B	4	3	shapes	B	0	True	61	(7.3448076955319266, -1.4916209123633921)	(-7.03755930287348, -7.5114942266434905)	(-4.6035518309431023, 5.0025694250561248)	(2.8034004986399061, 6.3936408338744553)	1.0	z	0.855557
1	N	B	A	A					A	4	2	shapes	A	1	True	61	(-7.0281303809981157, 8.4299628568009837)	(2.5035450519689224, 3.5443625127158285)	(0.47291610870255596, -1.8417422180427119)	(-6.4363347151432482, -5.9637471077398443)	1.0	z	0.697266
2	M	B	B	N	M	A	N	A	M	8	3	shapes	N	1	False	61	(2.6313747018506533, -6.8782139303273304)	(0.67148843519803947, 1.6141862699956189)	(-7.4318730525176768, -5.4503563541752325)	(-6.2529286953805512, 1.1775339950951675)	1.0	slash	1.001
3	N	A	M	B	B	A	N	M	M	8	7	shapes	M	1	True	61	(-1.1712160531543372, -3.9378093773891401)	(6.7702509157469688, 3.8668721591116988)	(-4.5830372042469909, -0.58355490033870261)	(-5.1222870986218858, 6.335278590938481)	1.0	slash	1.26602
4	N	A	A	M	N	B	M	B	B	8	7	shapes	B	1	True	61	(-0.24429447367770152, -0.9630964912649338)	(-3.2118633137907029, 2.3531874231192731)	(-7.907467083057365, 0.032717148786989725)	(-7.0255442390790561, -4.8704712128659748)	1.0	z	0.943848
5	M	A	N	A					A	4	1	shapes	A	1	True	61	(-4.8101473850364336, 5.7506682938111258)	(-0.42320631269442721, -4.9988461575601697)	(6.2351925982994221, -5.6230665986163917)	(1.176129997100638, 0.72771882170234825)	1.0	z	1.17969
6	M	B	A	B	N	N	M	A	B	8	0	shapes	M	1	False	61	(-4.03923060363097, -1.8015133525108595)	(6.6549056831430757, 2.370614453437609)	(5.8136531840740275, -4.6827705369656147)	(-2.3074773616746054, 7.9977190670061482)	1.0	slash	1.09896
7	N	B	N	A					B	4	0	shapes	N	1	False	61	(1.8008395987123382, -4.8742131652421712)	(-4.6951837413505126, 7.9882845133918394)	(3.128362820324611, 0.086256209481962998)	(-7.5198625985945196, -7.59767944232064)	1.0	slash	0.759064
8	M	A	A	B	B	M	N	N	N	8	1	shapes	A	1	False	61	(6.6646264636454688, -2.7855463956066)	(-0.26916956823437133, 6.9856427800019194)	(-5.7666371751907821, 2.2696432531953459)	(5.1124342135105643, 8.0077134310662785)	1.0	slash	0.803095
9	N	B	A	N	M	A	M	B	N	8	4	shapes	M	1	False	61	(8.6312067530117318, -2.7953734024375532)	(-4.5372593775594821, 2.6497590846219126)	(1.5963850706593856, 7.9576626627833562)	(-8.3785486447877755, -2.3767442241063144)	1.0	slash	1.036
10	N	A	M	N	A	M	B	B	B	8	0	shapes	N	1	False	61	(-2.436703788046251, 4.4989290359002272)	(4.6421397489279812, 4.911020158120067)	(0.52484934962286189, 1.7887033269703227)	(-8.0606669681564433, 4.8156607573981134)	1.0	slash	0.794036
11	N	A	B	N					M	4	1	shapes	A	1	False	61	(-2.47045627284104, -3.4054503020849065)	(-6.6080864641187178, 3.222127348094352)	(2.111312848687291, 1.668420648837353)	(3.0235993171180819, -2.5159557630333156)	1.0	slash	0.650059
12	M	A	M	N	N	A	B	B	N	8	1	shapes	A	1	False	61	(-3.5531255766541392, -8.0223158690810887)	(4.9988992025733481, -2.8655621084407388)	(2.2069208215590752, -6.9283618133403699)	(1.5319647306436028, 4.4538691551742922)	1.0	slash	0.77104
13	N	B	M	B					N	4	2	shapes	M	1	False	61	(-5.4878381058380121, -3.2932839153403268)	(-1.318025022747328, 7.0891346237361255)	(5.141522726536369, 1.6399395954928568)	(0.61830366997591213, -1.6086754418988285)	1.0	z	0.818958
14	M	B	N	B					M	4	1	shapes	B	1	False	61	(-6.6284913539705368, -4.8028061671307016)	(-6.1227123170874318, 3.7328338557053566)	(4.1563515094567514, 3.8267384026919142)	(7.8816272637782667, -6.6406277863034981)	1.0	slash	0.824187
15	M	A	B	N					M	4	0	shapes	M	1	True	61	(-2.8897961733038953, -5.340610710155774)	(1.1255951260677524, 0.26451362195124339)	(-7.4393726704872867, 0.041680157290667097)	(4.8367864023147398, -8.1021788040870835)	1.0	z	0.8443
16	M	A	A	B					A	4	1	shapes	A	1	True	61	(-5.3839243263081347, -7.6068294261084599)	(4.2376415580568629, -3.9678709188634889)	(0.24990283450766704, 1.4133895556715537)	(-6.6809934966130866, 7.6466517933456686)	1.0	slash	1.21196
17	M	A	N	N					M	4	1	shapes	A	1	False	61	(-5.9225026264919913, 3.9986423216982114)	(-3.0939679613920585, -7.410392784884392)	(3.3108123969577488, -8.0214915250999201)	(8.6746134497661451, 6.1776056506002348)	1.0	slash	1.19354
18	N	A	A	M					B	4	1	shapes	A	1	False	61	(-0.49740176720175633, 2.3673538363804241)	(3.1447577593101883, 4.6656526242329548)	(4.0189759158379452, -6.2425586374360034)	(-1.491205870701676, -2.807033769004196)	1.0	slash	0.820559
19	M	B	A	M	A	N	B	N	B	8	7	shapes	N	1	False	61	(4.4177388136905673, 6.395885106577877)	(-7.6871445068625803, 8.4489097790884777)	(-4.3406352579389544, -2.8237564997401874)	(5.6759689372821711, -6.3015492193164331)	1.0	slash	1.31408
20	M	B	A	A	M	B	N	N	M	8	0	shapes	M	1	True	61	(-4.1448536371820435, -5.2037812384070312)	(0.75684282890783905, 1.0041377224619819)	(-3.3184710415107181, 6.8536080740060115)	(6.9832371156351059, -4.3701807913205624)	1.0	z	0.845912
21	N	B	N	A	B	M	M	A	N	8	0	shapes	N	1	True	61	(0.045539729308265109, 3.5461836897279877)	(-2.6072053161335962, -3.8981474576808806)	(8.7324007442426961, -4.747156231040961)	(-4.8136854989890248, 2.8035926376620992)	1.0	slash	1.15965
22	M	A	B	M	N	B	N	A	M	8	3	shapes	M	1	True	61	(-0.23610522194256411, 5.8582687196148164)	(-2.5949307634341334, -1.0251917090783076)	(-5.8966505669659863, 4.345002308258664)	(-3.9625357136927004, -7.346721491689193)	1.0	z	1.12309
23	N	A	A	B					N	4	3	shapes	B	1	False	61	(-7.7538701101197898, 3.0742732216150959)	(6.7484191618232234, 8.4813464961066707)	(-5.5310527815980866, -3.7207222206501687)	(1.0817189693009279, -2.409782793806782)	1.0	slash	0.690771
24	N	A	M	B	N	B	M	A	A	8	7	shapes	A	1	True	61	(-3.2778095097408482, -4.9541115708880863)	(6.8254771705849517, -4.8807926419308885)	(-7.0409075748063641, -2.5748024505123004)	(0.44680754557007596, 6.8543182126369047)	1.0	slash	1.37047
25	N	B	N	A					A	4	3	shapes	A	1	True	61	(3.679118482852143, -6.6679935474321752)	(8.3810560988594958, 2.1061655727954758)	(-0.16163061521404032, 4.6667064193497438)	(-5.7773663601428931, -3.1071359365933553)	1.0	z	0.906576
26	M	A	A	B					A	4	2	shapes	A	1	True	61	(5.1589323212718039, -5.2081176871574524)	(-1.8465621726617556, 5.9361481949043284)	(-7.7965306285554412, -3.1106169159872357)	(8.4419186746638495, 5.5617087642058411)	1.0	z	0.840185
27	N	B	M	M	N	B	A	A	B	8	5	shapes	B	1	True	61	(-2.9893436200226864, -8.5628759672583712)	(-0.7434165986165997, 6.6760373468706078)	(-7.0475200990043358, -5.0565498986802639)	(-8.1212351704911097, 8.5703016589779715)	1.0	slash	1.16327
28	N	B	B	N					B	4	0	shapes	N	1	False	61	(4.5945652135411645, 0.28642347879562102)	(-5.9632857124337679, -3.2559669367044721)	(0.69221456433163553, -5.7426819516619059)	(-4.0746112835153401, 0.38374588823411848)	1.0	slash	0.899668
29	M	B	A	A					B	4	1	shapes	B	1	True	61	(-3.2454669670792144, -7.8293473089843379)	(2.9089474547960652, -7.24259062654553)	(-6.9245296498871047, 3.2475523740298176)	(8.347402616707349, 4.5244612414983401)	1.0	slash	3.21651
30	N	B	A	A					B	4	1	shapes	B	1	True	61	(7.1776073604963599, -6.5326113270576487)	(-6.2504972076396559, -7.1972549576007232)	(-5.1217562502398293, 2.2717667852582721)	(8.3446643180317643, 2.0827751686389266)	1.0	z	0.832532
31	M	A	M	B	N	N	A	B	M	8	7	shapes	B	1	False	61	(8.0873296809474979, -1.9395928236801501)	(-0.85092446718603565, 4.2898517246365753)	(-3.700073923284922, -8.5250297538929551)	(2.0660919242060913, -1.7525079970190607)	1.0	slash	0.764391
32	M	A	B	N	M	B	A	N	A	8	1	shapes	A	1	True	61	(-1.1140152120714779, -7.2759793881199846)	(4.5784513694924147, 0.7859464826508713)	(-0.88231042589734976, -2.827340121627822)	(7.1988643025363235, -7.4135701093107489)	1.0	z	0.789578
1	N	A	B	A					M	4	0	shapes	N	2	False	61	(-7.0212435810706451, -1.7454981543677661)	(6.1115685343725339, -5.5370177557439169)	(1.2990706439588244, 0.19150653353505298)	(-4.2850459244738524, 5.7011981270471175)	1.0	z	0.818868
2	M	B	M	A					A	4	3	shapes	A	2	True	61	(8.1691097621521891, -3.7009582256518314)	(-2.5265252893105199, -7.7183510943448077)	(-6.0024119557720148, 4.4141152842723415)	(1.0955691626764228, 4.2362296965695432)	1.0	z	0.639294
3	N	B	B	N	M	M	A	A	M	8	6	shapes	A	2	False	61	(-6.4495483635601776, 4.4502291120935578)	(-5.5484477361602655, -3.460025975830435)	(2.8404830910974468, -0.98941659503486878)	(7.0962661158609421, -1.9848560103162347)	1.0	slash	0.810505
4	N	B	A	N					A	4	2	shapes	A	2	True	61	(-1.0134991804364661, 7.110993661063004)	(8.2556007260618927, -8.5744130967088701)	(5.6630748151256007, 1.3596453835284645)	(-1.141408478364049, -3.8066378495090589)	1.0	z	0.952697
5	N	A	M	A	N	M	B	B	A	8	5	shapes	M	2	False	61	(-3.9991086583099014, 7.500193448640438)	(0.019012386489505317, 5.7277526404043186)	(-2.7517216307614545, -5.2533849866744831)	(-2.9742445567838285, 1.3773705680495709)	1.0	slash	0.869999
6	N	A	A	B					N	4	1	shapes	A	2	False	61	(-4.6787089455213833, -7.305136520585819)	(5.8301118850314353, -1.0107989675667328)	(6.4826465866429928, 6.1407450873054756)	(-6.3434967029722626, 1.7959884161257271)	1.0	slash	0.909816
7	N	B	N	M	A	B	M	A	M	8	7	shapes	A	2	False	61	(-7.6226308611320768, 8.0076387342558277)	(-6.8722262615983265, -4.6655810502410811)	(7.3953641864384778, -8.2615657181844107)	(3.7213748551970358, 1.6848935163354053)	1.0	slash	1.08106
8	N	A	A	B	B	N	M	M	B	8	3	shapes	B	2	True	61	(-2.6534439708399082, 3.1738256096871869)	(-4.9549516903962951, -3.8729867220416905)	(1.8500724713004306, -3.7252107248119506)	(6.1558193213568071, 5.2640097867757962)	1.0	slash	1.18524
9	M	B	A	B					B	4	3	shapes	B	2	True	61	(-7.9459173693051079, -6.1115367915252312)	(-7.9808582336263738, 3.7205726965596764)	(7.302032642622585, 5.8146084475542796)	(7.3369323857687831, -1.2419599195071562)	1.0	z	0.884683
10	M	A	A	N					A	4	0	shapes	M	2	False	61	(-8.3996972225345932, -5.9812360189826217)	(5.6924717319284817, 2.6448175851550015)	(4.1570503988860601, -8.0616252310984571)	(-4.5719917655534648, 4.3477918298466154)	1.0	slash	0.868216
11	M	B	B	N	A	N	A	M	N	8	1	shapes	B	2	False	61	(-0.64139556972122236, 8.6408431750177783)	(-7.7409880337069872, 7.6182133162565151)	(5.8599972069713679, -7.8822130340720928)	(-0.66913491408307024, -4.7629788602020486)	1.0	slash	0.705648
12	M	B	B	N	N	A	A	M	B	8	1	shapes	B	2	True	61	(8.2625063159489613, -2.3972664138169524)	(1.7521376580776273, 3.9608190535017531)	(7.7068536844569167, 4.6302269010175436)	(-2.9142673345288301, 5.9208044315991639)	1.0	z	0.661125
13	M	B	B	M					B	4	2	shapes	B	2	True	61	(4.3183518334260533, -2.7372815126126273)	(1.3143974464046835, 2.6000679922317858)	(-5.6286785373388213, -0.037509532257535838)	(-0.65896004435032829, 6.6537538955160009)	1.0	z	0.811115
14	N	B	N	B					M	4	2	shapes	N	2	False	61	(-6.0611096669830093, -4.4780877496623068)	(-0.2100912291386301, 0.58296838801762796)	(4.2928546036315449, 4.0593512726973344)	(7.5455838626953842, -4.1807848528331082)	1.0	z	0.818364
15	M	B	B	N					N	4	3	shapes	N	2	True	61	(-5.2941500915387412, -3.7825169708580946)	(5.6186332590370451, -3.726105490348079)	(0.13998218575685506, 5.296193013500524)	(-4.9227305373349886, 0.34628130547180902)	1.0	z	1.04877
16	M	B	A	N	B	A	M	N	M	8	0	shapes	M	2	True	61	(-6.2813867906775389, 5.7249933335427556)	(7.8660222773717692, -6.2441538604941336)	(-2.2081113462345918, -3.0890567057280016)	(8.6664526955646473, 3.3612384527509889)	1.0	slash	0.945904
17	M	A	M	B	N	N	A	B	N	8	0	shapes	M	2	False	61	(0.23322625229135419, 2.69396044529406)	(-5.0391213802046728, 0.35799627999174355)	(4.754176257458564, -5.0582426807164094)	(-2.9107169052853115, -4.4445210447941008)	1.0	slash	1.40991
18	N	A	A	M	B	B	N	M	N	8	0	shapes	N	2	True	61	(-1.0553081948296592, 7.8708869810343352)	(1.2908161622500778, 4.0735834029752898)	(-8.7004046048964607, -8.1064144083319789)	(-3.0659565136828961, 0.08997238967226906)	1.0	z	0.617774
19	N	B	B	N	A	M	A	M	M	8	5	shapes	M	2	True	61	(-7.1421598731832159, -3.1391876405135672)	(-8.4547139045979041, 0.97139284808086401)	(2.9641491609464499, 0.26288060817142522)	(5.7685607486081132, 6.1768665129126266)	1.0	z	0.850456
20	N	A	A	N					M	4	0	shapes	N	2	False	61	(-7.708889503962757, -1.7553918408069213)	(0.27380628810051988, 2.0895274489282674)	(8.437812915854547, -3.7622970897127042)	(-3.736667899430282, 6.8946242705517697)	1.0	slash	0.888849
21	M	A	B	M	A	N	B	N	M	8	0	shapes	M	2	True	61	(7.8810222648589274, 7.2183490108854933)	(6.7757315219873835, 1.4728906106432653)	(-6.2996007290957516, -1.7818710636460873)	(-0.46031863688831542, -2.168379355291874)	1.0	z	0.722025
22	M	A	B	N					N	4	0	shapes	M	2	False	61	(-6.3364952575410385, -4.6603523341806667)	(-1.1250358741425188, 2.1617218525941126)	(6.1292438692617477, -3.2480874944204858)	(0.78100407886442902, 7.4641769065005157)	1.0	z	1.01857
23	N	A	B	N					N	4	1	shapes	A	2	False	61	(5.0193314003914011, -6.4364191087020526)	(-1.5243325219486827, 2.6025442380652155)	(-0.32740679477896251, -6.5512843691710394)	(4.7713533802935864, 2.6111744731495659)	1.0	slash	0.759791
24	M	B	N	A					A	4	3	shapes	A	2	True	61	(-7.6742937604915138, -0.39579695147410376)	(-3.1854742756657632, 5.4880361566758165)	(3.5742971704067816, 3.4905736723448939)	(5.4285394647878924, -0.69329683841634626)	1.0	z	0.871465
25	M	B	M	B					M	4	0	shapes	M	2	True	61	(-4.9604039362224288, -6.436219870217208)	(4.5516487431036996, 7.0287886862113353)	(0.53551433011555361, -5.9647021962476394)	(-3.626998859850028, 7.3674231034458764)	1.0	z	0.929232
26	N	B	M	N	M	B	A	A	B	8	0	shapes	N	2	False	61	(-4.6251014061198985, 1.5355186983916163)	(1.7636795322589425, -0.77258584391613194)	(-6.8077187894499094, -4.5725069771962898)	(-0.096211253453162726, 5.8385616693157161)	1.0	slash	0.762909
27	M	A	N	A	B	B	M	N	A	8	1	shapes	A	2	True	61	(-4.7403386157896339, -5.0245719050540352)	(6.726521443990471, 5.6052593910444202)	(-8.7229487221971667, 3.9901644752123566)	(0.52813284082443168, 4.8941077661811594)	1.0	z	0.923647
28	M	A	M	N					B	4	0	shapes	M	2	False	61	(8.0140329066042888, 4.5208702741458922)	(-8.035393573045793, -2.5912371418179951)	(-7.4157419326118035, 7.9421154268940306)	(0.47658727537721646, -4.6924856628832199)	1.0	slash	0.644141
29	N	B	M	A	B	N	A	M	M	8	0	shapes	N	2	False	61	(0.58947704558120151, 6.4545523605440263)	(-4.5386795172471786, -1.0348605524371655)	(1.4302924747487413, -2.1533609370389355)	(6.2142909799059183, 7.511562623451983)	1.0	z	0.652957
30	M	B	M	A					B	4	1	shapes	B	2	True	61	(6.4266676712126216, 2.8965648578930043)	(0.651678680385821, -1.1189686093708566)	(-2.5579382847674994, 3.293623872493546)	(-7.7201690345229839, -0.70465928386519039)	1.0	z	0.875335
31	M	A	N	N	A	M	B	B	M	8	4	shapes	A	2	False	61	(2.2202186849701828, -5.0241576903008944)	(0.051577447225456652, 0.54708529116664906)	(-4.7070979612496009, -2.8290369619452598)	(5.1694793906312757, 6.0811951829932145)	1.0	slash	0.910394
32	N	B	B	M	N	M	A	A	N	8	4	shapes	N	2	True	61	(2.3952908263761188, 5.4603247797811107)	(-2.4931373576963587, 3.2961977699643317)	(7.1054627956270888, 4.5636063368612021)	(7.3610521321526328, -5.8211362470539969)	1.0	z	1.44284
1	M	A	M	B					M	4	0	shapes	M	3	True	61	(6.779279174881184, 0.72599971047859313)	(-5.437000326545796, -3.195151720892448)	(3.5086896206229383, -1.84433226493804)	(-2.5264970866705179, 0.47216943156814573)	1.0	z	0.806348
2	N	A	B	M	B	N	M	A	N	8	5	shapes	N	3	True	61	(-6.5361539223661502, 5.6572476474208511)	(-0.23419220281815534, -1.9683988498663805)	(7.2226530082911289, -0.6302204011804573)	(5.0897384240088019, 5.4091537130136604)	1.0	slash	1.07151
3	M	A	B	N					N	4	3	shapes	N	3	True	61	(5.9576411431373906, 4.9726440060351784)	(6.9553973526185828, -7.5106984582127101)	(-3.4081894656292535, 3.7914997566421658)	(-5.1884120353826653, -6.7697562269608698)	1.0	z	0.722834
4	N	B	A	N					N	4	0	shapes	N	3	True	61	(5.1105962691988172, 1.1382918777058553)	(-2.136773024475235, -0.075809149188035718)	(2.5446063027174706, -3.2656176932703316)	(-5.8092240521911798, 7.8085668854917571)	1.0	slash	0.90723
5	N	A	M	M					N	4	3	shapes	M	3	False	61	(6.5771302508967349, 3.9210672750693867)	(1.5849232660283405, -8.1864549405289839)	(-6.383329350798304, -8.5215193599590258)	(-8.0067755294903744, 5.2867409771045377)	1.0	slash	1.48691
6	N	A	M	N	B	A	M	B	M	8	0	shapes	N	3	False	61	(-0.14571268134301718, 7.0990064813899902)	(-2.9047583355534385, -1.3644049942811698)	(6.3691213805472024, 5.3064061673102962)	(8.6179294523307135, -2.564296845363903)	1.0	z	0.784047
7	M	A	A	B					N	4	1	shapes	A	3	False	61	(-1.3186031043171553, 4.5254340172443559)	(-1.9254294317942833, -7.5876632713965595)	(4.7497424297685047, 2.3787324613059297)	(7.0455169081011224, -1.4317497782481432)	1.0	slash	0.924211
8	N	B	A	A	B	N	M	M	B	8	0	shapes	N	3	False	61	(-0.84285545200363288, -5.2233250393454096)	(3.8784716024191539, -3.7665362498263644)	(-4.9151681471961624, -4.0403879914009382)	(8.135896237804225, 6.1912046138762236)	1.0	z	0.733369
9	M	A	A	M	B	N	B	N	M	8	2	shapes	A	3	False	61	(1.9199652917496799, 3.4368562407161285)	(-4.0871993130280257, -3.6830375087872751)	(-8.3827300601582184, 0.54619707385318783)	(-1.6997565681838527, 1.3912864649708503)	1.0	slash	0.780708
10	N	B	A	B					M	4	0	shapes	N	3	False	61	(-6.2288675973339398, 5.3076654124790252)	(-3.5450158284982649, -5.5216543312714519)	(8.3640748380116037, 0.37172458167014)	(3.5987389953023925, -2.7250122203115419)	1.0	z	0.769182
11	M	B	A	M	B	N	A	N	A	8	0	shapes	M	3	False	61	(6.3978584419222955, -6.8125761941612275)	(1.2184325773359674, 6.5210776466766607)	(-8.2803925343886515, -3.0174210983593417)	(3.3624654103513674, -2.7422640133662801)	1.0	slash	1.0502
12	M	B	M	A	B	A	N	N	M	8	3	shapes	A	3	False	61	(5.3097638793487825, -3.8151561597166612)	(0.16927404216149355, -8.5867719716821753)	(-2.1568004135863807, 2.1861530933925017)	(-7.8326851584645132, 4.011263546994936)	1.0	slash	0.906115
13	M	B	A	A	B	N	M	N	A	8	2	shapes	A	3	True	61	(-0.64992713627830057, 0.39025741640248235)	(-0.88118423010594427, 5.625996761417472)	(-7.2876002934007662, -6.6915709487432)	(7.7490464106800871, -7.9268956336883836)	1.0	z	0.744229
14	N	B	A	A					M	4	3	shapes	A	3	False	61	(-1.6103303565332974, 7.7932365813183928)	(2.3070642308989218, 2.8753216778043669)	(-1.7584215151393146, -4.1180598360368394)	(5.6119436420983853, -8.2103470594781527)	1.0	slash	0.757614
15	M	B	A	N	A	M	B	N	B	8	7	shapes	N	3	False	61	(-3.1790102307520796, -1.9697636900441688)	(5.6210765516022114, 0.95452899442479477)	(-5.1154563389663261, 8.4793479704800419)	(7.0448775167001756, -5.7724788261630042)	1.0	slash	0.73731
16	N	B	N	A	A	B	M	M	A	8	4	shapes	A	3	True	61	(-0.28598688057685351, 4.1410728586264316)	(-0.0037374712225197726, -1.7774249524251546)	(5.5884881207525616, -5.5285239048852368)	(5.9651134613030532, 7.146031696628949)	1.0	z	0.72906
17	M	A	N	A					N	4	2	shapes	N	3	True	61	(3.6867995179515507, 2.9454274665054143)	(1.0082932970484162, -4.7025938394967728)	(-8.3255104967426714, 2.4786100570644098)	(-4.9595160618942504, -4.7573536503476266)	1.0	z	1.18466
18	M	A	A	B					B	4	3	shapes	B	3	True	61	(1.6783889793509879, 3.0310265460482384)	(-3.8343664224356617, -2.9935231050627991)	(5.7324883840973264, -5.1849110107704028)	(-8.0452946221807142, 7.4583901491816498)	1.0	z	0.876471
19	M	A	M	B					A	4	0	shapes	M	3	False	61	(-2.3383396103915342, 7.1136260163961875)	(-3.4189179702594998, -7.6747026327417487)	(1.7572592046604623, 6.8989960519331603)	(3.4088525265437255, -2.0769148380157025)	1.0	slash	0.704138
20	M	A	M	N	N	A	B	B	M	8	0	shapes	M	3	True	61	(7.6370365640419919, 5.0276665484656515)	(0.61795064808322131, -8.3817216992150634)	(8.1089348682489124, -0.56713088622939267)	(-3.3080565529900223, 5.7722991387631826)	1.0	slash	0.653169
21	M	B	A	A	B	M	N	N	A	8	2	shapes	A	3	True	61	(-4.6356891193256864, -6.8782493167408294)	(-2.2620630371165289, 0.45603064622592804)	(-5.1421604427303027, 7.1039478459301968)	(1.0739304404200283, -8.3909369573999015)	1.0	z	0.724704
22	N	B	B	A	M	M	A	N	N	8	0	shapes	N	3	True	61	(-6.0155007364886313, 7.5002402158292085)	(7.4498359883417571, 8.5501046938380973)	(-5.4502570066553959, -7.1389780613439031)	(2.8356063136035559, 8.4151099525058193)	1.0	slash	0.64652
23	M	B	B	N					B	4	1	shapes	B	3	True	61	(7.7315620052261451, 5.9981882554527619)	(-0.71399066492261376, -0.37077527292718315)	(-7.4391120239078434, 1.2474078828893234)	(7.9533322356101621, -5.2010907694369379)	1.0	z	0.77465
24	N	B	B	A					N	4	2	shapes	B	3	False	61	(-4.4375689741709152, -6.3887985317807292)	(-1.0307239450569421, 3.153026509075751)	(4.8987702545902287, 2.2204523147367663)	(3.5941537024561629, -4.3836129001258612)	1.0	slash	0.757758
25	M	A	N	N	M	A	B	B	A	8	1	shapes	A	3	True	61	(-0.39534938852389168, 5.3262944497135329)	(-0.94189124377417244, -8.7201570756381308)	(2.9242034302351083, -0.97377261838267692)	(-6.7948932193612039, 8.4799152108408151)	1.0	slash	0.674055
26	M	B	B	N					N	4	3	shapes	N	3	True	61	(-8.6283353826352656, -5.0446931142827225)	(5.6343506361210931, -0.22528724186342508)	(6.211545544435932, 6.4873207009163405)	(-6.0038647214932883, 5.0297743072194923)	1.0	slash	0.589504
27	N	B	B	M					M	4	2	shapes	B	3	False	61	(-6.8991338172486234, 1.3839409509099188)	(1.375526222358225, 4.5852579733569332)	(-0.80770904617333095, -0.98642213362620357)	(4.4892602154209857, -2.2161740225281816)	1.0	slash	0.751248
28	M	A	N	B	N	B	A	M	M	8	5	shapes	B	3	False	61	(0.98932475304084022, 7.4354837556836202)	(8.0404904685635756, 5.2620565210651282)	(-6.512089379178569, 3.5360238400947868)	(-2.5396659921594473, 2.7128540210809042)	1.0	slash	0.739023
29	N	B	N	A	M	M	B	A	A	8	6	shapes	B	3	False	61	(2.5264825718002228, 7.2783676617175175)	(6.4039400468378496, 0.53364812568811892)	(-6.8865741003718357, 7.1822508126668598)	(3.3415127796988031, -6.8155910039795504)	1.0	z	1.17825
30	N	B	N	A					A	4	1	shapes	B	3	False	61	(6.9227388275047854, 6.3289718696927544)	(3.7341013463249588, -8.512778112077827)	(-5.2489970341888466, 0.8416905089196991)	(-7.0581355949151598, -3.1495670913369782)	1.0	slash	0.943684
31	M	A	N	M	B	N	A	B	M	8	0	shapes	M	3	True	61	(-1.9730601738882649, -4.45679170160144)	(4.7461612087931098, 2.6853920130016515)	(7.2022816115235244, -6.3233335986482642)	(1.1449991936489301, 0.80975527737615849)	1.0	z	0.725398
32	N	A	B	A					B	4	2	shapes	B	3	True	61	(0.73226765988437137, -7.2559408350244023)	(6.5517115741586451, 8.1605015997574881)	(-1.5084124416296518, -0.77862478422599413)	(-6.411387522898659, 0.10447551799181909)	1.0	slash	0.605182
1	M	B	M	A					N	4	0	shapes	M	4	False	61	(-4.2118309360152422, -7.1641486058130166)	(2.9784990502360174, 4.1678026487840807)	(-3.7891003800742524, 6.1580400624477321)	(6.877490649054975, -3.5408439304227874)	1.0	slash	0.695091
2	M	A	B	M	N	N	B	A	M	8	3	shapes	M	4	True	61	(-6.8200777331270679, 2.5951105856951298)	(4.3136338996647776, 7.284735129635358)	(-3.2815952029217934, -6.9431201278125521)	(8.2029964834841707, -7.9449498641430427)	1.0	z	0.582496
3	M	A	B	M					B	4	1	shapes	A	4	False	61	(8.2416943929461937, -8.7492969266509153)	(7.9268551636240154, 5.3912511950680013)	(-6.1844620621413071, -7.7079649671797776)	(-0.14426524037780908, 6.5455629504473549)	1.0	slash	0.682522
4	N	A	N	M	M	A	B	B	B	8	6	shapes	B	4	True	61	(-5.5963720915636994, -1.4495578350503386)	(6.0085851771403576, -1.6420562830662035)	(7.7163668510834107, -8.7233183815224056)	(8.5314380965021996, 8.4772745162503362)	1.0	z	0.875645
5	M	A	N	N	B	A	B	M	A	8	0	shapes	M	4	False	61	(-3.6923019052255652, -4.9866859662681033)	(-5.1616412650372077, 5.9969194045176977)	(0.79574390155204355, 0.36456390772680436)	(6.3678240232447205, 7.2109163748596057)	1.0	slash	0.830002
6	N	A	M	N					A	4	0	shapes	N	4	False	61	(-7.2834211218427125, -5.1331923163312894)	(8.1229398151541474, -1.3664001532907539)	(1.5337267753324948, 2.8797703461634026)	(-0.45808817515350775, 6.4211821697146476)	1.0	slash	0.703466
7	N	B	N	B					M	4	1	shapes	B	4	False	61	(5.2338088785492598, 2.1564444688209701)	(-0.96795891975790305, 5.5452755599938168)	(-1.9088773451358882, -0.081077080602453222)	(8.1278377847107919, -1.2311869844282173)	1.0	slash	0.692548
8	N	A	M	N					M	4	3	shapes	N	4	False	61	(0.1550050735433075, 6.6888410811843695)	(2.700239156532156, -6.0096100999583548)	(-4.9813790256233226, 7.7380820208592525)	(-8.5376341777933735, -6.3245016304868589)	1.0	z	0.708843
9	M	A	B	B	N	M	A	N	B	8	2	shapes	B	4	True	61	(-3.8446092498258206, 3.6398549846296415)	(-7.8807149876809355, -7.9210441163289271)	(4.4104682518768481, 3.3224901217317964)	(-3.07114472071276, 8.0282668446004024)	1.0	slash	0.58644
10	M	A	N	N					N	4	3	shapes	N	4	True	61	(6.7112959314131935, 5.6220596969051595)	(0.34603551348602757, -8.4079382565324909)	(-6.5940586697220605, 5.4476483018874298)	(-8.6204263245873989, -7.9914013844374407)	1.0	z	0.910459
11	M	B	N	A	N	M	B	A	A	8	1	shapes	B	4	False	61	(-0.77330957439505621, -8.7361801782027424)	(8.5863573368121209, -6.2557506618863936)	(-5.9088867927698061, -8.7106456634064759)	(2.3357939327524999, 7.3247752127254699)	1.0	slash	0.9134
12	N	A	B	N	M	A	M	B	B	8	7	shapes	B	4	True	61	(5.2221902275680883, 2.3289424122940918)	(-1.7079330204408478, -0.84972688311998912)	(-7.2912004288842738, -1.9325618830975255)	(-6.0463382235502241, 7.2628118237835615)	1.0	z	1.30088
13	N	B	A	A	M	N	B	M	N	8	1	shapes	B	4	False	61	(2.5791060895025328, 5.4716225776905727)	(6.9689854673431952, -1.9039696848390584)	(-1.7427267515711424, -0.95576274423894336)	(7.078452854485862, 2.9924155518408568)	1.0	slash	0.739569
14	M	B	N	B					B	4	0	shapes	M	4	False	61	(-5.8768278307741042, 5.8344218001790491)	(3.8621005935474084, -5.2676515441164486)	(-2.5021926628682492, -5.8078126071582528)	(3.6734570751628794, 3.3562654213293861)	1.0	slash	0.592828
15	M	A	B	N	N	A	M	B	N	8	7	shapes	B	4	False	61	(-2.1509498633064279, 5.1546447584656185)	(5.7841545685945945, -4.2825654905559789)	(-8.3513974703840663, -7.9880168073654536)	(-7.4661699323772766, 3.3160389534119528)	1.0	slash	0.771862
16	M	B	N	M					A	4	2	shapes	N	4	False	61	(7.6993951080533733, -4.9366407756318713)	(-6.281157231751008, -1.6264953905484099)	(8.5550912316033596, 7.9833433292473046)	(-0.99410978770288949, 6.3650090508794435)	1.0	slash	0.644017
17	M	A	B	N	M	B	N	A	B	8	2	shapes	B	4	True	61	(6.2986399879740755, 0.88639964002626037)	(-5.1972486220893312, 4.4892451815215839)	(-3.1330824166002467, -0.44574810976939183)	(-1.8964011413806618, 7.0000225971982335)	1.0	slash	2.05491
18	M	B	B	M					M	4	0	shapes	M	4	True	61	(6.8655060641869987, -4.9058952780570051)	(-2.7202458932261573, 4.9248139125651882)	(1.4934075077801481, 3.3258027796040643)	(-6.892957496898223, -8.3127138815233792)	1.0	z	0.629232
19	N	A	N	B	A	B	M	M	M	8	7	shapes	M	4	True	61	(7.5786312501581925, 3.2930611947506865)	(-4.835602002158768, -8.1313826213446543)	(-8.7104738005024078, 0.20606310891344215)	(1.2516869979534153, -5.6214522694683451)	1.0	z	0.738213
20	N	A	N	B					A	4	2	shapes	N	4	False	61	(-0.85826257493039826, 0.16300791333495823)	(-3.2220265061582056, -4.2283131116638204)	(5.0470193630888023, -3.9446393739168215)	(5.0516600235220981, 1.5057714843475214)	1.0	slash	0.792115
21	N	B	B	A					A	4	3	shapes	A	4	True	61	(8.1674760677147162, -5.3722278059864825)	(-3.0611848651147477, -2.2257933135406844)	(5.9426749612599927, 5.1570143522650831)	(-7.2741286419551319, 1.7967149884508213)	1.0	z	0.724266
22	N	A	B	B					B	4	3	shapes	B	4	True	61	(2.898087037355884, 1.5282657203397036)	(5.0183102023561901, -7.4450674954782095)	(-3.1290150493547264, -8.3773448391675824)	(-2.7248892650816039, 6.5672940654942487)	1.0	z	0.555819
23	N	B	B	M					B	4	2	shapes	B	4	True	61	(6.085830856544602, 4.2196161675813464)	(-3.6548201223920103, 1.3422072047440565)	(0.35712895484902951, -6.5356249054928846)	(-7.2439194296906475, -6.9891319909622212)	1.0	z	0.887464
24	N	B	M	M	A	A	B	N	M	8	3	shapes	M	4	True	61	(-4.5972275623038046, 2.1770228381657208)	(2.6850752051492783, -7.8945962386289175)	(-1.6434831911444689, -7.7276295955574366)	(-0.35112756047602467, 1.0816545027962707)	1.0	slash	0.600388
25	M	A	B	B	M	A	N	N	N	8	6	shapes	N	4	True	61	(-0.066982100628115049, 1.1964328295111528)	(-0.16516011123841068, -3.1788400920320772)	(-7.8303326114130147, -6.2860135426106964)	(-4.0851035518567267, 4.4520686877903)	1.0	z	1.10731
26	M	B	B	M	A	N	A	N	M	8	6	shapes	A	4	False	61	(4.4621965622614788, 2.0625724271655184)	(-5.3854659026170459, -2.8709243011746226)	(5.9559810666324324, -1.950470322869359)	(6.5346079440127856, 7.8241506327313814)	1.0	slash	1.88592
27	M	A	M	A	B	B	N	N	B	8	7	shapes	N	4	False	61	(-7.1121359169755607, -1.4892064843809232)	(0.60897741992252286, -5.6658976529112017)	(5.2867994828125795, 6.9487073038536984)	(-7.8766810108517262, 5.1274232024462716)	1.0	slash	0.696942
28	M	A	B	M					B	4	2	shapes	B	4	True	61	(-7.4091345983418737, 3.1244580673271738)	(8.289539346157266, 5.3414843439351838)	(-7.8623390570881879, -1.5015165317162005)	(2.420054553950024, -7.2135099172793442)	1.0	z	0.733778
29	M	B	M	N	B	N	A	A	M	8	4	shapes	B	4	False	61	(-2.0544134143246424, 8.2005223219506185)	(-1.4418379613974688, 1.9685840983960627)	(-1.1420092564074169, -2.2144646445424012)	(0.36392670338493716, -6.0834349907492431)	1.0	slash	0.709558
30	M	B	B	M					M	4	3	shapes	M	4	True	61	(2.2152280114388336, -2.4755910144400275)	(-5.3554541407029967, 8.3145356620369242)	(1.7085019853943351, 5.9307299209635396)	(-2.4072757017257835, -5.052108853455902)	1.0	z	0.694997
31	N	A	A	N	B	B	M	M	A	8	7	shapes	M	4	False	61	(-0.25088981733368776, -1.3640750412602118)	(-4.6266567812974984, -8.3514172902380004)	(6.6413963836398615, -1.2993591785530141)	(0.98151987604502899, 4.4154942713883916)	1.0	z	1.63049
32	M	A	M	N					M	4	0	shapes	M	4	True	61	(-0.76578225216670148, 0.51683736270202019)	(-5.3107984709599521, -5.284954581004806)	(5.5794579082731062, -7.2989022102463519)	(7.4483754745875608, 7.2512042383734645)	1.0	z	0.722215
1	M	B	N	B	N	A	M	A	N	8	4	shapes	N	5	True	61	(-5.8070900201011764, 1.3037546007114855)	(1.5251192835143819, 7.6779462223844028)	(-4.1227348579547565, 7.3027607589577173)	(-8.4338274551899062, -3.1284120532592503)	1.0	slash	0.763293
2	N	A	N	M					N	4	1	shapes	A	5	False	61	(-4.4890816668770892, 8.3686678420264613)	(0.26964384395239271, -3.8422211828013761)	(-4.9075004563615341, -4.1915763362780654)	(0.84127963756082913, 4.615416515854859)	1.0	slash	1.00347
3	M	A	B	B	N	A	M	N	A	8	1	shapes	A	5	True	61	(7.1495365657878374, -1.7936285443152027)	(-8.0792597504428443, 0.047324293964740249)	(-0.28883060369723701, 5.8961639248768325)	(3.591108287090373, -5.4856696754112466)	1.0	z	0.684603
4	M	A	M	B					B	4	3	shapes	B	5	True	61	(-5.1192406695546406, -3.336304244717291)	(-5.0167148169275144, 1.4071450747417078)	(4.5039703102027673, -4.4421943033370423)	(2.8582249704150353, 8.0424635624638405)	1.0	z	0.620683
5	M	A	A	M					A	4	1	shapes	A	5	True	61	(-7.7544952415978177, -5.9321230736795929)	(5.2133312150894611, -1.215450523131544)	(-0.60220515451219825, 8.4823563576638996)	(1.5982587820663419, 1.5932775008654119)	1.0	z	0.642526
6	N	A	A	B	B	M	M	N	B	8	7	shapes	N	5	False	61	(1.3052822543937079, 2.2967049556546542)	(6.814852512184709, 1.2503030677427631)	(-5.0295990667231969, -4.2199979969778116)	(-1.6542763735082762, -7.1362145516410989)	1.0	slash	1.27581
7	M	B	N	M	A	A	B	N	B	8	1	shapes	B	5	True	61	(1.5141181322017125, -7.3535715767542129)	(5.9619277878978725, -5.083465572375875)	(-5.9021933676688159, 6.6706574363507585)	(7.9306875926264659, 8.5741504352642117)	1.0	z	0.679375
8	M	B	M	A	N	B	A	N	M	8	5	shapes	B	5	False	61	(6.754941528019561, 5.3978169482216121)	(-0.25103749604193837, 0.11618606321093949)	(1.3582955450485201, 8.1464195742086893)	(-8.419188288888229, -5.6196009787975321)	1.0	slash	0.87538
9	M	A	B	N					B	4	2	shapes	B	5	True	61	(-0.17165620417479843, -3.4152195260433968)	(4.2945262744933146, -6.4156282698980291)	(-1.9917216251877461, 2.3367151074931929)	(3.4366636066943883, 1.5008581831312977)	1.0	z	0.861181
10	M	B	A	N	A	B	M	N	N	8	7	shapes	N	5	True	61	(6.3471123813295343, 4.7193245123607852)	(5.7266872874509609, -0.93539227286615212)	(6.9771966544649437, -5.2954627375038807)	(-4.5537008297396611, 2.6352640516179413)	1.0	slash	0.690247
11	M	B	N	M					M	4	0	shapes	M	5	True	61	(-0.92404463203881004, -5.5282216062066416)	(1.9929201371166645, -2.1414675402986747)	(6.7101560917908518, 7.7267963026713993)	(-3.9838278422912232, 3.9630296319414828)	1.0	z	0.832467
12	M	B	B	N					M	4	1	shapes	B	5	False	61	(-1.2384893242255304, -4.6914924533464921)	(3.1273223059988737, -6.9706793263461702)	(-4.0577135060467491, 8.2234755219821878)	(8.3521060825219102, 6.930986092583888)	1.0	slash	0.6979
13	N	A	N	A					A	4	1	shapes	A	5	True	61	(0.83382606133187487, -3.0211820800873488)	(-5.8681065811229391, 7.0275655835908761)	(2.7645688804657755, 1.0303428078255745)	(-7.1260306835324361, -4.8572561317868903)	1.0	z	0.695897
14	N	B	B	A	A	N	M	M	N	8	5	shapes	N	5	True	61	(5.5109592779902972, -5.8306177806795709)	(4.905333285998644, 3.1217819777254316)	(3.2814043933253796, 6.823598356605693)	(-3.85926315373408, 6.0821275808706154)	1.0	z	1.04669
15	N	B	N	A	B	M	A	M	M	8	5	shapes	M	5	True	61	(8.4732956090726326, -4.1895475176213424)	(0.17309315976927131, 7.6658942195925235)	(-3.6500490582368759, -3.8652212319613968)	(-7.2953934064210699, 6.951907287626371)	1.0	slash	0.694598
16	N	B	N	A					N	4	2	shapes	N	5	True	61	(-1.0185260472717061, -7.5214776255948728)	(2.4574328632239908, 3.8126512623452911)	(-7.2470823528886115, 2.3999040713287769)	(4.8346505590201012, -1.1400134373157975)	1.0	z	0.916754
17	M	A	N	M	B	B	A	N	B	8	5	shapes	B	5	True	61	(-6.032444715624969, -8.477445842355726)	(6.0446601626880323, -5.2932672676343309)	(-7.212223504875098, -2.8034660073142268)	(2.9952518082205692, -1.8857485783872434)	1.0	z	1.67992
18	M	B	A	A	N	B	M	N	N	8	5	shapes	B	5	False	61	(-4.5402151864144189, 6.9299292759438842)	(-1.437682220600415, 0.10244539265443997)	(8.6330691316212693, 5.8264457724172125)	(-6.3318626369660933, -7.8265401391354086)	1.0	slash	0.651904
19	N	B	N	M					N	4	3	shapes	M	5	False	61	(1.0198231505392918, 6.8442664667247737)	(-4.0734786574484492, 4.1069335290526059)	(-8.7075789544694651, -6.3530560913906964)	(8.3302314978770653, -6.7687581548894054)	1.0	slash	0.785114
20	N	A	B	B					B	4	3	shapes	B	5	True	61	(4.1446901846372644, -5.8154299174536508)	(0.69582590248957565, 8.026752036862586)	(-2.7685153765759276, -7.9987697558754354)	(-3.4107553490543339, 6.0466184137051435)	1.0	z	0.87127
21	M	B	N	M					N	4	3	shapes	M	5	False	61	(-3.9798909192976444, -2.545756306486707)	(0.51236179310102159, 2.1702139841986039)	(-8.3183185745672148, 7.9466565036834247)	(1.2091633277835765, -7.1356905851447809)	1.0	z	0.842957
22	M	B	B	M	N	N	A	A	B	8	6	shapes	A	5	False	61	(3.6722651996659863, -7.7555914631303349)	(-7.400226995861436, -5.4208876157009076)	(-2.9814493550573555, 5.0564322715326924)	(-6.8694617616803768, 1.280441544967335)	1.0	slash	1.188
23	M	A	M	A					M	4	2	shapes	M	5	True	61	(8.5696084085054665, 4.7490245169225833)	(-2.3478290916701798, -8.1044705646074977)	(-6.7578955547670416, 2.2172834042941041)	(8.3857099305819354, -4.3158869106384348)	1.0	z	0.806192
24	N	B	N	A	M	M	A	B	N	8	1	shapes	B	5	False	61	(5.0767471593827889, 4.5365429516498494)	(-2.0266730385865968, -1.8419958572009616)	(-6.4141158022396105, 1.9639250648152888)	(4.6930449623893473, -1.0812033188242465)	1.0	slash	0.623421
25	M	B	A	N					A	4	0	shapes	M	5	False	61	(-2.3322510973936748, 8.043834198752883)	(8.0553336801892286, 8.3498882170013182)	(3.8541021215542379, -8.4706031833528357)	(-1.014337256961384, -6.4715464544797738)	1.0	slash	0.771369
26	N	A	A	N	M	M	B	B	B	8	2	shapes	A	5	False	61	(-8.1409104980995171, 1.2251632068241243)	(5.491687756848588, -6.9838280309405167)	(-1.6128382922372477, 7.0806184389756641)	(-0.89424407746440338, -3.8742940447105356)	1.0	z	0.869024
27	N	B	A	M					B	4	3	shapes	M	5	False	61	(2.1824883040315672, -5.0830537991877813)	(1.8281217535370011, 7.5442633362040326)	(-4.7186947201634446, -2.1977159889954061)	(-3.8272973359218216, 7.7390964955376091)	1.0	slash	0.494763
28	N	B	N	B	M	A	M	A	B	8	6	shapes	M	5	False	61	(0.71751661030760694, 8.0009703228436386)	(-3.7739651659182973, -2.2652432809867715)	(1.2234447418350758, -6.7021556152404553)	(6.2715235647754461, 1.9939127770837111)	1.0	slash	0.646603
29	M	B	N	N	A	M	B	A	B	8	6	shapes	B	5	True	61	(4.098275635047619, 0.57244707725799415)	(-8.0692925350258431, -1.1217385587119679)	(-1.2702680174414498, -1.622419138690125)	(7.7262265396814982, -1.716588750356455)	1.0	slash	0.999576
30	N	B	A	N					B	4	3	shapes	N	5	False	61	(-3.3297424533097928, -7.1547551238204159)	(-3.9544295808553036, 0.85788560768848754)	(2.9864799424365547, -5.3870085402336088)	(8.5853019551619383, 7.9312312697907643)	1.0	slash	0.553274
31	M	A	M	N					A	4	0	shapes	M	5	False	61	(8.7004875860895865, 5.1028986820923006)	(6.2420466651107152, -2.1233079076632153)	(-2.5410774679357493, -8.554052151562713)	(-0.0056434494324424378, 7.8154453281432161)	1.0	slash	0.515478
32	N	A	B	M	M	N	B	A	B	8	1	shapes	A	5	False	61	(7.4251978145567215, 0.94408379255301789)	(-4.9924310179584115, 5.9463234318910736)	(-0.78924186510345518, -7.3313928740861964)	(3.4158002332039814, -3.6783595948731218)	1.0	z	1.0026
1	M	B	A	M					B	4	0	shapes	M	6	False	61	(-4.7249364380660985, -4.5957172136479336)	(-2.3029951411646694, 4.0881467800431732)	(4.2909314791907356, -4.6408864558054059)	(3.298576220025371, 1.1127248332753314)	1.0	slash	0.734798
2	N	B	A	N					N	4	0	shapes	N	6	True	61	(5.7132357861283278, -8.4961411439475256)	(8.2489011288012151, 3.1065208123741144)	(-7.426030924075981, 5.3611770757556876)	(-3.3783837188022918, -5.8442778257219388)	1.0	z	1.26046
3	M	A	B	A	M	B	N	N	B	8	2	shapes	B	6	True	61	(-1.6690598637371368, 6.6409064731229339)	(-0.06834329553685059, 1.8221058686645542)	(-8.0940139217707561, -1.7579146775477295)	(5.045316396927598, -6.2378875521888091)	1.0	slash	1.21758
4	M	A	B	N					M	4	2	shapes	B	6	False	61	(8.4644853765656336, -2.8546632795027023)	(-0.25613173913917642, -4.482987589806668)	(5.2183426225577136, 4.4276406253408922)	(-8.7023230009505017, 0.90734306530676356)	1.0	slash	0.549186
5	N	B	N	B					B	4	1	shapes	B	6	True	61	(4.6901352184814975, 6.4159004324000808)	(5.5024492610771532, -3.8128367607106899)	(-6.8072940235791979, -3.8825023286819533)	(-0.76064066850368306, 3.2028103467306224)	1.0	z	0.639165
6	N	A	A	B	B	N	M	M	B	8	0	shapes	N	6	False	61	(4.2151329683649124, -3.2619458774279355)	(0.31843719562227868, 4.2914733989468061)	(-5.1471832275681324, 4.764589267108267)	(6.6477788920580352, 6.2730724134999143)	1.0	slash	0.68022
7	M	B	A	B					A	4	2	shapes	A	6	True	61	(-2.4754152550194757, -7.3677585420968139)	(-4.6273197876575214, 1.5857630350652201)	(7.6925850403068274, 7.1713242500415113)	(1.3294446010588548, -4.5656166099445334)	1.0	z	0.656636
8	M	A	B	M					M	4	0	shapes	M	6	True	61	(0.093884755282438448, -4.2246740300745005)	(3.8533309786389545, 0.63734793278054802)	(-4.3040114174327151, 3.791501413549728)	(-4.1319586366903183, -3.4943518452950286)	1.0	z	0.68621
9	M	B	B	M	A	N	N	A	B	8	1	shapes	B	6	True	61	(1.6883893959276079, 7.8662376818569193)	(6.9080919168647998, -0.52756507215417514)	(7.5676050060081863, -7.9789993610992926)	(-8.7371033218121763, 7.8625345966692386)	1.0	slash	0.567679
10	N	B	N	B					N	4	2	shapes	N	6	True	61	(-8.5340792365169449, -0.7244845813403451)	(0.44470865383509839, -3.4510602741947309)	(-8.4465180891972125, 7.0186818478390265)	(8.3867834649333624, 1.9201206393622225)	1.0	z	0.88593
11	N	B	B	N					N	4	2	shapes	B	6	False	61	(1.8697838405806166, 3.2381948085360932)	(-3.7237992235722395, -3.2541384189549154)	(4.2184780143252851, -2.4925544131988433)	(-7.1714237098554605, 1.0289235478603835)	1.0	slash	0.703459
12	M	B	M	A	A	B	N	N	A	8	6	shapes	N	6	False	61	(-2.4871092421155332, 8.6303772239424212)	(2.741620848295506, -0.8135932360174607)	(7.9927136297015871, 6.3887695890647898)	(7.7006601042036458, -3.3301304843073485)	1.0	slash	1.55648
13	M	A	N	N					M	4	1	shapes	A	6	False	61	(-3.6729568660533785, 6.2229574583981808)	(2.1606938126075121, -0.51646956557657298)	(5.2499406491233973, 2.6593679257920417)	(-2.620697025746626, -8.0733740844237794)	1.0	slash	0.518743
14	M	B	M	N	N	A	B	A	A	8	7	shapes	A	6	True	61	(-7.5502193185233066, -3.4553725738549463)	(-4.6081006618390168, 3.2977540902439628)	(8.3545353426216593, -4.7131399126305125)	(3.4734047697536194, 5.156561986385281)	1.0	slash	0.745672
15	N	B	B	A	A	M	M	N	N	8	7	shapes	N	6	True	61	(0.38109508092175126, 3.2549122516407891)	(-4.8802273908384501, -6.2901501772099184)	(-0.16694171308007988, -8.5946218439970661)	(4.9375604048923645, -3.8929924418464283)	1.0	slash	0.759594
16	M	B	B	N					M	4	1	shapes	B	6	False	61	(-7.7214014044663468, 8.0898047844146284)	(-6.2035026385467074, -6.308609981422352)	(3.067797532073282, 2.8582917797405081)	(7.6104063282187795, -2.9676508295127277)	1.0	slash	0.679594
17	N	A	A	N	M	M	B	B	M	8	2	shapes	A	6	False	61	(-1.7530058021137274, -1.9240533739635373)	(6.7215566266950013, -0.72533225199583029)	(-0.42662626305222773, 7.3694236772960764)	(1.8466057639634545, -6.9730407987729279)	1.0	slash	0.826568
18	M	B	A	M	A	B	N	N	M	8	0	shapes	M	6	True	61	(-6.2770061776099189, -3.6900126864715217)	(-3.8726103730483956, 7.7761854529371774)	(7.6544337883555187, 0.46237394007257038)	(5.942768568531255, -8.0950831850591669)	1.0	z	1.05457
19	N	B	N	B					A	4	0	shapes	N	6	False	61	(-1.0505738201226427, -3.3491375885808123)	(-3.3161997730099539, 0.39421580598809847)	(5.5085453304413345, -1.244262118181636)	(5.7779778177323493, 3.3979918479447804)	1.0	slash	0.606417
20	M	A	N	B	M	A	B	N	B	8	2	shapes	N	6	False	61	(7.5395288171559329, 3.7056136571199438)	(-0.01135253623320942, -6.2520692580413995)	(4.1810458961584906, 6.7942464766023996)	(-3.4352345942188878, -0.036867545766389398)	1.0	slash	0.919773
21	N	A	M	A					M	4	2	shapes	M	6	True	61	(1.379655000481943, 0.090710724249980501)	(-6.1201886213510823, -7.3387732998919404)	(-1.8395017510338016, 7.646133326058564)	(2.6692666813990122, -7.0456622609806416)	1.0	z	0.60781
22	N	A	M	B	A	M	N	B	M	8	7	shapes	B	6	False	61	(-2.2908249373458425, -7.7147614645384586)	(8.5656721352411296, 4.2348520771765852)	(7.9988318993948937, -3.8561737764507829)	(-1.6002981671586047, 1.4012946695580393)	1.0	slash	0.752908
23	N	A	A	N	B	M	M	B	A	8	1	shapes	A	6	True	61	(3.0755467860677292, 6.7039657179541905)	(-5.4879071848332739, 6.4273277108141791)	(5.2811164237335273, -0.14307849426957908)	(-5.9395715308802126, 1.0751947043675703)	1.0	z	0.830373
24	N	B	M	N	M	B	A	A	A	8	0	shapes	N	6	False	61	(-2.2821148606708341, -2.6231308541715341)	(5.3416635759281803, 0.6726902211575112)	(-3.7201916645389197, 6.4132680317657123)	(-5.8214479030593491, 2.4437464185324522)	1.0	slash	0.69048
25	M	B	M	A					M	4	2	shapes	M	6	True	61	(7.1967010376239866, 7.6928915507715239)	(4.3926488639277235, -4.8431907311075815)	(-2.5284219131971204, -6.7477963061645188)	(-7.2244854860296046, 5.4825980864327928)	1.0	z	0.641885
26	M	A	B	N	N	A	M	B	B	8	2	shapes	B	6	True	61	(3.8494490228446807, -0.35916897174090501)	(-5.5319263670614554, 1.6720070313875333)	(-7.8923481082445441, 5.2564139741896039)	(-7.5860208999474299, -6.7344271150511661)	1.0	z	1.01972
27	M	B	B	M	A	N	N	A	N	8	0	shapes	M	6	False	61	(-3.4622586086122604, 3.19147396212065)	(2.7304796000688114, 6.2288608379180701)	(-7.5816545269345115, -5.3261192583271324)	(4.8847132614162803, -3.0040925467223651)	1.0	slash	0.923951
28	N	B	M	M					A	4	2	shapes	M	6	False	61	(7.074096676537696, -5.9248955448033147)	(2.230995168141769, 1.4756954837474847)	(-3.5856651695459441, 3.7746344683682)	(-0.20619249230046321, -6.7112910665312171)	1.0	slash	0.636956
29	N	A	N	M	A	M	B	B	A	8	1	shapes	A	6	True	61	(0.36303894712301066, 4.0930208052156924)	(3.8481809613858484, -8.5208669731185793)	(-7.8839987251071859, -2.7363939338912306)	(-7.2006845510068542, 4.523903402531797)	1.0	z	1.49895
30	M	B	M	A	A	B	N	N	N	8	2	shapes	M	6	False	61	(-8.5461162796320114, -5.8702285585534728)	(3.2553403083578214, -8.3220003341800837)	(2.4267017813712304, 0.84160938507558924)	(-8.3045779611025132, 6.6956547705281597)	1.0	slash	0.560316
31	N	A	N	M					B	4	3	shapes	M	6	False	61	(-8.2076347882178684, -2.341556406984096)	(-8.7369242253100001, 2.9662926532624994)	(8.0785771974360152, -3.4575762549999576)	(5.0585416619495227, 1.2505513828841384)	1.0	slash	0.698464
32	N	A	B	B					B	4	3	shapes	B	6	True	61	(-4.427389948844394, 1.0044727716653501)	(5.4668856230854281, 0.19088460153603215)	(-8.3319195392624525, -4.8556578775640915)	(6.0436457353588899, -5.4093294182661351)	1.0	z	0.718319
1	M	B	B	A					A	4	3	shapes	A	7	True	61	(8.6674819500802975, -8.2818801021107635)	(-0.99934124646691735, -3.5110962539418109)	(-7.6417809337569897, 6.5783963606363312)	(6.9161503006857199, 2.7247488263164108)	1.0	z	0.951097
2	M	A	A	M	N	N	B	B	B	8	6	shapes	B	7	True	61	(4.7058868168474426, -3.2654529656750793)	(-7.3554286022445794, 4.9663647898541896)	(-1.8011696287011141, 6.4653573546402878)	(2.4459542824608143, 1.2988724796557776)	1.0	z	0.889439
3	M	B	N	B					M	4	2	shapes	N	7	False	61	(0.91111564539394507, -5.3425768844703114)	(-8.6246551920779346, -8.2132452791948847)	(7.9262720645980664, 5.0266370340568045)	(-7.0920841540033166, 2.2622421165559032)	1.0	slash	0.616565
4	M	A	A	N	B	M	N	B	B	8	2	shapes	A	7	False	61	(5.1586786853293081, -2.6135973226207359)	(2.4136441984020554, 3.4981718950680527)	(-1.8867798328080401, -1.9509921187946659)	(-4.4576256816267232, 7.977509651746395)	1.0	z	1.32799
5	N	A	M	B	B	A	M	N	N	8	4	shapes	B	7	False	61	(-8.0923029717415602, -0.75523502820578603)	(4.3852407631128045, 7.9330733740908066)	(1.7382034189204596, 2.6054544471211578)	(6.5353914784958658, -3.8519069051200638)	1.0	slash	0.600278
6	M	A	N	M					A	4	3	shapes	M	7	False	61	(3.5060218378342434, 5.3101038752557024)	(-5.0555200313588431, -6.1834152145827117)	(1.220524766749536, -3.5086759422870077)	(-4.2958242473270234, 7.2494535073156534)	1.0	slash	1.28201
7	M	B	M	A	A	B	N	N	M	8	0	shapes	M	7	True	61	(3.3986014228009935, 7.2817906511632486)	(3.5579084687283071, -0.93103600948478515)	(8.2508106376441575, -7.5215853101532639)	(-5.9010253685570024, 5.075587491784459)	1.0	z	0.70562
8	M	A	A	B					A	4	2	shapes	A	7	True	61	(-8.5574191684766507, 4.1959554393838765)	(1.8087880255652866, -4.3108945775273515)	(6.9792157479193104, 1.4278959499148911)	(-6.2971807264984374, -5.620267165498646)	1.0	z	0.693858
9	M	A	N	N					A	4	2	shapes	N	7	False	61	(-1.570580186558697, 1.4317636418134949)	(0.6932053557680895, -8.3017155905735098)	(-8.6822739232879105, -1.7901247735806152)	(4.6528261721626247, 7.9062957560352665)	1.0	slash	0.970833
10	N	A	A	M					A	4	2	shapes	A	7	True	61	(-0.046678837720911304, 5.3874677876669743)	(6.3212449055045585, -2.8923754508982888)	(6.3348115525642115, 6.6389283474839402)	(-5.9949226626242336, -7.6032888819171838)	1.0	z	0.482375
11	N	A	N	A	M	M	B	B	M	8	1	shapes	A	7	False	61	(0.84278970947524101, -4.119949529824706)	(4.8758680235296961, -7.960679022058776)	(-1.9703811492582597, 2.5643305634896407)	(7.6824583472030774, 8.4858096449876825)	1.0	slash	1.12371
12	M	B	B	M					B	4	3	shapes	M	7	False	61	(-6.8401234540475064, 5.450899666747322)	(-0.62832634519226183, -2.9505780550492737)	(2.3934362731208161, 0.87233359611134631)	(3.0826388211664479, -4.5491830901584045)	1.0	slash	0.637783
13	N	A	B	A	M	N	M	B	B	8	2	shapes	B	7	True	61	(-6.0716008380230715, 3.2311386508269795)	(-4.370569814818186, -4.4191548570005326)	(-8.3548763256207454, -0.91132257454559173)	(1.0825324592147787, -6.2216173232176066)	1.0	slash	1.54327
14	N	A	B	A	N	M	B	M	B	8	7	shapes	M	7	False	61	(0.94086891443869547, -2.9396139138694641)	(-6.4578136722239723, 4.4220402659999891)	(7.1998556246699703, 3.2387389144611589)	(1.2533880948751861, 7.3311183264553854)	1.0	slash	0.684592
15	N	B	N	M					N	4	2	shapes	N	7	True	61	(3.5173555384718931, 6.0738469774845214)	(1.9648015358068811, -1.7488842847888559)	(-3.9220189446389808, 7.4994381290622272)	(-4.4328294154266601, -4.2299214842826753)	1.0	z	1.50058
16	N	A	M	N					M	4	0	shapes	N	7	False	61	(0.42112534557765713, -4.65096406368089)	(7.0320027358269304, 4.95044587216106)	(-0.83160269155088162, 8.0674200942803616)	(-1.8222785701770938, -8.1384495993754236)	1.0	slash	0.698477
17	M	B	N	B	M	N	A	A	M	8	0	shapes	M	7	True	61	(3.0926996619616354, -3.3014056031279591)	(7.0750675489878354, -8.0907548048399534)	(-5.8286008091058887, -2.3546462576313383)	(-1.3657557335187605, -7.0080037414677774)	1.0	z	1.31352
18	M	A	M	N	A	N	B	B	B	8	1	shapes	A	7	False	61	(-4.1965136404272059, -0.31641579220514693)	(1.3857916072143723, 8.0014603250311715)	(-3.2700264459149251, 3.7709394136565351)	(-4.9519918834921821, 8.1882474023465157)	1.0	slash	0.779044
19	N	B	B	M	A	N	A	M	M	8	3	shapes	M	7	True	61	(-8.0405694771913669, -8.392903513200956)	(-1.3720157111086699, 0.63159132221590575)	(-4.0398226131412756, -4.9243945194706509)	(-7.3593127523822872, 6.2707341982335727)	1.0	slash	2.01253
20	N	B	B	N	A	A	M	M	N	8	5	shapes	A	7	False	61	(6.8376772024658869, 3.9849747895409369)	(-5.3534047584947704, -4.9436821980779104)	(0.15621968917648843, -2.2999683615789905)	(0.0044114567458155562, 2.7970991740915121)	1.0	slash	0.570401
21	M	A	A	M					M	4	0	shapes	M	7	True	61	(4.7994321213140267, 2.4415932306319288)	(-5.8519660823912307, -6.3405026038459766)	(7.9345976364107926, -6.2598486730818994)	(-1.6141805143753443, 1.5205470615446774)	1.0	z	0.688475
22	M	B	B	A					A	4	1	shapes	B	7	False	61	(4.0129840660257639, -8.7052757873936546)	(-7.3376503062659104, 8.2020658504388351)	(2.3120855653225547, 5.2630528419955454)	(-7.4391323205757462, -6.7093573182153552)	1.0	slash	0.608117
23	N	A	B	A					A	4	2	shapes	B	7	False	61	(-3.2795799607267293, -5.0234129141978787)	(4.6050679967974251, -5.8575385240670474)	(5.8641723510557497, 2.4589824110310285)	(-7.8036947083790782, 5.3800913175562552)	1.0	slash	0.695142
24	N	B	N	B					B	4	3	shapes	B	7	True	61	(4.4730180025899209, 5.8453383950738296)	(-4.5279308408517416, 3.9950448238328775)	(0.91914897458410572, -2.9938499133196297)	(-7.6357229587699758, -2.9612518582199705)	1.0	z	0.80574
25	N	A	A	M					N	4	0	shapes	N	7	True	61	(2.2216762895011311, -5.4866705627691807)	(-7.641068226484367, 3.1228338163648779)	(1.1020393353629654, 0.43437965218942409)	(-8.5375077739267624, -6.6186887019101963)	1.0	z	0.934689
26	M	B	B	A					N	4	0	shapes	M	7	False	61	(-0.4645579231420971, -5.0187731202712662)	(-0.92626176452054043, 6.8748770764525791)	(5.3127826870055017, 2.3480764057147674)	(4.9563786980826166, -8.3114735919006542)	1.0	slash	0.996608
27	M	A	A	B					A	4	1	shapes	A	7	True	61	(5.4689664446775197, 2.8417295289559181)	(-5.0381222804381336, 0.14219535947510487)	(-3.5506578871011101, -3.5711755883368026)	(8.7452583911288038, -1.7186639663494958)	1.0	z	0.65263
28	N	B	N	A	M	B	M	A	B	8	6	shapes	M	7	False	61	(7.1073937597576275, 4.496465172217631)	(-1.2878706994596687, 3.0500483885152079)	(5.5659170287159174, -3.9322073080680786)	(-8.7341548499575801, 5.0490837931152015)	1.0	slash	0.95613
29	M	B	M	A	A	N	N	B	M	8	2	shapes	M	7	True	61	(4.5582805445348509, 7.6604380522089066)	(2.2582934661681335, -8.1153533212627202)	(-2.9903950373989217, 5.528494784575642)	(-2.7903507980255577, 0.92007850375442679)	1.0	z	0.69394
30	M	B	B	A	A	M	N	N	M	8	0	shapes	M	7	True	61	(7.5827746316650106, 7.5111197043845586)	(-2.7085075790598374, 6.516218710355929)	(-5.4500034032997267, 3.5045586779106515)	(0.79567252352803841, -0.55168827644665797)	1.0	z	0.763431
31	N	A	A	B	B	M	N	M	N	8	2	shapes	A	7	False	61	(6.3135739010931147, 0.63846081111044839)	(2.0287555521420764, -0.92310904803799509)	(1.7811198811590199, 4.6586259201843312)	(-5.4836907848769219, -1.9983448114614166)	1.0	slash	0.603162
32	M	B	A	B	N	N	A	M	M	8	7	shapes	M	7	True	61	(4.9724298236804039, -4.3844819766742775)	(-8.2794911916754028, 1.5555431107144049)	(6.6655339176989408, 5.6648448843418588)	(-0.88931483541678258, -2.1616597152132746)	1.0	z	1.49068
1	M	B	B	N	N	M	A	A	B	8	4	shapes	N	8	False	61	(-8.6976997324333674, -6.6151330618835757)	(3.2231332510681501, -5.337771357764761)	(-4.9204323650263095, -7.9453599982228109)	(-2.0889365813213656, 3.0784838046262397)	1.0	slash	0.619779
2	M	A	M	A	B	N	N	B	N	8	0	shapes	M	8	False	61	(2.8438590162759656, -2.8386575890356198)	(2.8770066955381584, 7.8127507839403592)	(-4.5255091231969482, 1.6646731933987269)	(-2.669166833104117, 7.4198483085535045)	1.0	z	0.700123
3	M	B	N	A	M	N	B	A	M	8	5	shapes	N	8	False	61	(-6.5848737935191739, 3.2065564101522384)	(-0.80749504342567757, 6.944480665837208)	(4.1433472296012965, 3.3032984906980563)	(7.4146669894594304, 7.3598845331647524)	1.0	z	0.850757
4	N	A	N	M					N	4	2	shapes	N	8	True	61	(2.6760256008036567, 0.92770608130303245)	(-7.555484797392058, -1.7836134608442507)	(4.5623766886427006, -5.6684437459502535)	(-1.6896546845166824, 8.403007190620734)	1.0	z	0.715105
5	N	B	B	N	A	M	A	M	B	8	7	shapes	M	8	False	61	(-7.1675643176199353, 7.4471563131286054)	(0.8406661070896515, 7.6394709899355782)	(5.1374489173073989, -7.333281572659935)	(5.8168344361649051, -1.016010745548507)	1.0	slash	0.704167
6	M	A	M	A	N	N	B	B	B	8	6	shapes	B	8	True	61	(8.2282203078148477, 8.5318280612349398)	(-2.4630303504952913, 6.3965472933211469)	(3.8812713434098001, -6.4831938149905159)	(4.9845637048057476, 5.9531930589373214)	1.0	z	0.709947
7	N	A	M	A	M	N	B	B	N	8	0	shapes	N	8	True	61	(1.3710423976873276, -7.1829550798180115)	(3.3002162711891696, -0.092166176270609412)	(-3.5537911188518949, -4.9732542410645557)	(-3.7162258068270271, 6.6919649218829509)	1.0	slash	0.827814
8	N	A	B	B					N	4	3	shapes	B	8	False	61	(-5.0165577832608852, -3.4226488411812985)	(0.2526680653987512, -5.8731918053170755)	(-6.1163137408491286, 1.4178623811752313)	(5.0813502440434988, 2.0281381384450494)	1.0	slash	0.583924
9	M	A	M	B					A	4	2	shapes	M	8	False	61	(3.7540214594857613, -6.8473916295014501)	(0.52345658968313025, 1.4693809581751971)	(-4.5171493978424797, 8.5823621635254064)	(-2.7045117064626991, -1.2187866337604518)	1.0	slash	0.788961
10	M	B	B	M					M	4	3	shapes	M	8	True	61	(-4.8640888835587051, 3.7730784539102089)	(-1.4389931351126668, -5.5179545796209881)	(1.0221861488997099, 4.7654293936470875)	(4.0539091893326891, -5.9567042365542964)	1.0	z	0.687289
11	N	B	N	M					M	4	3	shapes	M	8	True	61	(-0.25780363085715585, 5.3721115008710179)	(8.3991967073146299, 3.95546418284823)	(7.3158970979225337, -5.2566700574651435)	(-2.9587817682043651, -4.2123826578118226)	1.0	slash	0.83228
12	M	B	N	M					M	4	0	shapes	M	8	True	61	(1.8286333018598775, 0.47255239623612155)	(4.2359325899903748, -6.7945541275566281)	(-2.7063627163248132, 5.4011673140290846)	(-1.0914157937366546, -6.7462323281128658)	1.0	z	0.634603
13	N	B	M	B					A	4	2	shapes	M	8	False	61	(4.674305621639725, 5.6251559812127372)	(2.1626624908985548, -0.43752302796829845)	(-7.5427154871625488, 7.9615094819073953)	(-1.5070540856552297, -5.2127755416827739)	1.0	slash	0.645545
14	N	B	B	M					N	4	0	shapes	N	8	True	61	(-2.4871607088118557, 5.3104333789863052)	(-0.51829386062828497, -7.0293351857791952)	(2.8466179493553998, -3.3081694523821668)	(6.1496784751804778, 6.0421570433214651)	1.0	z	0.983987
15	M	B	A	N					A	4	1	shapes	B	8	False	61	(1.7507959004751328, -1.761756040978554)	(-2.2705638042923377, -4.4640918228708255)	(6.1840650936636301, 5.8980785285012498)	(-6.6271105279282905, 3.5802138073639576)	1.0	slash	0.812941
16	M	A	A	N					A	4	0	shapes	M	8	False	61	(-0.90024188384251858, 0.43035159634427878)	(-1.7465427170743091, -4.1528013557267505)	(4.2770098726518135, 6.2858506629012325)	(4.4713113952248591, -4.7610332827184649)	1.0	slash	0.771169
17	N	B	A	B	M	M	N	A	A	8	7	shapes	A	8	True	61	(-2.6523495146827871, -7.2120173761485633)	(4.6523140452244238, 3.7845403769152721)	(-8.1931994415276233, -3.2349149851756396)	(-3.2443017432126311, 8.5540480250083917)	1.0	z	0.642921
18	M	A	A	B	B	N	N	M	M	8	7	shapes	M	8	True	61	(5.4892403749426233, -1.3441462797123727)	(-5.9272178022433675, -6.0679850847800516)	(6.7969069364694938, -5.6709403785346044)	(-2.3423899277711868, 3.2567842627964225)	1.0	slash	1.01866
19	M	B	B	A	N	N	A	M	M	8	0	shapes	M	8	True	61	(-6.9186769375612212, 2.1096279056710934)	(-2.1608978444844391, 0.52689763143772872)	(1.7624544722540438, -8.1174941767697693)	(6.7602776844084183, -5.1095361315406302)	1.0	slash	0.648274
20	M	B	M	B					B	4	3	shapes	B	8	True	61	(7.2167266959605296, -2.3870386160740891)	(3.9089227065717651, 4.5942028145739631)	(-4.2357922994320338, -5.4076420222255752)	(-5.9059662127712684, 3.954139060271773)	1.0	z	0.599849
21	M	A	N	A					B	4	1	shapes	A	8	False	61	(0.39101957091518003, -0.54594329237886718)	(-2.8100995356676526, 1.916123289148965)	(-7.6366363684362915, -1.9876038589032143)	(6.7831757237577417, 7.0903958061437056)	1.0	z	1.5614
22	N	A	B	M					A	4	1	shapes	A	8	True	61	(6.6233867682977614, -2.8675868807993359)	(-4.8489189071973007, -0.42575872542543713)	(2.336761016116947, 8.6422074363808115)	(-4.7763410579007051, 7.8717970373309605)	1.0	slash	0.776965
23	N	A	A	M	B	N	M	B	M	8	3	shapes	M	8	True	61	(6.4690812614998876, -6.5262068606844519)	(-8.3109097421912761, -2.9771447649215617)	(0.40379682261099603, 7.5697344893729159)	(8.2176228935702014, -1.980946681467489)	1.0	z	0.72102
24	N	A	N	A	M	M	B	B	B	8	6	shapes	B	8	True	61	(-3.1876440123357428, -2.5185535272568798)	(1.0557262102480394, -0.96161814127399836)	(7.5194845495259095, -7.2411492764007965)	(-7.4408592814780894, -5.3959947119277913)	1.0	z	0.745914
25	N	B	N	B	M	A	M	A	A	8	0	shapes	N	8	False	61	(-0.37709853132069604, 4.6794546788074403)	(5.5708917167562308, 4.9989718798051186)	(3.099894647097134, -2.7124830240656337)	(-4.9036637663839677, 7.1340194899613767)	1.0	slash	0.616286
26	M	B	M	B					A	4	0	shapes	M	8	False	61	(-4.006839085766094, 6.2815815158429906)	(-2.3668025399472983, -5.1345091966272012)	(3.858003942559062, 3.764909175418337)	(5.2270410548546522, -6.5601991172579179)	1.0	slash	0.511247
27	M	A	A	M					A	4	1	shapes	A	8	True	61	(5.3547852882032583, -7.7340396670933558)	(-1.8502540239308098, 1.7146182775124359)	(-1.8295706673787731, -5.525963923925314)	(8.0585738952050932, 0.68290315076379038)	1.0	z	0.635685
28	N	B	M	M	N	A	B	A	A	8	2	shapes	M	8	False	61	(4.694475424107976, 1.08772374840796)	(1.0447705078140537, -6.1245188023259747)	(-2.909055308729398, 4.3452566170317954)	(-5.5094813701369176, -1.4107237356773865)	1.0	slash	0.518696
29	M	A	B	A	M	B	N	N	M	8	4	shapes	M	8	True	61	(-1.9557696821078867, 4.8546037117999816)	(-6.9742004600151049, 7.4987724093413348)	(-4.1438362196868299, -3.0839055542202694)	(4.30411256291789, -5.8366209871082066)	1.0	slash	0.874174
30	N	B	A	M	N	M	B	A	B	8	5	shapes	M	8	False	61	(1.2451730786274666, -8.3979049885777233)	(-4.8120968407934903, -2.3910128563145809)	(0.24084677432329293, 7.3380882554171798)	(8.5176635580340054, 1.7221253054113017)	1.0	slash	0.629917
31	M	B	A	M	B	N	A	N	M	8	1	shapes	B	8	False	61	(-6.8502075880807372, -6.5010335661117207)	(2.3665689170599844, -3.7670170352980321)	(8.6283721922958563, -1.6809809956208692)	(-3.7133669144121475, 3.9181368065637923)	1.0	slash	0.57944
32	M	A	N	N					A	4	0	shapes	M	8	False	61	(-0.73632887346857068, -1.6886568377000506)	(6.863151996687991, -6.3217513300064914)	(4.5917478150098656, 6.1875704434814196)	(-1.5117122052210599, 4.4566140536966188)	1.0	slash	0.561216
