TrialNumber	stim0	stim1	stim2	stim3	stim4	stim5	stim6	stim7	stim.probe	ttl.stims	corr.num	trial.type	stim.corr	block	match	Subject	stim.pos0	stim.pos1	stim.pos2	stim.pos3	ran	resp	RT
1	N	A	N	B	M	M	B	A	M	8	5	shapes	M	Practice	True	62	(4.1530172143753852, 4.7573258033217876)	(-6.8931606185719474, 6.148437754344787)	(-1.0600713756559461, -6.7384094697398478)	(-3.5511391521197426, -1.6056609855885924)	1.0	slash	1.49902
2	M	A	A	N	N	B	B	M	N	8	4	shapes	N	Practice	True	62	(4.6381660828219697, -8.0399699378774105)	(2.8363807651501478, 5.7833979866556788)	(8.4579331009553727, 5.9786230760411954)	(-7.3724756210246341, 4.4004264841950871)	1.0	slash	1.14047
3	N	B	M	N	M	A	A	B	N	8	7	shapes	B	Practice	False	62	(-1.2946260112325403, -3.2859126534162169)	(2.6360567610497139, -0.019359188509193714)	(-7.4879167271335136, 5.9625620178420498)	(4.0772625270715857, -3.7886878127673578)	1.0	z	1.24409
4	M	A	N	N					N	4	0	shapes	M	Practice	False	62	(-1.4670269724965381, 4.9545049678133495)	(6.8731182753145141, 2.1325848418024993)	(-4.6555197640973445, -1.3027005416635813)	(4.6289329680853761, -5.8711737177742069)	1.0	slash	1.67792
5	M	A	B	A	B	N	N	M	N	8	1	shapes	A	Practice	False	62	(2.9896537508767977, -4.5940216002897492)	(-8.1778422960239965, 5.026209340626469)	(-1.7819927783582337, 7.0966217212120331)	(4.6767078963633946, 8.346793813579918)	1.0	z	0.905215
6	N	B	A	N					A	4	2	shapes	A	Practice	True	62	(7.4174026997823113, 1.5039886911112621)	(-3.3958054424263109, 0.061403985241851089)	(7.181679846527576, -7.2136509892653899)	(-7.0429807825727906, -6.7612937322939803)	1.0	slash	1.90295
7	N	A	B	A					B	4	2	shapes	B	Practice	True	62	(-6.0531505946883239, -4.0823427610912262)	(5.5146309683902501, 3.1176612421056689)	(-6.4005092856100871, 1.266624675089659)	(1.8503583952290299, -6.5838647709510427)	1.0	z	1.05041
8	N	B	M	A					B	4	0	shapes	N	Practice	False	62	(8.1283922692591482, -3.7324932397475852)	(7.9903582003584539, 2.2187872401847315)	(-6.6910113853034074, 1.8786416581707837)	(-2.1063551009199184, -1.4422156173883804)	1.0	slash	1.19405
1	M	B	A	A					B	4	3	shapes	A	0	False	62	(-7.8613664093569966, -7.2137947999594312)	(6.8697973059412654, -0.7864445522751371)	(-7.0508997658201835, 6.852846877477635)	(2.2099835226066595, 3.5699555945697252)	1.0	slash	0.913543
2	N	B	M	M	A	N	A	B	M	8	2	shapes	M	0	True	62	(1.2857210379341364, -0.73915580510113976)	(3.9674597217455485, 6.4188244024349519)	(8.6713256436237138, -4.3357327326329118)	(-0.94564223390584967, -8.1571005900410025)	1.0	slash	0.877159
3	N	B	B	A					B	4	1	shapes	B	0	True	62	(-7.6814273367464558, -5.8531845766383075)	(0.91655401468246467, 0.76615469235825451)	(-6.739533722338102, 7.2845615707827349)	(5.0686371769557628, -3.6390197726391795)	1.0	slash	0.688812
4	M	A	B	M	N	B	A	N	N	8	6	shapes	A	0	False	62	(-4.3364854379425202, 0.087338351728456942)	(-2.5168690747487048, 7.1586489750924969)	(3.1596496854786533, -0.045608523553934077)	(-2.0083758766413684, -7.6990408135711439)	1.0	slash	0.698367
5	M	B	M	B	N	N	A	A	B	8	6	shapes	A	0	False	62	(5.3600429998549917, 5.6042209782329291)	(-6.6773916688477186, -5.2274561232109189)	(0.33683024876534162, 4.6670486758746463)	(0.20208501382446187, -0.60079613370414897)	1.0	slash	0.874085
6	M	A	M	N					N	4	1	shapes	A	0	False	62	(-6.2061699224496447, -7.5793895518579326)	(3.6939116223010693, 0.19484231670519847)	(8.2978414572234094, -7.900493422220209)	(-1.9414184441599884, 0.13870327430765528)	1.0	slash	0.635772
7	N	A	B	A	M	B	M	N	N	8	7	shapes	N	0	True	62	(-2.1202655026763235, -2.4402942259603471)	(6.5155416641913853, -4.6686479433076711)	(-1.841939837330008, 6.0032201232625315)	(7.6356111541309026, 4.2423818368231938)	1.0	slash	0.984914
8	N	B	M	A	B	M	A	N	M	8	1	shapes	B	0	False	62	(-6.9959287180271996, -7.9956987335622145)	(0.37480768887309068, 6.9794671646480229)	(-7.3287238276935662, -0.47967428215780039)	(2.8369422901745658, -8.366939550172857)	1.0	slash	0.864948
9	M	A	B	N	N	M	B	A	B	8	3	shapes	N	0	False	62	(-8.2647289531030363, 4.1551577475382651)	(8.1365413624309006, 5.4640896562523356)	(-2.3960139582398963, -3.861135657828358)	(3.7000333150976594, -7.6610588452786725)	1.0	slash	0.846861
10	N	B	A	B					N	4	3	shapes	B	0	False	62	(5.2019529683271895, 6.2810395183084466)	(3.2188846675676714, -4.1551649658458665)	(-8.1471077447651545, -0.12222708171857377)	(-4.7909080766313945, 4.0873261696149701)	1.0	z	0.720524
11	M	B	A	A	M	N	B	N	A	8	2	shapes	A	0	True	62	(-3.9904404142292105, 0.43666291778216682)	(5.0287516603019533, 3.0604348896489491)	(-1.641361087332819, -7.343359567840066)	(-8.444341744685115, -0.90429617907379267)	1.0	z	1.56561
12	M	B	N	B	M	A	N	A	M	8	3	shapes	B	0	False	62	(-1.3691966790472465, 6.8602783549072655)	(-0.13969888746983727, -6.9176707457936084)	(-3.1721324688076669, 1.2393257847224337)	(7.9631798784577086, 6.6908426005810568)	1.0	z	0.751684
13	M	A	A	N	M	N	B	B	B	8	6	shapes	B	0	True	62	(1.7074730833383729, 2.0594699893007551)	(-5.2256406863569342, -6.0834905181153296)	(4.800204616220995, -4.000732495295777)	(-3.2397793721871349, 4.6344479808362919)	1.0	slash	1.09926
14	N	B	B	N					N	4	0	shapes	N	0	True	62	(-3.5779963243274508, -7.3012907152233426)	(0.1989195247821538, -0.59604274198203555)	(-7.7736277454698497, 0.20356067946042167)	(2.8245379691402341, 6.1840498030297706)	1.0	z	1.31308
15	M	A	A	N					B	4	1	shapes	A	0	False	62	(-5.5230211199969457, 6.1349133645612426)	(7.7124655133014102, -2.5015981310039308)	(1.6165582388551538, 8.0379669695227527)	(-5.3942081458772861, -0.89111970172633637)	1.0	slash	0.684292
16	M	B	N	M					N	4	2	shapes	N	0	True	62	(-3.938066077486412, 2.3853787791123864)	(8.5485271251119066, -1.8247832463613882)	(4.4708630838042005, 7.0809475155822099)	(-2.8441591902946648, -3.8587436575587075)	1.0	slash	1.22253
17	M	A	N	B	N	A	M	B	A	8	6	shapes	M	0	False	62	(4.7502532488839986, 6.1280290544114457)	(-1.5353575227156755, 7.6564396404811994)	(-1.5960466604849417, -4.4939177677750246)	(2.4775874445570967, -7.7621923721627626)	1.0	slash	1.37197
18	N	B	M	N	A	A	B	M	M	8	7	shapes	M	0	True	62	(6.4598283325942329, 3.0243099285600525)	(2.7244767082706236, 7.5648118626860246)	(-8.1484889066497139, -6.4448548567959349)	(-5.258540079450496, 2.4097549352601977)	1.0	z	0.931516
19	N	B	A	B					B	4	3	shapes	B	0	True	62	(6.1430267672800802, -3.6216012566364046)	(6.7224622644934975, 3.9803607703008996)	(-7.028790275429305, -3.1604025516449568)	(-3.0745183387160555, 7.0422471463230085)	1.0	slash	0.849075
20	N	B	A	B	M	M	A	N	M	8	5	shapes	M	0	True	62	(4.206696366843186, -6.0915379756193051)	(-0.4238575083290268, 4.2719568105624575)	(5.4187056986216291, 3.2443100526234598)	(5.8600077758401437, -1.2217609619954848)	1.0	slash	0.948816
21	N	B	B	M					M	4	1	shapes	B	0	False	62	(-5.2588286865736054, 5.7408678356388183)	(5.9931963084954898, -0.78960519867661549)	(-1.6676419691308029, -1.6646006229063843)	(1.00523231920927, 1.6007819401074794)	1.0	z	1.1744
22	M	A	M	N	N	A	B	B	N	8	5	shapes	A	0	False	62	(3.3761010229264361, -1.0003756864886579)	(-5.0089927144730746, -1.4889059880732454)	(7.2822185417645784, -4.736421012230438)	(-1.3535386252202812, -8.6818189863738446)	1.0	z	0.925945
23	M	B	A	M					M	4	3	shapes	M	0	True	62	(8.5575575394477141, -3.8707054480232532)	(8.0144555819771064, 5.3264139798396961)	(-6.9164078274285465, 3.8170535063205904)	(-0.58421417329247305, -7.428913710942723)	1.0	z	0.597732
24	N	A	N	A					A	4	2	shapes	N	0	False	62	(-0.316764334024775, 4.4111281250087622)	(-5.2432582239162118, -1.0557789053095732)	(1.0687776473501067, -6.1165297270044512)	(6.8057360679086241, 6.9495407955262412)	1.0	z	0.767443
25	N	B	B	A	M	M	N	A	M	8	4	shapes	M	0	True	62	(5.7127755348773892, -4.0662186110574785)	(-4.4326879206126817, 8.1899005462460472)	(-4.395934738374101, -4.3363137289387677)	(-6.9322798317634904, 3.7925162899835634)	1.0	z	0.938978
26	N	A	A	N					M	4	1	shapes	A	0	False	62	(-7.7970099567311149, -8.4514716236887963)	(-6.0687751795748701, 7.1861341854758027)	(1.9564110470761857, 5.6430452792141423)	(5.346841813952075, -4.846983959711137)	1.0	slash	0.928756
27	N	A	N	B					B	4	3	shapes	B	0	True	62	(5.8050230373171718, 0.11846301397152104)	(-2.6088430146793238, 0.58069124001859684)	(-2.830794343784901, -5.8073067632532602)	(7.6614056233708716, -8.4141415932825314)	1.0	z	1.09642
28	M	A	B	M					M	4	3	shapes	M	0	True	62	(2.8454794247720994, -5.7306247493042148)	(-5.0055521139086405, 2.5958603210088214)	(-3.2592169832576774, -3.2617461001528101)	(8.6387059614247406, 1.6168728470520701)	1.0	z	0.511806
29	N	A	N	A					N	4	2	shapes	N	0	True	62	(-0.096586086013603634, -0.25800304118026318)	(-0.51878440866526354, 5.6928550649503915)	(2.058512870314356, -6.6280273994782188)	(4.3948289269864649, 0.15080898443325097)	1.0	z	0.689547
30	N	B	N	B	M	M	A	A	B	8	6	shapes	A	0	False	62	(-3.1346198459164105, -5.3914290185310145)	(5.4441390453784297, -0.48897757151667243)	(-8.5481048503205788, 2.7106951641523533)	(7.8293259194956164, -8.6881898500432957)	1.0	slash	0.829084
31	M	A	B	A					M	4	3	shapes	A	0	False	62	(-5.2159330312105965, 3.2113033340418937)	(0.80168783340200456, 7.5736046049831174)	(-3.3806345454834101, -3.2291672356152832)	(4.3991539484846331, -3.6347808144139213)	1.0	z	0.560874
32	M	A	B	A	N	M	N	B	N	8	6	shapes	N	0	True	62	(-7.2857549667069508, -6.7285787805206771)	(0.87959789248638209, 8.2897470073257864)	(5.456043399518359, 2.7676360306632404)	(1.696947042828981, -4.9761626669424652)	1.0	z	0.474239
1	N	A	M	A	M	N	B	B	B	8	6	shapes	B	1	True	62	(3.2315888627987359, -1.5858693644469648)	(-1.3139844395067435, -3.2593645776260036)	(8.4844209937131012, -8.6704652777714486)	(-3.4182038729759272, 4.0501014358338239)	1.0	slash	0.900421
2	M	A	N	N					N	4	0	shapes	M	1	False	62	(-5.0539053929804618, 6.6249322932542221)	(1.91921669056957, 2.2273691325482048)	(1.3665078447868062, -7.5216925574580964)	(-0.55477641341761874, -2.7465639366157877)	1.0	z	0.849848
3	N	B	A	N					A	4	2	shapes	A	1	True	62	(-0.81971644827908019, -1.945150406156908)	(3.5819571477012992, 3.8312928586995554)	(-8.2620756825370503, 5.8344127678669473)	(4.892458306767276, -0.82285345145938571)	1.0	z	0.841487
4	M	B	A	N	M	N	B	A	N	8	5	shapes	N	1	True	62	(2.5263133398316295, 3.4637467448865245)	(6.6292797018972998, -3.0049626320347294)	(-7.9373655071997105, -1.7359994704475366)	(-2.2145335754642979, 1.2289297011417997)	1.0	z	0.499278
5	N	B	M	N	B	M	A	A	M	8	4	shapes	B	1	False	62	(1.4314636337254765, 5.6140758247093387)	(-2.8708119332810762, -2.6446173391143812)	(6.9971894664421921, -3.7937252729482589)	(-6.7624902005925192, 6.403826787245114)	1.0	slash	0.916791
6	N	A	A	N					M	4	0	shapes	N	1	False	62	(-8.6689889235749593, -5.5920727654476297)	(3.8621148202479301, 8.0401744593146667)	(-2.0783161619139809, 3.3928482407796867)	(4.4369164786568067, -7.0797217792967704)	1.0	slash	0.710526
7	N	B	N	M					B	4	1	shapes	B	1	True	62	(-7.4432868661473144, -4.5544390289816716)	(-4.7666424126074221, 0.26448146975760345)	(2.6384509130978024, -4.8520752079846048)	(3.8680964886012177, 3.4041157210184352)	1.0	slash	0.666361
8	M	A	B	A					A	4	3	shapes	A	1	True	62	(6.300354419685128, 4.5200489041591485)	(-3.9266643912672743, 1.9628405801618474)	(5.4868813460439423, -8.1214385973092487)	(-6.048988167605664, -7.7941861984257423)	1.0	z	0.727829
9	N	B	A	A	N	B	M	M	M	8	1	shapes	B	1	False	62	(-6.4202895704176512, -5.4344486996851327)	(0.91614625010337036, -2.7495665292365494)	(-2.8673878677615763, -8.0880897948307222)	(3.3283289614080047, 4.6125311374316027)	1.0	slash	0.625489
10	M	B	M	B	A	N	A	N	A	8	2	shapes	M	1	False	62	(-6.3265433634541015, -3.8450891889243426)	(0.91570848706211905, 7.5081864403069112)	(7.7891606395003699, -6.3645271875924765)	(-5.5498921199937392, 2.3443508051211595)	1.0	slash	0.807066
11	N	A	M	A					N	4	0	shapes	N	1	True	62	(5.4243139832825218, 6.2426048485111192)	(-5.7518310325607729, -2.8599748559852021)	(5.5436629609081081, -3.4337522997962857)	(-6.6947507199757688, 2.2438322340714478)	1.0	z	0.662664
12	N	B	N	A					B	4	1	shapes	B	1	True	62	(7.2336603062353184, -0.97684356671270667)	(2.6646514797935446, 0.87881613005704295)	(-3.6050389055314325, -5.8316104320940569)	(-2.4185855575521575, 6.4451388061040156)	1.0	slash	0.668549
13	M	B	B	N	M	N	A	A	M	8	5	shapes	N	1	False	62	(5.1345479397557394, 6.6681083426016183)	(2.0005685592394347, 1.9708042422405878)	(-4.503952524020157, -2.1569978300691499)	(-5.9530482944879832, 3.0794009814185035)	1.0	z	0.570172
14	N	B	M	A	A	M	B	N	N	8	2	shapes	M	1	False	62	(-7.3515458458923213, -5.5100641530548131)	(-4.0815976940055787, 6.5091740980833102)	(0.36662980799879108, -8.2868085634649482)	(-5.2171264337598817, -0.18824075328121381)	1.0	slash	0.709919
15	M	A	N	A					M	4	1	shapes	A	1	False	62	(-1.2321332670721343, -3.9423487018487036)	(-4.0678302697081614, 4.9715191861230181)	(3.5765880993613948, 7.1009363244173898)	(7.110161895783687, -7.7683387149524243)	1.0	z	0.689414
16	N	B	A	N	B	M	M	A	M	8	2	shapes	A	1	False	62	(2.0633102901008762, 1.8613151250773328)	(-4.0249220651805384, -0.37091532208847866)	(-7.5398446780613719, -3.0049747269480527)	(2.2063224382531601, -3.1553474798091008)	1.0	z	0.635267
17	N	A	N	M					N	4	0	shapes	N	1	True	62	(-2.2105522474424024, 8.6343219621960827)	(6.3375167068402209, 6.0239147122553618)	(3.178843114743735, -7.9910555627608719)	(-8.2105543087976613, -3.4457453121734316)	1.0	z	0.454985
18	M	A	A	N	B	B	M	N	M	8	0	shapes	M	1	True	62	(-3.8970052653544727, 4.5144113585947387)	(3.9778869765007343, 5.701519207674453)	(8.3732326003774276, -7.8722371446880723)	(-7.0661115461639277, -7.7805817542386499)	1.0	z	0.582622
19	N	A	A	N					B	4	3	shapes	N	1	False	62	(-3.6446602148346887, 1.6334336290308649)	(2.9941793410134281, -6.4607929530010271)	(-4.6277561987730413, -5.7149059237809361)	(6.7890475676389528, 8.2003109798920093)	1.0	slash	0.635955
20	N	A	M	B					N	4	0	shapes	N	1	True	62	(-7.0405571266793494, 5.871067922421819)	(0.49634021748799384, -4.7274710899436014)	(-7.7473077534190402, -3.3544152320476233)	(8.4779750963067748, 6.1208770736045501)	1.0	z	0.533763
21	M	B	M	B	N	N	A	A	M	8	2	shapes	M	1	True	62	(2.4447329805668065, -3.4910912237055216)	(-2.997563751164674, 7.4816230750266115)	(-6.8402183865331594, -2.4315339431357739)	(-7.0443301805733149, 8.1174600125903247)	1.0	z	0.629267
22	N	A	B	M	M	A	N	B	B	8	7	shapes	B	1	True	62	(-7.4850051340950658, -3.8600382655618564)	(-6.5717292038229687, -7.9134368519823806)	(-6.7614645967396312, 0.57858223367548689)	(1.9533742672303571, 7.5208550156196132)	1.0	z	1.10723
23	N	A	M	B	M	A	B	N	M	8	4	shapes	M	1	True	62	(-8.6164949970803715, -3.5748656871661959)	(-0.49743153670454276, -6.3054740819621227)	(-4.7479232346761187, 5.30684556351531)	(6.2748681022507569, 5.3894040239995462)	1.0	z	0.857244
24	M	B	A	A	B	N	M	N	M	8	3	shapes	A	1	False	62	(-6.9933472747640462, -3.3406815993541308)	(7.4732310395466079, 4.1581302697964784)	(3.6973549811378188, -2.1503351388606085)	(-8.6171848335275048, 8.6197705211680109)	1.0	z	0.586195
25	N	B	A	N	B	A	M	M	M	8	7	shapes	M	1	True	62	(6.8193307061851947, 3.2951697702439233)	(1.6846611126302928, -3.7323386310331959)	(6.4957843021958244, -7.6192174785866706)	(-7.2497004883496095, -2.3543197517928824)	1.0	z	0.94407
26	N	A	M	A					M	4	1	shapes	A	1	False	62	(-4.940849698532146, 2.2080969320209363)	(2.4867313711507411, 7.319688396558707)	(-2.6205394756564155, -4.2912938261693725)	(3.2057924845781525, -7.7800506270006533)	1.0	z	0.50193
27	N	A	N	B	A	B	M	M	A	8	2	shapes	N	1	False	62	(-6.1411257934147656, 6.8527809923736402)	(4.9919654081829901, 7.3166456710732604)	(-1.6449728032260547, 5.9846712511379216)	(4.3775036070394187, -8.4548345739283342)	1.0	z	0.530766
28	M	A	A	M					M	4	3	shapes	M	1	True	62	(-7.1131442952673289, 3.3491559993598301)	(-3.7439609535403564, -1.7751065022257055)	(1.6353042612249968, 6.1293266791785044)	(4.1403814457652039, -5.0940450999511748)	1.0	z	0.528715
29	M	B	A	N					N	4	0	shapes	M	1	False	62	(-1.0121877732837303, -3.2885686978888735)	(2.0223075371600245, 2.8456396404347952)	(-6.7580792987795286, 1.3328016491384567)	(5.9751608428345797, -2.9485743996324523)	1.0	slash	1.56891
30	N	B	M	B					B	4	2	shapes	M	1	False	62	(-8.1712335999156576, -0.70712954141421136)	(2.2302103765813914, -3.1803263298062721)	(-7.1538134801487772, 3.6420481303704566)	(4.6679611245143811, 4.6115583503853674)	1.0	z	0.968459
31	N	B	N	B					A	4	1	shapes	B	1	False	62	(4.8880902711096397, -3.1351867644315314)	(-4.3380777009809632, -8.1596663857587419)	(6.3626326144884651, 7.8651197076268993)	(-6.1603185571461552, 4.5838826397260171)	1.0	slash	0.800118
32	M	A	B	N	N	B	A	M	N	8	4	shapes	N	1	True	62	(-6.0254513961526284, 7.8196381742573315)	(-1.7672769732319731, -2.0335586706564301)	(4.5315684558664806, -2.1994254610177268)	(-5.8575697164834137, -4.7464314534865402)	1.0	slash	1.39576
1	N	A	A	B					A	4	1	shapes	A	2	True	62	(-3.3394599040439772, -1.785521967563704)	(7.7093187922022821, 3.4776496158800096)	(-3.8324987748954662, 4.8111376454699109)	(5.1821422722695445, -5.8352816878243523)	1.0	z	0.715415
2	N	B	N	A	B	M	M	A	A	8	6	shapes	M	2	False	62	(8.3537345394586531, 6.276984596522885)	(-2.3637785052441806, 5.2708111685506847)	(7.0851601661304873, -2.5419725357286191)	(3.7265077664563471, 3.7310367056684157)	1.0	z	0.406901
3	N	A	A	M					M	4	3	shapes	M	2	True	62	(0.19158287913382388, 1.8015598680773568)	(-1.8711909837295035, -4.2990336327281859)	(-7.8028102494460541, 5.9214521308996417)	(8.6352618734378588, -0.39797204376368178)	1.0	z	0.520698
4	N	A	A	M	B	M	B	N	N	8	5	shapes	M	2	False	62	(-1.7840407914113365, 8.6108404482072913)	(4.8064647091698909, -7.9047764421193669)	(-5.8643828104699374, -3.1575890898186305)	(-5.2332903124826862, -8.5549499984298247)	1.0	z	0.596272
5	M	A	M	B					M	4	1	shapes	A	2	False	62	(5.8340023935517564, 1.8821434735783136)	(-6.4060752763350948, -7.5339007937207629)	(0.31391878667693085, -5.6670392132223295)	(-8.5181202639024374, 7.2476105648642566)	1.0	z	0.640023
6	M	A	B	N					A	4	1	shapes	A	2	True	62	(2.9579276128713783, 3.7359949943971351)	(-8.6347529283108262, -2.4690477591126561)	(5.386037560720748, -7.8468437973228573)	(-0.74910011590848136, 1.1654275807065986)	1.0	z	0.519606
7	M	A	A	M					N	4	1	shapes	A	2	False	62	(2.4440933119032717, 8.1186257736261496)	(2.5089955654621541, -0.26208259492759645)	(-8.5316395980453077, 8.3086837859523826)	(-2.4806756357970521, -0.98941060422361637)	1.0	z	0.591434
8	M	B	M	A	B	A	N	N	A	8	6	shapes	N	2	False	62	(-2.4834146871343235, -2.8886393838964013)	(-8.113409793409744, -4.9497960721394714)	(-0.46517801784516521, 5.6650126317346103)	(6.181387314247015, -4.7654780132729044)	1.0	z	0.555209
9	M	A	B	M					M	4	2	shapes	B	2	False	62	(2.7325435055279907, -6.497950271323397)	(-7.779032353084161, -2.2593918295927615)	(2.3873206766479935, 2.1927008993964954)	(-7.9199453001618823, 2.7243839059157064)	1.0	z	0.668701
10	M	B	N	N					M	4	3	shapes	N	2	False	62	(0.5229681001507025, 6.2208718003445842)	(-4.4001707024304153, -2.8527686418193641)	(-6.8962437059154933, 5.6361934353079146)	(7.6383593521123423, -1.2325718873652276)	1.0	z	0.688252
11	M	B	N	N	A	B	A	M	M	8	3	shapes	N	2	False	62	(2.2204225730846918, -8.3206559769570596)	(4.8899309929589858, -2.5800672385619663)	(4.1031551292938477, 3.3157032665479598)	(-4.2072714943342442, -6.2747429388632217)	1.0	z	0.465902
12	M	A	A	B					A	4	2	shapes	A	2	True	62	(-3.0281603360920188, -7.0910683803111407)	(-0.67787418106196284, 4.6465329599595968)	(3.886138834435231, -6.227320595775824)	(3.3869756039748768, 7.349455840462678)	1.0	z	0.631671
13	N	B	B	A					A	4	1	shapes	B	2	False	62	(4.1293534895792288, 8.7354917448209832)	(-1.7086470003287113, -1.411545563840777)	(-0.17916459161320297, 8.4900705276364157)	(8.5993684815549685, -7.7390678901945158)	1.0	z	0.691384
14	N	B	M	N	A	A	B	M	M	8	2	shapes	M	2	True	62	(7.7521636774384319, -6.0328132768639531)	(4.8302608642630158, 8.0651154523640223)	(-5.0041929095401976, -7.5683717556362904)	(-4.6237046597111302, 3.4901572539564558)	1.0	z	0.507061
15	N	A	B	B	M	M	A	N	B	8	5	shapes	M	2	False	62	(6.6158877960008891, -4.0324407812528849)	(6.1052961588670165, 3.3905590537995725)	(-1.6694517247762803, 6.3277432098252469)	(-7.996027117578981, 6.8498021970230276)	1.0	slash	0.920822
16	M	A	M	A	N	B	N	B	M	8	0	shapes	M	2	True	62	(3.4490365355085508, 7.8571151153833192)	(-3.5418571261051497, 2.3746590753051091)	(2.6066641676226041, -8.0985948043628646)	(-3.1653149460926953, -1.9023320580576435)	1.0	z	0.6925
17	N	A	N	A					N	4	2	shapes	N	2	True	62	(-3.9233654234283817, -4.1488628451554295)	(-1.2658387967042168, 6.5624765975247481)	(2.1943307335855735, 4.1787349396678444)	(4.0770307156442911, -8.3629899595560779)	1.0	z	0.659866
18	N	B	A	A					M	4	3	shapes	A	2	False	62	(0.17613943760465389, 1.010596793553848)	(-8.6346683821504246, -4.3301752404679448)	(-3.390595993274685, 8.1694027028034242)	(0.71512588384061715, -5.9064936319779404)	1.0	slash	0.737799
19	M	B	B	A	A	N	N	M	A	8	4	shapes	A	2	True	62	(-0.33184614588227035, 4.665329322053168)	(2.8310269413067655, 2.0807441359321874)	(-8.4546979382858396, -4.0289647167357492)	(-3.9970267096868088, -2.3710858430114978)	1.0	z	0.761466
20	M	A	B	B	M	A	N	N	B	8	1	shapes	A	2	False	62	(3.6832159157971418, -4.2980405801268251)	(-0.88558696959469962, -2.5432140689249429)	(-4.3159346013031854, 6.8898506889190294)	(6.268939076837281, 0.16912202246214925)	1.0	slash	0.723045
21	M	B	N	B	M	N	A	A	B	8	3	shapes	B	2	True	62	(-0.32421534001982621, -1.6334613329686523)	(-1.7713157622596984, -8.0886721506839372)	(-0.39604484476604185, 2.5530467073077361)	(-7.1895979543035242, 7.7380021288500274)	1.0	slash	0.868808
22	N	A	B	B					M	4	1	shapes	A	2	False	62	(-8.0766078983436618, 6.2127439607544233)	(0.82773151755047003, -3.6409552205211622)	(3.0144876447333715, 8.5739959734966646)	(-6.178541601828778, -5.8745120682088912)	1.0	slash	0.686129
23	N	B	M	A					M	4	2	shapes	M	2	True	62	(6.7110791566273367, 0.60203083215392006)	(-2.3512970231910888, 7.2743423657940696)	(-3.2142590170948031, -6.6529807559250767)	(2.600210912563238, -4.5133896168620504)	1.0	slash	0.735887
24	M	A	M	A	B	N	N	B	A	8	1	shapes	A	2	True	62	(-6.5099866854045736, -2.3400205288153888)	(8.3543344727870696, 8.5421200825117261)	(5.9177590390081605, -5.3941876812341532)	(-2.158610826733697, -6.4801483289604125)	1.0	slash	0.63145
25	M	A	N	M	A	B	N	B	N	8	5	shapes	B	2	False	62	(-1.9914973341684163, -2.2921940757979558)	(-6.0379780809918344, -4.2848899914513972)	(5.2176393394975822, 3.1101013826959161)	(2.0891541409768646, -5.3341319442389903)	1.0	slash	0.844395
26	M	B	N	B					N	4	2	shapes	N	2	True	62	(2.980338355194851, -3.7731189427755627)	(7.0625339408362695, 1.6404743972552929)	(-2.2523221375886742, -2.4258015462500779)	(-3.8423442939106378, 3.1278051022563922)	1.0	slash	0.671025
27	N	A	M	N	B	B	A	M	M	8	7	shapes	M	2	True	62	(0.53477377681207905, 4.2377859304818184)	(7.0264949453740826, -7.9237464622563181)	(-6.9385050057328161, -5.621620962930046)	(0.15573845534460951, -6.8598913023583554)	1.0	z	0.484666
28	N	A	M	B					N	4	0	shapes	N	2	True	62	(-6.1693889926254846, 6.4259736063710147)	(-8.6512631567738083, -1.3639968771191882)	(8.5644971520764592, 8.4312853017547802)	(1.8646640500978933, -5.1924417020992983)	1.0	z	0.494255
29	N	B	A	M	M	N	B	A	N	8	0	shapes	N	2	True	62	(7.7877581045576107, -7.6998988737841207)	(8.189042154428563, 0.38253876192139913)	(-2.5044595267849097, 4.5658069171068654)	(-4.5508827279628115, -8.3212391938398103)	1.0	z	0.64801
30	N	B	A	M					N	4	3	shapes	M	2	False	62	(-0.9329334732719019, -6.3214929673496938)	(0.46905009848610746, -1.8605357580319382)	(-6.2603908703020306, 3.5199030414086732)	(6.8595772447281611, 8.6380445892253341)	1.0	slash	0.607587
31	M	B	N	B	A	M	N	A	A	8	4	shapes	A	2	True	62	(0.95687230667787659, 7.7972441115978519)	(7.4486734459038679, 3.5039103120963002)	(-6.7520385747659146, -1.4892792799091765)	(-1.84682562439016, -6.1039970192361945)	1.0	slash	0.570891
32	N	B	M	B	M	A	N	A	B	8	2	shapes	M	2	False	62	(-3.5168946902418252, 1.9353855497072399)	(-4.2036301736027681, 8.1031536269489663)	(-6.7669964562682443, -6.335437562320708)	(8.3016949697745837, 1.6418493848361155)	1.0	slash	0.763049
1	M	A	M	A	B	N	B	N	M	8	5	shapes	N	3	False	62	(-5.7463555773492878, 7.3941601831902375)	(5.1466835579108743, 3.5028631520373548)	(6.0972368753927171, -5.7309053026793588)	(8.415963625573454, -0.17564352626455992)	1.0	z	0.736709
2	M	A	A	M	B	B	N	N	A	8	2	shapes	A	3	True	62	(-1.5264319431384639, 6.4139256901933184)	(-1.1129938644356567, -8.1601697821285626)	(-7.0920200190508744, -4.7329445876263527)	(-5.4331174864645568, 8.1624900246988012)	1.0	z	0.561793
3	N	A	N	M	B	A	M	B	B	8	4	shapes	B	3	True	62	(-4.3181257060597273, -7.8508705219525687)	(-2.9688509554794429, 4.4460811827252389)	(-0.99681182955753567, -5.4673595409015352)	(8.1844073565692703, 0.13601384771322955)	1.0	slash	0.65207
4	M	A	N	M	A	B	N	B	A	8	3	shapes	M	3	False	62	(2.0603249091233984, -8.1340379798241198)	(0.5044120293540324, 7.2864265173444664)	(7.7726900361388829, -4.6975442788587101)	(0.47302233625756251, 2.2873548250243374)	1.0	slash	0.691397
5	N	A	A	M					B	4	2	shapes	A	3	False	62	(5.627746513780048, 1.0482987980721266)	(-8.6601419165646689, 6.9070115602746185)	(8.4063033138505112, -3.8865226163883149)	(-4.9308872207582564, -6.0953124419150129)	1.0	z	0.683375
6	M	A	M	B					A	4	1	shapes	A	3	True	62	(7.7238923149520922, -3.9474459605809251)	(-1.9038927731113464, -0.48539479281307507)	(-5.9925942219402799, 0.99244773063361613)	(4.101881131087687, 4.5944110997042635)	1.0	slash	0.955096
7	M	B	A	A					A	4	3	shapes	A	3	True	62	(-1.0320963206089147, 1.9952021903773876)	(-6.2512953216690956, -1.6228115864246195)	(3.6838189123683538, 4.5985931969290341)	(5.7949322269032706, -8.4921834202315516)	1.0	z	0.518471
8	M	B	N	B	M	A	A	N	B	8	0	shapes	M	3	False	62	(-0.31624649230843893, 5.9908363982766222)	(-0.16549469868035693, -7.3631201715360257)	(-2.7547998928564965, -2.1350775208729873)	(5.9540927406128255, -1.6511454278195954)	1.0	slash	0.650292
9	N	A	B	M	B	N	M	A	N	8	5	shapes	N	3	True	62	(5.4977805193464739, -5.3367657940382944)	(7.1028496549198454, -0.031919997400793321)	(3.9475703825839794, 6.5095156691352347)	(-6.9528173261137756, 2.9628612230350235)	1.0	z	0.398072
10	M	B	B	M					M	4	0	shapes	M	3	True	62	(2.0013558741516295, -2.1603794261319411)	(-6.2405156484719422, -4.6544837490197688)	(5.5582786258603356, 3.7075498013410257)	(-3.1429054335585951, 4.2504120481998076)	1.0	z	0.383672
11	M	B	M	B					B	4	1	shapes	B	3	True	62	(-3.0902725785705387, 1.8495402721312075)	(5.3613812555689773, -5.6817737064487321)	(-4.4862618968152619, -7.7380263706681127)	(7.5526008940174236, 7.8746772419388655)	1.0	z	0.499315
12	M	A	B	N					M	4	2	shapes	B	3	False	62	(5.6357659169709855, -4.2061570657208946)	(-4.7419254756453961, 3.50789530451312)	(-4.1966828059996075, -3.7167831716143747)	(8.5764103027547485, 2.8524622917588438)	1.0	slash	0.744928
13	M	A	B	M	A	N	N	B	A	8	7	shapes	B	3	False	62	(8.1085609951746349, -5.4958742962831861)	(-1.8397188699908273, 6.6127373818882322)	(4.5193242584181732, 3.7781833563701177)	(-7.1472401811401784, 5.9628180972293734)	1.0	slash	0.68823
14	M	A	M	A					A	4	0	shapes	M	3	False	62	(-8.7475726262019418, -3.8484561992492807)	(4.2086245692676183, 1.4306455887475433)	(-6.8901837209410255, 7.8846905221188699)	(6.9716602401914542, -1.521926263123655)	1.0	slash	0.808456
15	N	B	N	B					B	4	0	shapes	N	3	False	62	(-2.065654593530196, 2.6266793810385956)	(-5.4139869027946883, -5.2425108076510929)	(2.7683834707361132, -2.2316120093139507)	(6.73608867597871, 0.78333820831071677)	1.0	slash	0.647912
16	N	A	M	M	N	B	B	A	B	8	5	shapes	B	3	True	62	(2.6655033007670337, -7.4320120938370664)	(5.4123537084122457, 4.128795993426996)	(5.0264564005455359, -1.9535338386731897)	(-7.0897530601914944, 6.7197493648844802)	1.0	slash	0.801731
17	N	B	B	N	A	M	A	M	B	8	2	shapes	B	3	True	62	(8.6573856029706846, -6.8812862105753316)	(2.7557875610684466, -4.5944454312215575)	(-6.7977449874374756, 8.2259530540420904)	(-7.9694130754798636, -4.2537788682899897)	1.0	slash	0.715415
18	M	B	A	A					A	4	1	shapes	B	3	False	62	(-1.6637792396286262, 2.1137340453791307)	(7.9660663845300306, -6.7321240154811761)	(6.9379538319099332, 2.6502633512749902)	(-0.90805980442119694, -2.0386687315219643)	1.0	slash	0.758791
19	N	B	M	M	B	N	A	A	N	8	6	shapes	A	3	False	62	(4.6694883663857656, 7.1346575831292114)	(-3.521629447946812, 4.8010715192024183)	(-8.5786761862638841, 6.1627331753160988)	(6.2393990665464099, -4.9346673066487288)	1.0	slash	0.674509
20	M	B	M	A	N	B	N	A	A	8	3	shapes	A	3	True	62	(-1.8919361249530455, -4.520987450324025)	(-4.0804407064991377, 1.7185490223666982)	(2.7067265778877907, -0.72081592464022215)	(-7.4609303005633949, 6.7506893252223836)	1.0	slash	0.824245
21	N	B	N	B					B	4	1	shapes	B	3	True	62	(-1.5042344179292426, 4.322456545961888)	(-5.5278430564205525, -6.8218959915891482)	(8.6293605151117134, -5.1224694183164718)	(3.5685602656027697, 5.4047289525958515)	1.0	z	0.437741
22	N	B	M	N					M	4	2	shapes	M	3	True	62	(1.3916544540490268, 1.6904218725736886)	(-5.081977903121385, 4.4449752130066269)	(-6.3313336942252683, -3.2082410107858079)	(7.1056870803390222, -2.4765059869160879)	1.0	z	0.489463
23	N	B	B	A					B	4	2	shapes	B	3	True	62	(-3.2140957882108374, -3.1141253787138616)	(8.2279590256028499, 1.7466075073393625)	(2.7520558009243317, -5.9243345835853338)	(-3.7689568833419447, 5.311707075241582)	1.0	z	0.873384
24	M	B	N	A					A	4	0	shapes	M	3	False	62	(3.5305710103241896, 0.62094649643202615)	(-3.2175882665886064, -8.446009447078211)	(-5.6761749072286785, 2.6977726876161601)	(6.9349695999716428, -2.2969368778212491)	1.0	slash	0.940748
25	N	B	A	A					N	4	3	shapes	A	3	False	62	(4.0905687653777871, 0.45336504506263431)	(-7.9454296408226472, -5.8839471790749887)	(4.8180829697120728, -4.3382961892301344)	(-6.294026027277063, 4.5192632307522373)	1.0	z	1.01664
26	M	A	B	M	N	A	B	N	B	8	2	shapes	B	3	True	62	(-0.13920409901969144, -2.1434558178369514)	(-0.40822859816491075, -7.7750907394230495)	(4.9219274815331886, -2.6334410941838637)	(-4.7192355675860185, 7.9961625374587619)	1.0	slash	0.977785
27	M	A	A	M	N	N	B	B	B	8	2	shapes	A	3	False	62	(-6.2867153311277173, 2.3249134328926537)	(-4.7119033718460956, -6.2357492445835723)	(2.6450067388933149, -8.261677393651361)	(-3.3013628278086413, -1.2468652247079381)	1.0	slash	0.835299
28	M	A	M	N					N	4	3	shapes	N	3	True	62	(1.4338017936486303, 4.7437926892511868)	(-5.9217274810282046, 2.7698341446654844)	(6.8716038747318162, -7.3108437371267341)	(-6.7923521174812542, -4.6618723139792166)	1.0	z	0.535369
29	M	B	B	A	A	M	N	N	A	8	2	shapes	B	3	False	62	(-2.6330567577908139, -2.1859674703660446)	(3.5562818379183234, -1.2071512347744155)	(-1.6176926350237837, 2.064684029514666)	(6.3734883960646851, 7.3055778332335599)	1.0	z	0.520189
30	N	A	N	A	M	M	B	B	A	8	1	shapes	A	3	True	62	(-1.9943110951834422, -7.7170859994571366)	(-1.1791969736681525, 8.2944538095206966)	(2.0269832781360559, 4.1819336363160655)	(-8.6858800127414391, -4.7820436145730865)	1.0	slash	0.292727
31	M	B	A	M					N	4	0	shapes	M	3	False	62	(-3.9653656882234749, 8.4816422030852188)	(1.3408832687097174, 2.2571546145695898)	(6.0777846267360509, -0.75197073315044882)	(-4.1695516883238799, -5.275759924355536)	1.0	z	0.404561
32	M	A	N	B	M	N	B	A	N	8	6	shapes	B	3	False	62	(3.1837844451233313, 0.043841413400802054)	(2.2878999574397145, -5.8015136197963617)	(-6.5451601974548419, -1.5738899617505764)	(-7.2090071964202895, 2.9960264911756855)	1.0	slash	0.694293
1	M	A	N	B					M	4	0	shapes	M	4	True	62	(-7.4908827703265519, 4.2960218833838137)	(6.2216258446449526, -6.1900842251263679)	(7.2256040679953877, 3.6140083931304829)	(-6.643553057849406, -3.3006883877795286)	1.0	z	0.375963
2	M	B	B	M	N	A	A	N	A	8	1	shapes	B	4	False	62	(1.9214781805979815, -8.2521797754537172)	(-2.7848721050433713, -7.8462855008768821)	(4.4229974560461258, -1.1964069378258664)	(1.039330489376793, 7.9188027375510721)	1.0	slash	0.663712
3	N	A	N	B	M	M	A	B	N	8	2	shapes	N	4	True	62	(-5.8630622130022072, 0.73974105842330573)	(4.055948506132216, -4.5615623950756685)	(6.1713496938412753, 3.3116163186530336)	(6.1935794275094214, 8.680946484387043)	1.0	slash	0.486601
4	N	B	N	M	A	A	M	B	M	8	3	shapes	M	4	True	62	(-2.2345107100457628, -7.3167604014874286)	(2.3313722410433968, 7.9475686889032886)	(5.3720987825694078, -6.0179804066895581)	(8.6151695084528477, 1.4029972623002323)	1.0	z	0.712711
5	M	A	A	B					A	4	0	shapes	M	4	False	62	(6.2864375619296471, -2.7643431354916075)	(-5.1686869868028946, 4.4642763633153475)	(-4.1128501912054212, -4.1458681123929493)	(0.40615817179833691, 4.6725323870609046)	1.0	slash	0.572711
6	M	B	B	N					B	4	0	shapes	M	4	False	62	(3.0074736102763868, -2.8362035125788898)	(-1.5435506522729439, 3.9653995536662556)	(5.335162329415466, 3.5933576326576269)	(-3.0070904423504148, -7.6156237980247301)	1.0	slash	0.556207
7	M	A	N	A					B	4	3	shapes	A	4	False	62	(0.88035349251509309, 4.1765752321384717)	(1.4826976029370815, -7.2482297358648387)	(-6.8206510610747237, 1.3824663359977833)	(-5.8833798074472341, -3.0476994410097396)	1.0	slash	0.549867
8	M	A	B	A					B	4	1	shapes	A	4	False	62	(4.63414696720052, 2.2791354948367584)	(0.64915183835219636, -7.5467363885401735)	(-8.5736757960926386, 1.4172686667837961)	(-2.4994739639331698, -4.2771736607464073)	1.0	slash	0.713694
9	N	B	M	N					M	4	2	shapes	M	4	True	62	(7.6096155696031573, 3.7112441907191904)	(-6.4923609631342636, -3.2331573348629901)	(-2.9526176532836965, 3.5182223602515066)	(6.61361662783548, -7.2333907596479392)	1.0	z	0.437137
10	M	B	A	A	M	B	N	N	N	8	5	shapes	B	4	False	62	(1.9017749748155985, -5.4582047310416293)	(4.2009551884945413, -1.6115285057539133)	(-0.16179600269036598, 4.8808963528876799)	(7.9355422575688266, 5.8255915242277947)	1.0	slash	0.513032
11	N	A	M	A					B	4	1	shapes	A	4	False	62	(-5.3624110440786721, 5.0485905588349365)	(-3.8468910195598944, -8.1106072342127113)	(2.3867611738053931, 4.1832751987178103)	(4.9067685455677434, -8.5436732726554609)	1.0	slash	0.644683
12	M	B	A	M					A	4	2	shapes	A	4	True	62	(-5.4436288784411584, 0.6680398264657601)	(7.1248067034789475, 2.3984183768382401)	(-2.3480568347304773, -5.5778765592968664)	(3.1431861739558506, -2.5854307829453846)	1.0	z	0.398234
13	M	B	M	A					M	4	0	shapes	M	4	True	62	(-4.1059743457627524, -2.3682079623624688)	(0.15516043624183773, 0.1551195935906069)	(-7.3411877026362609, 2.0202029675626516)	(5.7131186451243661, -1.6074381386969652)	1.0	z	0.464099
14	N	A	B	N					N	4	0	shapes	N	4	True	62	(1.9314306858198655, -0.28854812247638684)	(4.7266160852470591, 6.8140175021571672)	(-7.3441344216910691, -6.0547135607458742)	(-2.3670162759341791, 2.662584686456464)	1.0	z	0.510442
15	N	A	M	B	B	M	A	N	B	8	4	shapes	B	4	True	62	(-3.5480633447885692, 2.5285723165482761)	(3.9531424379742379, -3.3304411398326037)	(-6.0575782913515566, -3.3665978377397678)	(-1.4519356658934086, 6.8695459304280693)	1.0	slash	0.683349
16	M	A	A	B	M	N	N	B	N	8	0	shapes	M	4	False	62	(-0.51639153797776949, 5.0777824188630927)	(2.433180074127284, 7.9091310947354536)	(3.8846352855085708, 0.96767786991330595)	(-5.1000201024905412, -8.6386860027304717)	1.0	slash	0.700759
17	M	B	N	N	M	B	A	A	B	8	5	shapes	B	4	True	62	(6.2278654702276857, 6.7745161559376665)	(-0.94257362597520089, 3.8765661545249479)	(6.8145139665797547, 1.6774229871010586)	(-4.997061828503127, -7.8067307596718178)	1.0	slash	0.642532
18	M	A	A	N	N	B	M	B	M	8	0	shapes	M	4	True	62	(6.5113180081114361, -7.2567096608863988)	(3.918542157654354, 2.8461357113473582)	(1.7426692506737389, 8.6963195061348983)	(-1.7584426571964027, 1.7298354849243491)	1.0	slash	0.613629
19	M	B	A	B	M	A	N	N	B	8	4	shapes	M	4	False	62	(0.40782272807856756, 5.5967434449444475)	(5.2014205920202379, 0.79668447203129666)	(-4.752601973491303, -8.1489898546524806)	(-1.2401684777691369, 1.3107569879278049)	1.0	slash	0.63798
20	M	A	M	A					A	4	1	shapes	A	4	True	62	(1.205376569430646, 5.1829672169999199)	(-4.6579093292549381, -3.6557531442371332)	(0.29668194828133387, -8.7375203639839238)	(-3.9793161441056499, 5.3302333326441769)	1.0	z	0.637508
21	M	B	M	A					A	4	3	shapes	A	4	True	62	(-8.6727361913689744, 1.0945878712776569)	(7.6237913151269225, -3.4687835840823418)	(-5.5659591814918628, -7.6164197471338317)	(1.3658805393135065, 6.8967586225427127)	1.0	z	0.421364
22	M	A	B	A	N	B	N	M	A	8	4	shapes	N	4	False	62	(2.7413277967199079, 8.0361398021109984)	(8.0199486933921733, -1.4256083568694828)	(1.4465695948876363, -8.3357249353495142)	(5.6954463819875976, 2.0349130379259215)	1.0	slash	0.554969
23	M	B	B	A	N	N	M	A	A	8	1	shapes	B	4	False	62	(-0.71658259218515674, 2.8391947783437121)	(-6.3763174228129014, 1.4025537875821463)	(8.2854738520995781, -2.8002301506110312)	(4.0923496327984186, 0.45789813352645226)	1.0	z	0.720144
24	M	A	B	M	N	N	B	A	B	8	6	shapes	B	4	True	62	(-4.9608076608691665, 0.64776494101686666)	(0.62145957942082219, -2.5379819496416234)	(2.8693075124906251, 6.1610407225344712)	(5.5571767923982414, -1.3064083652163712)	1.0	slash	0.570178
25	M	A	N	N	M	B	A	B	B	8	5	shapes	B	4	True	62	(-4.8708757272188432, -1.7586873423160672)	(2.5279816621175772, -4.127455518138694)	(-3.1230504070250005, -8.7078711991969246)	(-0.41458609176691752, 8.3028172976901438)	1.0	slash	0.381933
26	M	B	A	B	M	N	N	A	A	8	4	shapes	M	4	False	62	(7.1514530265827023, -2.3286882010757921)	(4.7781511098459539, 6.5744194216788312)	(-3.4532032666287034, -0.14206722446077968)	(-8.2238543452284532, 3.2697833058968815)	1.0	slash	0.635557
27	M	A	A	B	M	B	N	N	M	8	5	shapes	B	4	False	62	(4.8595602126300026, 1.6635814468757424)	(-2.5087225234778794, -2.4046855265596125)	(7.2104550905637907, 6.0589861783484658)	(-7.1717921280665173, -2.1816638083261903)	1.0	slash	0.967431
28	M	B	B	N					M	4	3	shapes	N	4	False	62	(4.1654282056772569, -6.3486244909706286)	(-3.704817621943004, -6.1827643195805972)	(-1.6139634040154531, 2.495255630938324)	(4.1455401969429975, 2.1582308193006483)	1.0	z	0.608926
29	M	A	A	N					M	4	3	shapes	N	4	False	62	(3.066987790057718, 4.5634391923397466)	(-7.4048188606769365, 2.1722921797126862)	(7.4878469702268795, -5.5339827353368118)	(-3.2945707992941076, -0.59920881307107976)	1.0	z	0.50477
30	N	B	A	B	N	A	M	M	A	8	2	shapes	A	4	True	62	(3.772526996835623, 5.0211247349164889)	(-2.425834650899465, -7.5336900319798641)	(7.525448869298522, -2.8878718246729811)	(8.5322515988455052, 2.5333674047967278)	1.0	z	0.97762
31	N	B	N	M					B	4	3	shapes	M	4	False	62	(-1.222381646938036, 7.3271665130600496)	(-8.025863008800501, -2.5238064166116221)	(7.1242343763618532, -6.6572816428459642)	(2.9013189923934455, 7.9952648820486871)	1.0	slash	0.687957
32	N	B	A	A					B	4	1	shapes	B	4	True	62	(1.7533848912230194, 3.6725867990847174)	(7.3140591501958774, -2.8087054871642616)	(-7.7216309756260415, 7.0891239056995676)	(-2.3860039821768293, -7.1391957039490102)	1.0	slash	0.957607
1	N	B	M	A	B	M	N	A	M	8	2	shapes	M	5	True	62	(-5.8355613964538833, 2.8340347055979276)	(0.58969190951551731, -6.4413242717955939)	(6.2742704862448431, -0.36630478376702413)	(-8.1698132118614097, -8.0647534802024943)	1.0	slash	0.579094
2	N	A	N	M					A	4	1	shapes	A	5	True	62	(-3.167021896998456, 1.387899363576782)	(-8.4470911768125898, -0.3535627784528792)	(3.2247648706655827, -4.7990654346067672)	(7.4210345979177568, 2.953714659274457)	1.0	z	0.368704
3	N	B	N	A					B	4	1	shapes	B	5	True	62	(-3.1115523551426589, -2.6925493670488008)	(1.0723280794535324, -2.6732951064863455)	(6.5283613710254667, 1.8185001913905889)	(-0.28533225913188254, 4.1619848023481882)	1.0	z	0.542721
4	N	B	B	A	M	M	A	N	B	8	2	shapes	B	5	True	62	(-3.2465779292451256, 0.49696702397990578)	(5.1350170552868359, 2.6939434019676014)	(-8.1520929258970511, -1.2546902607471617)	(7.0956115104063766, -6.760249427435169)	1.0	slash	0.716345
5	M	A	B	N					M	4	2	shapes	B	5	False	62	(-4.1812755147202862, -5.1182736456188911)	(-1.4612740875651307, 8.641593704940874)	(3.4434119047933827, -7.5626635415216246)	(5.6620395768255865, 5.3687117807378097)	1.0	z	0.783847
6	N	B	A	M					N	4	1	shapes	B	5	False	62	(4.0928182442107541, -3.5846560504408824)	(-4.3264051994498107, -0.13198824692147326)	(-6.5733510801996662, 8.2057092737275212)	(4.2658538916533431, 2.5893530422971835)	1.0	slash	0.733588
7	N	B	B	M	M	A	N	A	M	8	6	shapes	N	5	False	62	(-4.3990193594992588, 3.8085630896220319)	(7.7596444696446483, -8.1710901122440198)	(-2.6237349175589095, -3.9455789569849458)	(4.2427936826900012, 6.0082742692236106)	1.0	slash	0.669268
8	M	B	B	N					B	4	0	shapes	M	5	False	62	(-5.109619934310289, -1.8374407901988237)	(-4.759868077591884, 6.6106804279797995)	(4.1607385462353648, 6.6583611319263625)	(1.8774766707826149, -1.3678594153893)	1.0	slash	0.600907
9	N	A	B	A	M	M	B	N	B	8	6	shapes	B	5	True	62	(-0.036589751994018371, 6.8488152090246501)	(5.4867421673856942, 1.7585712459430027)	(-5.3463410376152876, -3.2001196393671743)	(4.3019445314701183, -3.2958234956061805)	1.0	z	0.770875
10	N	A	A	N					N	4	0	shapes	N	5	True	62	(0.23636356188290719, -3.7804765815142041)	(7.0877186869002333, 0.43851637195817972)	(-7.3401123690067873, -4.0159987914097002)	(-1.7198078888264439, 3.4245407847266307)	1.0	z	0.474216
11	N	B	B	N	M	A	A	M	N	8	6	shapes	A	5	False	62	(-2.9071214980509987, 6.5137382212022956)	(-5.1759129337283429, -6.4231763121130303)	(-5.7508076570029978, -1.4284485596482774)	(4.8154150883170157, 0.27141509014027498)	1.0	z	1.11939
12	N	A	N	B	A	M	B	M	N	8	7	shapes	M	5	False	62	(-3.8488506218269443, 4.7169540927012505)	(1.4781883019327111, -6.9974438644480994)	(5.4899155360215399, -3.8513871752196289)	(7.971397444958793, 6.8156810835884265)	1.0	z	0.749164
13	M	A	M	A	B	N	N	B	N	8	4	shapes	B	5	False	62	(5.7282563483728666, 4.7548084463339961)	(4.3025689005271648, -3.5022441520935956)	(-3.0849365778471007, -7.5407577149448475)	(-4.4578729982220509, 2.9237372019401686)	1.0	slash	0.275272
14	M	B	N	N					A	4	0	shapes	M	5	False	62	(-2.5965738060212855, -7.5655857651965635)	(1.9743724415940918, -2.739014966919604)	(-0.26677219137856234, 8.1458686411154027)	(4.7493269299564069, 2.9903780110154408)	1.0	slash	0.518987
15	N	B	N	B	A	M	A	M	B	8	1	shapes	B	5	True	62	(-8.1898489896006694, 6.2705231498041467)	(3.7151390617290403, -7.7608529910269315)	(7.8721849333600851, 0.27789176092212564)	(-2.3727213672139555, 0.93357858004443095)	1.0	slash	0.609738
16	N	A	N	M	M	B	B	A	B	8	5	shapes	B	5	True	62	(4.5733828727489527, -6.9828536241606649)	(-7.8377824366778253, -3.1157461030730058)	(8.6193742176089145, 8.4817379752285404)	(0.54310806015059754, 6.3011029382298034)	1.0	slash	0.636097
17	M	A	A	B	M	N	B	N	N	8	5	shapes	N	5	True	62	(-5.0733957744923348, 0.99155746797986488)	(7.3449754555984086, -1.6379246702020405)	(-4.7512496621562388, 6.1763217833063457)	(0.53302657930931829, -8.2570330554952864)	1.0	slash	0.543899
18	N	B	B	M					A	4	3	shapes	M	5	False	62	(5.817004037578366, 7.2114090054671962)	(0.0098221032154377497, -6.3893473938539627)	(-7.7190945590274218, -3.9668459449974938)	(-0.88183099406857934, 7.0764201068652959)	1.0	slash	0.491599
19	N	B	M	A	N	M	B	A	B	8	2	shapes	M	5	False	62	(1.812991770046553, -6.4060674225129031)	(-2.3206966752588958, -2.4874504401186233)	(-3.5960748762798911, 6.6362017315052082)	(2.0897505386854558, 4.8093668369927496)	1.0	slash	0.611322
20	M	B	A	B					A	4	2	shapes	A	5	True	62	(-3.3901866681110944, 7.4952155783230268)	(7.1660921584534183, -8.7316980446775219)	(3.0254800297113054, 0.59777121856593673)	(-3.4285906185484301, -7.1784630979833466)	1.0	z	0.394784
21	N	B	N	M					N	4	1	shapes	B	5	False	62	(-6.9995067367093906, -8.3194300941311923)	(-2.4285289843774365, 3.6293866832474961)	(0.98872273395586774, 0.68513666243220861)	(1.4971261653425767, -7.1348516237053774)	1.0	z	0.44639
22	N	A	B	M					N	4	0	shapes	N	5	True	62	(3.4942725426959207, 7.8084247067941135)	(8.6500886725188657, -7.6498897585422476)	(-0.21936202929502535, -1.077074476786672)	(-4.8573317747926881, 8.0035465049965246)	1.0	z	0.512066
23	M	B	B	M	A	A	N	N	M	8	0	shapes	M	5	True	62	(-5.584416763689056, -5.2464347225911379)	(6.0046500479097009, 2.1814650628685701)	(8.624284193514594, 8.2658895279502858)	(-2.8860958446774827, 4.2177453325980316)	1.0	z	0.595259
24	M	A	A	N	N	M	B	B	N	8	1	shapes	A	5	False	62	(6.9292622343162567, -5.3259708940369066)	(1.3911762313321407, 8.6584611114291974)	(2.4462014978724298, 0.71266477505526815)	(-1.6177353134602104, 0.9385759285444415)	1.0	slash	0.895596
25	M	A	A	B	M	B	N	N	M	8	0	shapes	M	5	True	62	(3.9096911829882259, -1.1236451164439414)	(6.1460166066626982, -4.93477944485136)	(-4.1566610168113245, -5.9145863946363111)	(-6.5488680973215976, 3.4814434253457307)	1.0	slash	0.4727
26	M	B	N	N					B	4	1	shapes	B	5	True	62	(0.031693569357393869, 7.8215482415473723)	(-7.9840208725128452, -0.60017706596000764)	(2.6146820267137034, -7.8038372034685439)	(-7.2363620864274081, 4.519319654683196)	1.0	slash	0.730379
27	N	B	A	N					N	4	3	shapes	N	5	True	62	(-6.1945206260035715, -6.5336184229836647)	(5.3258354804514187, 6.2816104257341898)	(-4.8616054478122877, 6.4816871285743005)	(0.071537246303917001, -7.7104291376810385)	1.0	z	0.658791
28	M	A	M	A					B	4	1	shapes	A	5	False	62	(-4.9018245879973268, 6.0723522473236802)	(-7.758024150385479, -5.4273394129447095)	(7.5530400797625923, 0.030524462005775632)	(3.7849956378343599, -6.6641305932379744)	1.0	slash	0.696342
29	N	B	N	M					N	4	2	shapes	N	5	True	62	(1.3585382584555923, 6.308662450973948)	(-6.4936343908699055, 0.0017471966688766827)	(-8.3840376066084321, -4.7697419334541387)	(6.1498780860304834, -6.3741946181006455)	1.0	z	0.517913
30	M	B	B	M	N	A	N	A	M	8	2	shapes	B	5	False	62	(-2.5113429144429498, -0.75142088474487334)	(-3.9726196239489484, 3.0566039295310734)	(-5.789767473961847, -3.5686811579163606)	(2.5662470807854287, -5.136318474580718)	1.0	slash	0.977792
31	M	A	B	N	M	B	N	A	N	8	5	shapes	B	5	False	62	(-8.7433166107085594, -4.2967679785612605)	(-5.2030145974107382, -0.57737320515227886)	(6.2519600008010183, -1.7661623741335148)	(4.5662208676105216, -6.2011082105815891)	1.0	slash	1.09859
32	M	B	N	B					N	4	0	shapes	M	5	False	62	(7.9253049407352165, 4.4023178213987766)	(1.058801348176182, -0.18683040609085033)	(-1.0452681134920621, 5.3006709911819208)	(-2.1982396079676576, -3.6620420119116144)	1.0	slash	0.608932
1	N	B	M	M					B	4	3	shapes	M	6	False	62	(-6.7857249315985779, 4.1632501769005934)	(-6.931018988313161, -8.7213125523730053)	(6.5197864565215671, -3.7083831247857617)	(5.195864412637496, 5.4162921942754192)	1.0	slash	0.546586
2	N	A	N	M	B	M	B	A	A	8	4	shapes	B	6	False	62	(5.999770588753135, -7.0596024220488109)	(-6.1981867775632935, 1.6290283691642351)	(8.6031885563306076, 4.9146575347656682)	(-0.45474041317473812, 7.8419297818177114)	1.0	slash	0.759704
3	N	B	N	A	M	A	B	M	M	8	7	shapes	M	6	True	62	(-2.0610271743974025, -0.46523627365262676)	(0.013157844094513038, -8.2543501705242441)	(5.6520555489675228, -3.7461264489305783)	(0.32597676188595059, 2.7706373545812113)	1.0	z	0.683848
4	M	B	M	N					B	4	1	shapes	B	6	True	62	(5.7828942653131854, 0.52014832196577743)	(-1.3243137107247449, -2.199465993493706)	(7.741796562709311, -7.1162081017794776)	(-2.3499150940309566, 4.6584420650193294)	1.0	slash	0.869479
5	M	A	N	A					A	4	3	shapes	A	6	True	62	(-4.958481152003742, -0.16704403060598771)	(-1.8857191179831041, 4.637631112672036)	(4.6989218598172311, -1.3226881406264139)	(2.4584707268603143, 2.7602097911836303)	1.0	z	0.473235
6	N	A	N	M	A	B	B	M	A	8	7	shapes	M	6	False	62	(-4.0732027484722195, -5.6088670723575991)	(5.8679969572508472, 7.0926229541406762)	(-2.3398987183437558, 3.5317413587332851)	(8.6930782959191717, -2.6843707710031373)	1.0	slash	0.428825
7	M	A	M	N					N	4	3	shapes	N	6	True	62	(-6.2239962416319798, 2.2070885706039576)	(-0.67897682099640377, -3.0784366614787899)	(7.2038178730721381, -8.2139779629270855)	(5.0333828157739458, 6.9027288323580915)	1.0	z	0.736555
8	N	B	B	A	A	M	M	N	B	8	2	shapes	B	6	True	62	(-3.2403595078896803, 0.36444741128508973)	(7.0120593922110324, -1.36552717589114)	(-7.9062645078738498, 7.7896038918830151)	(5.7555772254029733, 8.6205718432619598)	1.0	slash	0.623807
9	M	A	M	N					A	4	3	shapes	N	6	False	62	(-2.0521576456097073, -2.2181140320014148)	(-8.6808547076022666, 4.8622599584672628)	(1.3405945149953933, 4.7351628174732241)	(6.0349468763499576, -7.7229260858820004)	1.0	slash	0.669928
10	M	B	N	M	A	A	N	B	N	8	2	shapes	N	6	True	62	(-3.1841716890520457, -0.39413434856408713)	(5.4779300685077086, 3.5523781668306995)	(-1.2842567813429122, 5.5097683462126792)	(3.4469738794675653, -5.8690948222085577)	1.0	z	0.515507
11	M	A	B	M	A	B	N	N	N	8	7	shapes	N	6	True	62	(-3.1086101334720508, -4.3999369165922273)	(-7.8027186150005461, 0.43966422199696353)	(6.5365043110819148, 7.081653172081829)	(6.7609651023671677, -0.20786061542049339)	1.0	slash	0.614762
12	N	B	M	B					B	4	3	shapes	B	6	True	62	(-1.0526926757567061, 1.2585612834198088)	(2.724368028068346, -1.3260356106098179)	(5.8394463554013445, 4.6648180652386024)	(-1.5239470273487798, -3.6092226783330519)	1.0	z	0.788945
13	M	A	A	N					N	4	3	shapes	N	6	True	62	(-3.2385212588286016, 1.6509758727092478)	(8.1881750048485742, 7.4391047687575806)	(6.5144637029229777, -7.2733426922437561)	(-8.0130130459165017, -1.4374243779179379)	1.0	slash	0.616477
14	N	B	N	M	M	A	A	B	B	8	4	shapes	M	6	False	62	(-0.98269984264923416, 2.9413809141996126)	(6.0940889798430931, -7.1476375538422019)	(0.8484338821859172, -1.79834609384221)	(7.907070231837384, 5.5397974549991158)	1.0	slash	0.489358
15	N	B	M	M					B	4	3	shapes	M	6	False	62	(-1.5714789887103668, 1.1967594894041582)	(5.2206028542103393, 3.2373177541671083)	(7.0329874088963091, -7.4010484917407124)	(-8.3973151595149087, -6.8128705996337349)	1.0	slash	0.753955
16	M	A	N	M					B	4	3	shapes	M	6	False	62	(-0.5125878831127082, 6.1799867405326925)	(-1.7425319451851511, -7.2308380041215097)	(6.6289535458933777, 6.0296407448137241)	(0.47659008881223386, -2.0206772285590295)	1.0	slash	0.725694
17	M	B	B	N					A	4	2	shapes	B	6	False	62	(-2.0274692210907279, -7.8766305517215827)	(-7.8195470061664878, 8.6467986099813601)	(6.1996107421956772, -1.6749780723493206)	(3.660801714705304, 2.664758866264016)	1.0	z	0.84728
18	N	B	A	N	M	B	A	M	B	8	7	shapes	M	6	False	62	(8.1777826292626976, -1.7300173234541685)	(-5.2427908003851558, -3.9519464916294806)	(-4.6544029942479446, 5.6165315412318844)	(-6.7616316192727659, 2.1584167194866843)	1.0	slash	0.640881
19	M	B	B	M	N	N	A	A	N	8	0	shapes	M	6	False	62	(0.15091786535417206, -7.6456542166962427)	(-4.4249791585380933, 5.7700014980788552)	(-7.1613166326519702, -6.2360376688764507)	(6.3367099949317325, 4.0556312559295566)	1.0	slash	0.746652
20	M	B	A	M	N	N	A	B	N	8	6	shapes	A	6	False	62	(-4.8450370046792894, -5.2571591814543304)	(3.6653188867499082, -3.7301665243098796)	(-6.9604213130496104, 1.7015388197161343)	(8.4413940348118963, -3.3719759369785374)	1.0	z	0.495489
21	M	B	A	N	B	A	M	N	M	8	6	shapes	M	6	True	62	(-7.5880124427753106, 4.4947885305088615)	(-1.1178496722620448, 4.407485888849477)	(-0.21385671155003827, -7.3598973174831688)	(3.246107096659042, 3.6908175053077752)	1.0	slash	1.24783
22	N	B	M	M	A	N	B	A	N	8	5	shapes	N	6	True	62	(-8.4784713581128344, 0.47446715867233813)	(-5.3320791040127986, -6.8201093351420106)	(8.6510454962275212, -0.23223394194584301)	(-6.7949030626994027, 6.5662567770338143)	1.0	z	0.577346
23	N	B	N	A	B	A	M	M	M	8	2	shapes	N	6	False	62	(8.3637539895830031, 2.4704772865189994)	(-1.8862982084581841, 8.3962215628841328)	(-0.4511532580937665, -8.5225000174863208)	(0.75413087125878597, -2.5669102415852114)	1.0	z	0.649304
24	N	A	B	N					A	4	1	shapes	A	6	True	62	(-1.1778906117165926, 0.67057626120113767)	(3.4110065335490347, 7.7326705632168675)	(-8.2458104718148793, -8.186222699607427)	(1.1938928813151417, -2.5839165931614891)	1.0	z	0.752832
25	M	A	N	A	N	M	B	B	A	8	3	shapes	A	6	True	62	(-3.8851902359722317, 0.5134564662454455)	(7.6415507489891858, 6.7778595382352602)	(1.5506166695330332, -0.12741989317454916)	(3.8233155817877709, -7.8031069770402137)	1.0	z	0.636521
26	N	A	A	B					A	4	1	shapes	A	6	True	62	(8.297733755276326, -1.4582304876218286)	(-8.5731746204245454, 7.2000859601153806)	(-3.0101601827194653, -7.8945910414069465)	(7.4762414696738126, 5.4824556984911723)	1.0	z	0.688248
27	N	B	B	M					N	4	1	shapes	B	6	False	62	(-0.38283289028342615, 4.3100657659744712)	(5.1443714282041224, -6.2846739715341879)	(2.6966580907941946, 8.0297858899764414)	(-8.1015618648403027, -1.4072879757553158)	1.0	slash	0.871901
28	N	B	A	M	N	A	B	M	B	8	1	shapes	B	6	True	62	(-2.1196810246730262, -6.783250494130586)	(5.5895603203537654, -0.23671897319190727)	(-3.863463432070084, 8.4866493874043485)	(-0.90775749399409289, 4.1204822789724975)	1.0	z	0.803566
29	M	B	B	N	N	A	M	A	A	8	3	shapes	N	6	False	62	(-5.6261181540805669, -5.785023444273568)	(4.1309350605372259, -5.6428902130616221)	(-8.6350380986182458, 0.56299061754894453)	(7.8447949208084253, -1.7113203932031764)	1.0	slash	0.734607
30	M	B	M	N					A	4	1	shapes	B	6	False	62	(0.36411607715805516, -6.261071266707396)	(-5.1564165417741821, -0.6975391879626347)	(-3.7695774240257238, 6.4711993812797264)	(4.4271683355972815, 4.7997451214520073)	1.0	slash	0.804106
31	M	B	A	B					M	4	3	shapes	B	6	False	62	(1.2535720732408429, 5.2717112053960182)	(-1.8220904003239156, -5.0142556661803548)	(8.3397274037557629, -7.3570799747707945)	(-7.9560330086104845, 5.3899652468592514)	1.0	slash	0.598498
32	N	B	N	M					M	4	3	shapes	M	6	True	62	(-0.37975575376190207, 4.2709767257349949)	(-2.7462396028674902, -8.0364938971812858)	(3.4070964085610793, -5.6249594456982246)	(7.5801648726684654, 3.5489884482686591)	1.0	z	0.576186
1	M	A	M	B					A	4	1	shapes	A	7	True	62	(6.3299577498114417, -1.9559981576783176)	(-4.3704556900114824, -6.1348646702060536)	(6.2195373887896555, 3.7824517072234691)	(-1.6353282333698749, 2.8808365115869705)	1.0	z	0.587942
2	N	B	M	A					A	4	3	shapes	A	7	True	62	(2.5361668407192024, 4.2628929742263715)	(3.3002138522277562, -3.1293872784571581)	(-5.5789146025211842, -0.42234543586197582)	(-3.6989764692960421, 8.6881765327807408)	1.0	z	0.501431
3	M	B	N	A					B	4	2	shapes	N	7	False	62	(1.8879583073643609, 1.7612411411897551)	(8.6676292853237307, -2.4427789052642428)	(-7.8102201824152777, 3.0587145321694162)	(-2.7094894321866176, -3.1004420341421222)	1.0	slash	0.641061
4	M	A	N	M					B	4	1	shapes	A	7	False	62	(5.8712872571493087, -3.077925847168471)	(-6.7615948537397923, 7.2764583042412028)	(-7.5460658922571753, -3.5004404631468393)	(1.0502280659837293, 5.998243675575738)	1.0	z	0.544672
5	M	B	A	N					M	4	1	shapes	B	7	False	62	(7.1143852191186721, -2.4708187558671417)	(-6.3848848525326165, -3.972750214324944)	(2.9552945175259655, 5.870601700522986)	(-3.285765189628119, 6.3947878065429293)	1.0	slash	0.684505
6	N	A	N	B					N	4	1	shapes	A	7	False	62	(-6.2199877804595403, -2.7375533961156222)	(4.4145065259974636, 7.951324970709603)	(4.8310740125324418, -1.8931569851269661)	(-5.1921623236107344, 1.1542012975688625)	1.0	slash	0.814282
7	M	B	N	A	N	A	M	B	B	8	1	shapes	B	7	True	62	(7.4943645125171585, 4.1449154557304411)	(-4.2482709907156142, -0.86071646591966822)	(2.4300580886455929, -5.4677586850684659)	(-6.651096837356544, -6.1145682012860672)	1.0	z	1.26407
8	N	A	A	B	N	B	M	M	B	8	3	shapes	B	7	True	62	(-7.560946899830471, 5.8483499020079002)	(4.174092147143341, -0.0046601553668086382)	(-0.5221875283289279, 8.2512121642220606)	(3.28368696118347, -4.4212905437309713)	1.0	z	0.606783
9	N	B	N	A	M	B	M	A	N	8	2	shapes	N	7	True	62	(-7.5969494753227664, -8.4004395441306627)	(-8.6355327971101783, 2.5431556973717235)	(-1.8625770681880685, 4.6205810756718293)	(8.0450907333051518, -3.502151997267406)	1.0	z	0.504933
10	N	B	M	B					A	4	0	shapes	N	7	False	62	(-5.7346698763452366, 6.9016387067317702)	(4.8720079659763726, 2.7702813121380085)	(4.938691958303524, -5.0017011852246647)	(-0.92870955930816912, -8.4180164928023089)	1.0	slash	4.03917
11	N	A	B	N	M	A	B	M	M	8	7	shapes	M	7	True	62	(-4.3621355851545562, -6.9009296922191314)	(-5.0923608671904343, 3.9421879628013148)	(-0.37609023171120626, 7.0150154478053039)	(-7.8082379444479582, -3.6056914186558862)	1.0	slash	0.833742
12	M	A	A	B	B	N	M	N	A	8	0	shapes	M	7	False	62	(-7.8551281276880562, 0.11494519209125897)	(7.2731815453279971, 8.355630152259895)	(-5.5105815079412057, -3.7407838380748037)	(6.5761954960035656, 3.6404297183471748)	1.0	slash	0.821934
13	N	B	B	A					N	4	0	shapes	N	7	True	62	(-0.38923661453438463, -6.3680166402942007)	(8.725920591964929, -3.7448597354089053)	(6.3176685398836749, 7.7751266122526594)	(-7.9302423273107028, 1.0063319749485355)	1.0	z	0.507239
14	M	B	N	B					M	4	0	shapes	M	7	True	62	(-2.214618755658929, 1.4814984401764004)	(7.8474182551800489, 7.8415829843325504)	(3.7382698169847419, -5.6727286544920954)	(-0.64164463737447619, -2.2971052253254403)	1.0	z	0.399098
15	M	A	M	B	N	N	A	B	N	8	4	shapes	N	7	True	62	(2.6322862543104364, -7.134857752392227)	(8.2113684813672201, 4.8092451784931374)	(8.5794684887991224, -6.7538880033959163)	(-5.2008299050455795, 7.619372423710729)	1.0	z	0.452333
16	M	B	B	M					A	4	1	shapes	B	7	False	62	(5.8616716507454871, -0.79962985218667448)	(4.2859456201220851, 8.2423476248289944)	(-6.8551582583748161, -6.8996799985733555)	(-0.6096351118959511, 6.9468813278246451)	1.0	z	0.586414
17	M	A	A	M	N	B	N	B	M	8	6	shapes	N	7	False	62	(-5.6823108984537845, 4.9001923364054925)	(3.6917855966969491, -7.9884495543923961)	(1.9952581722950313, 4.9599424789899054)	(-6.0241831239519676, -7.8157586883004138)	1.0	z	0.383575
18	N	B	M	M					B	4	1	shapes	B	7	True	62	(1.2877059509976476, 1.8175023593371691)	(2.0186155568030202, -3.0436420618570814)	(-6.7323712688145854, -4.4543026066029263)	(-6.6006581627346854, 6.6989914094261245)	1.0	z	0.573933
19	M	B	B	M					M	4	3	shapes	M	7	True	62	(-8.0374748688906887, -1.1441699198695519)	(2.1087491051611948, -6.3389491947849077)	(5.1639228453144845, 2.4975457746244309)	(-6.4217618521196638, 6.5428945865343699)	1.0	z	0.37962
20	M	B	N	N					N	4	3	shapes	N	7	True	62	(-0.23334463064491295, -6.4113501672110758)	(-7.1244367428633275, 0.96008788770665454)	(8.3217943080237546, -7.8611119822042266)	(8.7497205160485194, 0.37483953616679422)	1.0	z	0.409173
21	M	A	A	N	N	B	M	B	N	8	4	shapes	N	7	True	62	(-4.8218778004777851, -5.6029295825814698)	(-2.5393098746590219, -0.3825069845572564)	(2.4446431222372897, -3.2504119698920828)	(3.1244915262451425, 7.6505399339218201)	1.0	z	0.538427
22	N	B	M	B	N	M	A	A	A	8	0	shapes	N	7	False	62	(-8.233767941803519, 4.6027794379595868)	(-0.016297527466411665, 6.7598061848659299)	(1.762740797648382, -5.6818167953560419)	(6.0628792565421445, 3.5189401867262333)	1.0	slash	0.721856
23	N	B	A	A					A	4	1	shapes	B	7	False	62	(-0.11277794898819948, -4.8009390565983789)	(-3.5546694143296147, 3.4838690402403714)	(7.9891394374023967, -2.341944161256075)	(5.220127106646121, 4.7430824133203835)	1.0	slash	0.716111
24	N	A	A	N	B	B	M	M	N	8	2	shapes	A	7	False	62	(-3.4961932948139518, -2.6580525363920637)	(-0.41818205926448826, 0.46896372182450818)	(-8.7428925312622283, -1.2852225385579219)	(0.77291645373162687, -6.7880903560234209)	1.0	z	0.98604
25	M	B	B	A	N	M	N	A	M	8	3	shapes	A	7	False	62	(5.5343979747600347, 4.2451947067875917)	(0.6521067407068486, -1.3834786044173875)	(-1.7232529860593404, -7.8026759668276471)	(-0.44334859299179996, 7.5816773385934724)	1.0	slash	0.727605
26	M	B	B	M					M	4	3	shapes	M	7	True	62	(-5.8370884634324307, -7.6186957906241499)	(6.9908511929193455, -3.1446912879498612)	(1.1699572253147998, 0.18076297592497248)	(-6.0916506166910338, 7.2911636986255175)	1.0	z	0.441459
27	M	A	M	A	N	N	B	B	B	8	6	shapes	B	7	True	62	(-1.0270239153295231, 2.1292364286579755)	(3.4122430757746098, 0.37926995113883777)	(8.1078920682976978, 4.160016003895425)	(-2.2213983492935077, -7.6394831496329871)	1.0	slash	0.364702
28	M	B	M	A	N	A	N	B	A	8	6	shapes	N	7	False	62	(-6.7022713402825644, -6.5987776066927495)	(-2.9846703524758595, -3.9874881302963203)	(6.0950321444311903, 3.6632448099338646)	(3.4309425334360597, -8.4761413167055828)	1.0	slash	0.648717
29	N	B	A	A	M	N	B	M	A	8	2	shapes	A	7	True	62	(4.350233194385499, -0.48835275011497714)	(-7.8152192206862816, 0.081688336333591849)	(5.2824336091192841, -6.8440120565131481)	(-4.1293185891076156, 8.0749918683091195)	1.0	slash	0.665704
30	N	A	N	M	A	B	B	M	N	8	5	shapes	B	7	False	62	(-4.2960309312961948, -4.8112000396511156)	(-4.8703831437406073, 4.7204356007092301)	(3.5825151843094165, -5.1021595401880298)	(-8.7031435857723505, -4.7255981971915153)	1.0	slash	0.567853
31	M	A	A	B					M	4	1	shapes	A	7	False	62	(0.28262632906627871, -4.3229486799133028)	(-2.2381696679392693, 3.2091364788385288)	(8.1698193272434345, 2.6314085430360432)	(-5.2974794726787344, -3.5666738601733678)	1.0	slash	0.623573
32	N	B	M	M	N	A	A	B	N	8	5	shapes	A	7	False	62	(1.1470123027524668, 0.093955016493126209)	(-5.7141638507257699, -4.589651912786672)	(6.5086079672567472, 5.8756189601747231)	(-5.4442679604482551, 0.68233932667636488)	1.0	z	0.7994
1	N	A	N	A					B	4	0	shapes	N	8	False	62	(3.7247777349715587, 5.7267521949502811)	(-0.53890317161604528, -5.9177705473205773)	(-5.8585976470632781, 4.1704503405055036)	(6.6132680579466765, -8.0524428230460217)	1.0	slash	0.822928
2	M	A	M	B					A	4	2	shapes	M	8	False	62	(-5.7411324971588025, 5.0792829711794116)	(-5.655809968833319, -4.0357595896061174)	(1.6639042183796473, -2.9120479813613072)	(1.0328899753531857, 7.2658054811883019)	1.0	slash	0.868696
3	M	A	A	B	N	M	N	B	B	8	3	shapes	B	8	True	62	(2.2078366311631292, -1.177131940051253)	(-2.9209150056646784, 0.18054177420841633)	(0.23425837238496783, -8.1646666770182268)	(-4.1787842960962758, 7.1519143648944983)	1.0	slash	1.11569
4	N	B	A	M					M	4	2	shapes	A	8	False	62	(-7.7077295588700707, 5.0103641755682062)	(-7.8590702435410424, -8.1040172001340007)	(6.0895087957150302, 2.9214766749100942)	(1.3648701077855172, -7.9440426880248651)	1.0	slash	0.911891
5	N	A	B	N					B	4	1	shapes	A	8	False	62	(-5.6468723467290918, 3.8676448553596305)	(1.9007867356644788, -2.5872007112021667)	(-3.8690384311229593, -2.7622507510016474)	(4.6429184968924577, 0.48188831354078054)	1.0	z	0.83346
6	N	A	N	M					M	4	3	shapes	M	8	True	62	(-2.1873825309079979, 5.6545447045880195)	(-2.4719559467751715, -1.2145042049917052)	(6.8571596517532658, 5.6868342004464338)	(1.2734184813043132, -6.3132341110957704)	1.0	z	0.381175
7	N	A	N	M	A	B	M	B	M	8	1	shapes	A	8	False	62	(-1.8100378000074038, -7.8130219698738639)	(1.5811010907978993, 5.9561787895232836)	(4.8674672787018416, 3.4935873219352729)	(-4.5191705496926486, 7.53767862283037)	1.0	slash	0.780101
8	N	B	N	A	M	M	A	B	B	8	3	shapes	A	8	False	62	(-2.5766997544143679, -2.87377615744564)	(3.4774793744250267, -6.8769121382795806)	(-5.1209074861139836, 3.685003799617359)	(-0.61412101863549218, -6.5640802633490107)	1.0	slash	0.64449
9	M	B	A	A					A	4	2	shapes	A	8	True	62	(6.7691041091347834, -2.1050320568968459)	(8.1130253862189328, 7.6929271849656473)	(-8.2038780920016876, -3.4360824028088786)	(-6.4498792514472889, 2.2916353102837625)	1.0	z	0.47807
10	N	A	A	N	B	B	M	M	M	8	7	shapes	M	8	True	62	(-7.9109723732519361, -7.1625271307583667)	(7.76779567838215, -5.4496858703143705)	(-0.25778553283012506, -6.2819171819584607)	(-7.4573659165960109, 1.262479679934426)	1.0	slash	0.633948
11	M	A	A	B					N	4	1	shapes	A	8	False	62	(1.0939749510892547, 7.4265344398594451)	(-5.9583533521414864, 8.2782707957416335)	(7.7561395408092082, -7.2329301407328348)	(-1.1182162048750959, -4.7113484581383531)	1.0	slash	1.26152
12	N	B	N	M					N	4	0	shapes	N	8	True	62	(-1.7131097608923032, -4.866315457250062)	(2.1701972603802027, 2.2711639235605041)	(5.2616463665772386, -3.498837308281769)	(-7.3281200957472405, 3.7379127621551103)	1.0	z	0.443148
13	N	B	M	A	M	A	N	B	N	8	6	shapes	N	8	True	62	(-5.8212475473442833, 8.1712417584594839)	(-0.50659290124840339, 2.5001268350062453)	(0.90167778702975099, -6.8065200149052218)	(8.1404866165222884, -1.4064574696100491)	1.0	z	0.524828
14	N	A	B	B	M	N	A	M	B	8	6	shapes	A	8	False	62	(0.28616928765825733, 1.7429150172760384)	(-5.1415725476874981, -0.19775501619773017)	(-6.9827048272412036, 6.1151621743894626)	(5.093772737071351, 2.1336785529705615)	1.0	slash	0.574629
15	N	B	A	A	M	N	B	M	N	8	3	shapes	A	8	False	62	(-7.822924231317419, 0.90718462588651683)	(-2.2379394074029619, -4.3222879839376978)	(7.0328774596099617, 0.69936354144309121)	(-0.75799114218338026, 4.0600073457317762)	1.0	slash	0.341525
16	M	B	B	N					A	4	0	shapes	M	8	False	62	(1.1813940547127384, 0.13078303190278362)	(-8.6050601766781565, 3.3023918050501369)	(-5.3012693911169571, -0.23356727301722024)	(3.2387272617220422, -3.5690391128995342)	1.0	slash	0.697896
17	M	A	N	B	B	N	A	M	A	8	6	shapes	A	8	True	62	(-1.2033667617347978, 7.7326315384450162)	(2.8637009077903191, -4.3016320168724871)	(-4.4471776550665369, 1.1451449345251614)	(7.152966753851814, -1.8135315466126372)	1.0	z	1.44926
18	N	A	M	A					M	4	0	shapes	N	8	False	62	(-1.4131105575462168, -7.3450510681352688)	(-3.0632807361337138, 4.7898255391343341)	(2.5865879043620801, -0.34988777545128613)	(3.2998487246549502, 6.6091049854461694)	1.0	z	0.647238
19	N	A	M	A	M	B	B	N	A	8	6	shapes	B	8	False	62	(3.4422189347170917, -1.8450364195408682)	(-4.113319838093016, 1.691520015170596)	(1.8691160218751328, 7.7546561547948016)	(-2.4538552401795188, -3.1133677772250996)	1.0	z	0.464805
20	M	B	N	M	A	A	B	N	M	8	3	shapes	M	8	True	62	(-4.3103806838568319, 6.4130343914871162)	(-2.5037902352270578, -7.3799769194541804)	(3.8803434369595688, 3.4090836621890404)	(4.7753467646954846, -8.0686215127757741)	1.0	slash	1.63004
21	M	B	M	N	B	N	A	A	M	8	1	shapes	B	8	False	62	(-1.873745904502198, -6.7524741325170892)	(5.3867528023692532, 4.4056195062971888)	(4.8273373606471992, 8.6236650985610375)	(-6.9991599457760341, -7.453185665075333)	1.0	z	0.611965
22	M	B	M	A					M	4	1	shapes	B	8	False	62	(4.5497532434507235, 6.4909343823730836)	(3.2214508228339529, -7.778774329343638)	(-3.1541241227392423, -6.2685769989958686)	(-1.6433019758777148, 4.4020468708677853)	1.0	slash	0.563665
23	M	A	N	A					M	4	0	shapes	M	8	True	62	(5.3467326733854357, -8.0693658638567189)	(-0.56149097446708218, 7.124833311281014)	(5.7925230230132154, 1.2003989906582433)	(-2.3389901652264449, -8.1280718141182504)	1.0	slash	0.525485
24	M	A	N	N	M	B	B	A	N	8	3	shapes	N	8	True	62	(-0.040505999304992102, -6.0189556650754703)	(-7.1180265466289434, 7.3274428916796879)	(1.9008655764865612, 8.6099836609066287)	(4.4587358454179142, -2.9462988322920234)	1.0	z	0.799209
25	M	B	M	B					B	4	1	shapes	B	8	True	62	(4.1825862622407435, -5.7170304896081952)	(-3.2321454191801067, -6.5174410973307761)	(3.7269502676585944, 1.3023180148412354)	(-8.4797673795800161, 8.3310486071759016)	1.0	z	0.712632
26	M	B	A	B					B	4	1	shapes	B	8	True	62	(-4.7253895025941484, 5.5910926529486797)	(2.1047043002718908, 7.7685345429910804)	(5.8074919594103562, -7.2895392866958062)	(-5.533045167140358, -8.4662508156135505)	1.0	z	0.556517
27	M	B	B	M	A	A	N	N	A	8	6	shapes	N	8	False	62	(-7.8274649424713889, -1.6095220855496066)	(8.3366439228397411, 7.5129015765517551)	(-7.9688741604727671, 3.6547391416990234)	(-4.3748509155319573, 7.3506087763212378)	1.0	slash	0.454055
28	N	A	B	N					N	4	3	shapes	N	8	True	62	(1.8057946035004431, 2.8337601223553897)	(-2.303517961071778, -2.7821530890069539)	(-6.0985665746280109, 6.3357574576917042)	(6.4693392208573375, -2.3893038858869353)	1.0	z	0.387725
29	N	A	B	A	N	B	M	M	N	8	0	shapes	N	8	True	62	(-4.1930288674042355, 3.4438893353451547)	(-4.8176217003231931, -6.4188209024392879)	(5.7126896350454821, -2.8076892660230532)	(3.6778222328408727, 1.7958822182367822)	1.0	z	0.457526
30	M	B	N	A	A	M	N	B	N	8	5	shapes	M	8	False	62	(7.6941980006567228, 1.8266879595542491)	(-0.57024197315636904, 7.8240249794546379)	(4.8219109534758129, 6.7961291018428724)	(-1.001332795299307, -2.8212817027331702)	1.0	z	0.609029
31	N	A	B	A					N	4	0	shapes	N	8	True	62	(0.20911474784380957, 1.9082491360354261)	(5.4116723852824098, -2.296600511079383)	(-3.0227681732596636, -3.8559181672205893)	(-6.5859452541727324, 4.4029666148556039)	1.0	z	0.424607
32	N	A	M	B	M	A	B	N	B	8	6	shapes	B	8	True	62	(1.0212342557134075, 8.7081664966297012)	(5.3175462901396457, 7.8292114255046812)	(3.2136704124800275, -0.17970763360732356)	(-5.1052999799604013, -7.2536751817593688)	1.0	slash	0.454389
