TrialNumber	stim0	stim1	stim2	stim3	stim4	stim5	stim6	stim7	stim.probe	ttl.stims	corr.num	trial.type	stim.corr	block	match	Subject	stim.pos0	stim.pos1	stim.pos2	stim.pos3	ran	resp	RT
1	N	A	M	B					B	4	3	shapes	B	Practice	True	63	(4.7011452680673838, 1.5489553370635392)	(-0.76392574691001958, 8.5224370838013748)	(-6.2128047889242186, -6.2556447277973461)	(5.2966257721883778, -6.354006508122227)	1.0	z	4.57453
2	M	A	B	N	A	N	M	B	A	8	5	shapes	N	Practice	False	63	(2.0201339047501818, 3.9008486061482603)	(6.8313464987621266, -4.1626317919642126)	(-8.4885935991382908, 8.1944105461590837)	(-7.6947936000227575, 2.9568417549956578)	1.0	slash	3.85955
3	N	A	A	B	M	N	B	M	A	8	1	shapes	A	Practice	True	63	(0.75799950915504688, 8.2411403256284856)	(-3.0802636458383486, -2.618700325791921)	(-5.4585712320805451, 6.3583854164604645)	(3.6186290713151159, 2.1271754268268861)	1.0	slash	3.88208
4	N	A	B	M					A	4	2	shapes	B	Practice	False	63	(-3.0433404571115164, -7.2482355616082659)	(4.4452790082668496, -6.4068188393251049)	(5.3841830011445335, 5.2416548897588111)	(-7.1998206057263392, 2.5911612587575181)	1.0	slash	1.44211
5	M	A	N	M	N	A	B	B	A	8	1	shapes	A	Practice	True	63	(3.2642733938847979, 0.24292265663778068)	(-1.4482144995988664, -3.5387532508684441)	(2.7345275842701611, 4.8171564274013292)	(-3.9910187752101827, 2.9045665170559811)	1.0	z	1.4112
6	M	A	A	B	M	B	N	N	N	8	0	shapes	M	Practice	False	63	(5.3092376164479695, -7.8803107381460844)	(-6.927368705801956, 2.9035593747516177)	(7.2390798503515654, -3.4367302755238178)	(1.250127707939372, 8.536575707850993)	1.0	slash	1.45116
7	M	B	B	M					B	4	0	shapes	M	Practice	False	63	(-5.1538037779391939, 6.4811820365228243)	(-2.5613770056102441, -3.4121685932306347)	(5.7920957278543597, -8.7482605326316083)	(6.0438513240375009, 1.2283159051944068)	1.0	z	2.0649
8	M	B	A	B					M	4	0	shapes	M	Practice	True	63	(3.0129338559758345, 1.1034655279859766)	(-6.6480483022912615, -4.6363979786588843)	(7.8096269598047598, -3.2129919935766917)	(-2.2049752760646708, 3.853239008891336)	1.0	z	0.718335
1	N	B	A	N	A	M	B	M	M	8	5	shapes	M	0	True	63	(-0.92338113562980073, 0.059469190429444652)	(4.2265303372747489, -3.3312719175822076)	(3.5629566402258632, 6.4449546221143148)	(-6.5801784255696614, -1.4430364297498439)	1.0	slash	1.34024
2	M	A	N	A					M	4	2	shapes	N	0	False	63	(4.9243084961462031, -7.0741607629086039)	(5.3900022057330315, 3.2881166054966631)	(-8.1896730998993998, -0.64167792293552139)	(-3.438474530917766, 6.1260347230067165)	1.0	z	1.09789
3	N	B	A	A	N	M	B	M	M	8	0	shapes	N	0	False	63	(1.1226146375025206, -0.56055295009026906)	(6.0815282948975717, -0.88439552138838007)	(2.5565915705353088, 6.307765413328136)	(-7.2833054071790944, 2.0311843986103639)	1.0	slash	0.720858
4	M	B	B	N					N	4	3	shapes	N	0	True	63	(1.1767937623531068, 1.338302901685509)	(6.1112961319415415, -2.3251664139667882)	(-3.0585914528151905, -2.4698733200430567)	(-5.3802434116744973, 0.91127901925424837)	1.0	z	0.672891
5	N	A	N	B	A	B	M	M	A	8	7	shapes	M	0	False	63	(3.0776772272512929, 4.902003397179687)	(7.8333761331914005, -1.1396939114095517)	(-3.8266186968560811, -2.004236153280381)	(5.5919839900440138, 8.2998294855494024)	1.0	slash	0.948755
6	M	A	B	A					M	4	1	shapes	A	0	False	63	(5.8378937244400895, -8.3832121323480422)	(-8.7060530212133198, 1.3205584652348232)	(-6.1710786322550284, -4.2939510436649329)	(6.4260789590637977, 1.3815614966618668)	1.0	z	1.79837
7	N	B	A	B					M	4	3	shapes	B	0	False	63	(1.2767525966544468, 4.0183879072128814)	(7.8211975951131372, -4.0279474957471999)	(-3.3807398377399505, 6.4758966163367138)	(-5.0423671622210362, -3.7947252168971062)	1.0	slash	0.845801
8	M	B	N	M	N	B	A	A	B	8	3	shapes	M	0	False	63	(-2.8563739988978893, 7.086334775205172)	(1.5143321837116162, -6.054332345217686)	(-3.6933705702855875, -2.8282861842697447)	(6.7599938095929044, -5.4276042963706264)	1.0	slash	0.86361
9	N	A	M	A					N	4	1	shapes	A	0	False	63	(0.12125793269182772, 0.24785789258716839)	(-8.2038794801078581, 3.9670226552492558)	(0.99135242790105238, -6.345824291774365)	(-5.0788942809396342, -5.976832159684454)	1.0	z	0.253119
10	N	B	B	M	N	M	A	A	M	8	6	shapes	A	0	False	63	(-1.2391109254515413, 1.0135663830417716)	(-5.5249958417851897, 8.0888822809108625)	(4.2494632708647444, 4.59593154537888)	(6.176586191291932, -0.76232590555515767)	1.0	slash	0.797038
11	N	B	M	A					N	4	3	shapes	A	0	False	63	(1.0129141678457501, -5.3598466363246668)	(-5.1662158516817378, -4.607620475443543)	(7.2220386701592609, 4.5666067767979328)	(-6.0971460635551242, 2.5907898531087863)	1.0	slash	0.640834
12	M	A	N	B	M	A	N	B	N	8	2	shapes	N	0	True	63	(4.1437285432263451, 7.153930903310421)	(1.0998273142121064, -0.6670849053716168)	(-5.2283496163788969, -7.7776249876994896)	(-6.620624445005638, -2.2094538798439851)	1.0	slash	1.39551
13	M	B	B	M	A	N	A	N	B	8	4	shapes	A	0	False	63	(5.2030038739873614, 3.9139744073711533)	(-5.1602485099063653, -1.3503339890863924)	(-1.0746698430399082, -0.41707292439216914)	(-8.5036791936836007, 5.0865980895790983)	1.0	slash	0.697397
14	M	A	A	B	N	N	M	B	A	8	5	shapes	N	0	False	63	(5.0102281083724254, -1.4487959661856813)	(-0.62468185905078677, -0.85345157269847061)	(7.2578637128154817, 7.5692409376181331)	(-2.4978087243081184, 3.4055939113979488)	1.0	slash	0.64901
15	M	A	M	B	A	B	N	N	N	8	7	shapes	N	0	True	63	(-7.8102232600825872, 0.63478897995494776)	(8.6741321478669455, -3.3429135489792143)	(-3.1087351325730781, -1.020410793882955)	(0.32094963702286705, -4.2686556348106413)	1.0	slash	0.683289
16	M	B	N	A					A	4	1	shapes	B	0	False	63	(7.0000496471276481, -2.7006767721274691)	(-8.6676786405457857, -4.0366270265229822)	(1.4758375436565458, 0.93503334967842733)	(-8.3560881196288399, 0.8422554349181226)	1.0	slash	1.09093
17	M	B	A	A					A	4	2	shapes	A	0	True	63	(-2.0604365586091102, 2.2941353655994927)	(4.168350432888225, -1.0727149029383334)	(-0.65593535874900866, -2.9027956039739768)	(8.1191981265447168, 1.3086515459276598)	1.0	z	0.914507
18	M	A	A	B	M	B	N	N	N	8	2	shapes	A	0	False	63	(0.88753100032772636, 0.81884098768810354)	(5.5439950128903348, -3.0165189441608868)	(-4.0794222295447264, -7.4178608179110528)	(-3.3259133647875165, 3.3464518329493558)	1.0	slash	0.373355
19	M	A	A	B	B	M	N	N	A	8	5	shapes	M	0	False	63	(1.8976010907288234, -3.536236167091646)	(-3.758650741691417, 1.780602576948338)	(0.80004585235369774, 5.0636806501730351)	(8.1959927359901563, 1.3495350296615989)	1.0	slash	0.269242
20	M	A	M	N					N	4	3	shapes	N	0	True	63	(-7.4460158965581318, 1.5008708196365674)	(0.18902648266691102, 3.8940993400495785)	(0.44020317173057677, -2.8244129110941376)	(-4.5178680753355982, -5.7794987377810791)	1.0	slash	0.625317
21	M	A	M	B	B	A	N	N	N	8	7	shapes	N	0	True	63	(6.622322043573833, -7.4968358463605922)	(-8.7103432024772545, -3.7279455015850775)	(-0.93471594273546632, 8.7298620315644904)	(4.6094471600308644, 6.5589985089935006)	1.0	z	1.4151
22	N	A	N	M	M	A	B	B	N	8	0	shapes	N	0	True	63	(6.9320096553667216, -6.366019706479765)	(-0.21616396580698449, -4.2522945362854205)	(6.7255061096937485, -1.9504367371333462)	(-4.3843394625385823, 4.8047404372515956)	1.0	slash	0.542694
23	M	B	B	M	N	A	A	N	M	8	3	shapes	M	0	True	63	(7.5000669125707375, -7.6229915139525097)	(-4.8599657996953631, 3.4036821194386899)	(0.86037703204454097, -6.4178612217667759)	(-1.3223964257762368, 6.4917497384497889)	1.0	slash	0.532453
24	N	B	A	M	M	A	B	N	B	8	6	shapes	B	0	True	63	(-6.0746746579180915, 8.0216686615772197)	(6.3347689999362053, -3.5522349300383889)	(-3.4166334550670454, 1.5484646341389006)	(-3.3551139185602139, -7.706197133589578)	1.0	slash	0.652052
25	N	B	M	B	N	A	M	A	A	8	5	shapes	A	0	True	63	(-7.9396431554771043, 6.7495029386759171)	(0.93532085717213853, 5.7406364325864629)	(-3.8465492333937101, -1.6478923506073633)	(3.620966869140382, -7.5973706037949533)	1.0	slash	0.419669
26	M	B	N	M					M	4	3	shapes	M	0	True	63	(-6.7643841637801803, 1.5418980353813652)	(-8.2078479857708295, -7.9256454972672117)	(6.1977158262014047, -4.476749603310628)	(8.5492032522919921, 3.4709329656379904)	1.0	slash	0.521358
27	N	A	B	B					N	4	0	shapes	N	0	True	63	(-7.7182839105508894, 3.8893701522967721)	(6.4157312692124293, -5.0382326499274486)	(-7.3029172555408293, -1.9302150545232042)	(5.5547047454978671, 2.9880839565331865)	1.0	z	0.875229
28	N	B	N	B					B	4	3	shapes	B	0	True	63	(-7.1786675785565386, -4.4518329009745656)	(0.053758485250348542, 0.29800783647398355)	(7.7738676466121888, -6.3187206384047183)	(-4.4236196253987776, 6.8630717348795436)	1.0	z	0.61451
29	N	B	A	A					B	4	1	shapes	B	0	True	63	(1.4655983483841677, -2.0103038856059356)	(-7.0733844197205702, -8.4586497392567725)	(-5.4634314044387482, 5.7247739118778895)	(8.3905352267639479, 7.7686557261303264)	1.0	slash	1.11039
30	M	B	B	A					A	4	3	shapes	A	0	True	63	(0.12814613787229945, -0.08441440617355056)	(6.8207430975344376, 2.5352146966244984)	(-2.61339924816372, 7.7272807775450687)	(-8.2424224727485527, -1.4105061086526565)	1.0	z	0.54367
31	N	B	A	B					B	4	2	shapes	A	0	False	63	(-6.1385752095328403, -0.77507934651149846)	(6.8720363833825129, -8.4571753813512967)	(1.3217891547141676, 1.0000454174261506)	(-7.807433001172094, 7.1778232858649673)	1.0	z	0.307758
32	N	B	M	M					B	4	3	shapes	M	0	False	63	(-3.8569449482788407, 3.116085113861633)	(7.0024521481906135, -4.8205584329413709)	(2.1247582999521555, 5.9527149253400609)	(-0.77235868096072124, -8.2511338460208812)	1.0	z	0.671633
1	M	A	M	A	B	B	N	N	N	8	7	shapes	N	1	True	63	(1.5829445372775499, 2.198759158960069)	(-2.4196950338756658, 2.1371387308347227)	(3.5573178345542011, -2.5000299722952848)	(-3.9777313229743134, -2.1907171350063903)	1.0	slash	0.588632
2	M	A	M	B					N	4	3	shapes	B	1	False	63	(3.3161055590020023, -1.4413308469800095)	(1.2083979884795717, 5.9149720468552065)	(-6.9630043289395562, -6.1781030919307929)	(-5.9866674025976074, 7.9228241648526136)	1.0	slash	0.454579
3	N	B	B	N					B	4	1	shapes	B	1	True	63	(5.5457006080716607, 4.3573553036975241)	(-3.6556192625379786, -0.63513510780860294)	(6.3914258578051708, -2.8224094527155241)	(-8.4201087616396499, 5.9569982359805387)	1.0	z	0.342389
4	M	A	B	A	N	N	M	B	M	8	6	shapes	M	1	True	63	(5.2721509247704184, -6.9986999814574595)	(-4.6299554971464634, -2.2217628337823285)	(2.599963622943692, -3.8536670108938971)	(0.74218634231573155, 4.3562107170385946)	1.0	slash	0.484083
5	N	A	B	A					N	4	2	shapes	B	1	False	63	(-2.3975413514709327, -1.4258257304850082)	(2.8574180933860607, -1.267806590448366)	(2.9051427181385829, 4.1804649728677266)	(-1.2168682339661023, 8.2823470143935758)	1.0	z	0.629921
6	N	B	A	B	N	A	M	M	B	8	1	shapes	B	1	True	63	(-8.4684959722188964, -0.020956283588473568)	(-2.8399969577445052, 3.1724626445660871)	(8.5069977652857034, -7.5423637764294771)	(8.1046195060809936, 3.4943367588370968)	1.0	z	0.683439
7	N	B	A	A					N	4	3	shapes	A	1	False	63	(-2.4518616243709914, -6.605351842220947)	(-3.8353369667647579, 8.2473818466721447)	(1.4122789210014375, 1.2056829155707707)	(4.068916351264221, -2.4922061195829217)	1.0	slash	0.63701
8	M	B	A	M	N	B	A	N	A	8	2	shapes	A	1	True	63	(7.2738147807353215, -0.77166738294569903)	(-0.58097294453456527, 4.1303768099190243)	(2.7961607613859254, -3.6120553154687007)	(-4.2324893339226506, 5.791054819193322)	1.0	z	0.736907
9	N	A	N	M	B	A	B	M	N	8	5	shapes	A	1	False	63	(-7.6456036324126329, -1.5783740533336683)	(0.80082036699610271, 0.053356100692768749)	(-7.8762454250749991, -7.2682920157164599)	(-1.3702065755936159, 7.8680999588025031)	1.0	slash	0.720636
10	N	B	B	M	M	N	A	A	B	8	1	shapes	B	1	True	63	(0.025074654452890144, -7.1664141652515791)	(6.8202016169902393, -4.5165022630660498)	(-6.2603392046960114, 8.3982670237643617)	(-8.417127797786808, -7.1663451338310011)	1.0	z	0.579562
11	N	B	M	N	A	B	A	M	A	8	3	shapes	N	1	False	63	(-1.8566633412231157, -8.7328301278386142)	(4.3753838978624167, -6.8886833133948366)	(-6.292611044727372, 7.6734046187291156)	(1.9573625142684374, 8.6842205415073117)	1.0	slash	0.395277
12	N	A	B	B	A	N	M	M	M	8	5	shapes	N	1	False	63	(-5.2683210091522756, -4.6195019458759683)	(-5.5552685772571966, 4.2460093692362886)	(8.0855969075381822, 7.9888029250815755)	(1.524866743099734, 1.4627369891031705)	1.0	z	0.429002
13	M	B	A	M					M	4	3	shapes	M	1	True	63	(-1.1301960640958058, 2.1067631962458062)	(-0.34871857351331137, -4.4194182371529598)	(5.5835527141099295, -2.0101516761022244)	(3.9157908712528879, 3.9278472581202486)	1.0	z	0.6812
14	M	A	M	N	N	B	B	A	M	8	6	shapes	B	1	False	63	(-2.1592670146645627, -1.897374945173647)	(-6.4430179948466204, -7.5171163286551934)	(2.6342455871899038, -4.747135422364436)	(0.34286327330662481, 4.855076606302525)	1.0	slash	0.715002
15	M	B	M	N	A	A	B	N	M	8	0	shapes	M	1	True	63	(8.4733469047281247, 4.6014986261686381)	(-2.525234664424719, 8.6727956517795519)	(8.3986949968256184, 0.52703038115451761)	(-5.3283145646731329, -4.601707969177288)	1.0	z	0.550492
16	M	A	M	A					A	4	3	shapes	A	1	True	63	(7.3692399261765544, 8.5379219861646725)	(-4.413107921440484, -6.6624980226670099)	(-3.843248781409403, 1.9991383802559817)	(4.1941434820515759, -6.9196736353310984)	1.0	z	0.506161
17	M	B	A	A					N	4	0	shapes	M	1	False	63	(-3.1576277658377423, -2.1735033070908845)	(1.6408816205631673, 1.4019960189608529)	(5.6527111565286781, -1.9087535932564226)	(-8.0429898006906271, 2.9369967666975736)	1.0	z	0.71986
18	M	B	B	A					B	4	3	shapes	A	1	False	63	(-6.8783468121591564, 3.5280913870159161)	(5.8638765648472368, 3.9700272741440639)	(4.7660053873515604, -5.2304684190711388)	(-5.085663167650555, -2.7438488335365854)	1.0	z	0.665526
19	M	A	B	A					A	4	3	shapes	A	1	True	63	(1.3367649770713452, 3.2094236129196947)	(1.7273379166915266, -2.6723225729169702)	(-4.0442758092288136, 5.1681072522956608)	(-2.1583808106027833, -0.15238246491174579)	1.0	z	0.67906
20	N	B	B	N	A	M	M	A	N	8	6	shapes	M	1	False	63	(4.4544448464494462, 2.3912586109764629)	(1.6584450485507976, -6.7545709979635973)	(2.5232281790001903, -1.5244707917919893)	(-6.8823297838893938, -4.1557167785619713)	1.0	z	0.530706
21	M	B	N	A	A	M	N	B	N	8	0	shapes	M	1	False	63	(8.3066067054270221, -6.8830413239591461)	(5.3237806166655091, 0.17091678746905714)	(0.65093581864318573, 7.5437925815617284)	(-6.5625479307304815, -7.4157871119011993)	1.0	z	1.01058
22	N	B	N	M					M	4	3	shapes	M	1	True	63	(-7.1857891873341782, -7.3329199125262639)	(6.0300043248248461, -3.5913215488982377)	(-2.8367237772141234, 8.6772445686359703)	(6.6940613278020695, 6.2517083750636591)	1.0	slash	0.930153
23	M	A	A	M					N	4	2	shapes	A	1	False	63	(-7.6470817904032176, -1.3126855065384815)	(3.0770385792194528, 5.8556822118657834)	(3.271621948469237, -7.5404376109252107)	(-3.6040220566929788, 7.3130896470326903)	1.0	z	0.537821
24	M	B	B	M					B	4	2	shapes	B	1	True	63	(-8.1329496834650588, 2.1878601728856548)	(6.161870232270374, -1.7740756851665678)	(-3.0112174872388318, -0.31336620472785803)	(3.4156191124930935, 6.8346242778040018)	1.0	z	0.703461
25	N	A	M	M	N	B	B	A	M	8	3	shapes	M	1	True	63	(1.6130209060785674, -7.8255272180069806)	(-6.6083608427429912, -3.0249557489250565)	(-6.781873368640376, -8.5769557653735173)	(-6.4185927155378248, 2.2689084889462539)	1.0	z	0.965357
26	M	B	B	M					B	4	1	shapes	B	1	True	63	(0.46360598563519417, -5.0377790393661961)	(-1.9925805926445719, 6.3271079014946583)	(-5.8220078475382326, -3.2832337988264335)	(5.2249216205941753, 8.1868354072206415)	1.0	z	1.27898
27	M	B	B	A					B	4	1	shapes	B	1	True	63	(-3.742114775908326, -6.7223627072097916)	(-4.5315031193665751, 5.5584041459559099)	(8.6094981260011281, -4.3170079333703333)	(3.2038632862692928, 8.5732202050100099)	1.0	z	0.816393
28	N	A	M	M					A	4	3	shapes	M	1	False	63	(1.4017166149019502, 1.4327056342059628)	(-4.3795317211558684, -3.2057500231277078)	(1.3210144939491322, -6.6315203585994418)	(-0.25940483475814524, 5.2929377365878629)	1.0	z	0.872251
29	N	A	N	B	M	B	M	A	M	8	0	shapes	N	1	False	63	(3.0322261424465964, -7.076875851212475)	(-0.41847090605345372, 2.8554819356073207)	(7.7295885872190624, -0.56314803413847336)	(5.7801529756063594, 7.9514059526349854)	1.0	slash	0.428919
30	M	A	M	B	B	N	N	A	B	8	3	shapes	B	1	True	63	(4.4701154873131159, -6.6178281814226079)	(-0.15216622258344792, -4.2097505022725548)	(0.44069292171475283, 4.6897024674011067)	(7.5176347273147464, 4.9846596240218108)	1.0	slash	0.955046
31	N	B	M	M	N	A	A	B	B	8	5	shapes	A	1	False	63	(3.5100667746867931, -6.8726676209890387)	(-3.7754137062577584, -4.9361897014212222)	(-0.28970815910164838, 7.2204143310793114)	(-2.9841693810034782, 1.7791892601337622)	1.0	z	0.646496
32	N	B	A	B					M	4	2	shapes	A	1	False	63	(-6.213971668698262, -2.4243193950957105)	(-3.3834761662395483, 5.028170450917667)	(3.1311737969370004, 6.9059141649021267)	(3.8101449661366971, -8.2399451237809203)	1.0	slash	0.752791
1	N	A	N	M					A	4	1	shapes	A	2	True	63	(2.9413904738693688, -1.5064290391149271)	(3.5611808526198239, 6.1087807352238244)	(-0.00092101581171455393, -5.8641846467351293)	(-3.4006344513436666, 6.1515941067344002)	1.0	z	0.638107
2	M	A	M	A					N	4	1	shapes	A	2	False	63	(4.6498866162493826, -0.60832752300568949)	(-7.2152682944658926, -0.79242741886771562)	(8.4158125649895901, 1.6776304524304209)	(-4.0748230974261253, 5.2475725307041188)	1.0	slash	0.821955
3	M	A	M	A	N	N	B	B	B	8	5	shapes	N	2	False	63	(7.8385759183547563, 5.158813119160536)	(-8.154616311977966, 4.2316577658171948)	(5.6725739645785023, -6.4032503136148211)	(-4.3699695774497886, 8.5168020852096724)	1.0	z	0.642841
4	M	B	A	M	A	B	N	N	N	8	1	shapes	B	2	False	63	(-8.4037775801178078, 3.6724854961850006)	(6.8445750570808368, 5.3766321664990997)	(0.06807850037757035, -7.4702708547729513)	(-2.8590937288530558, 0.59065765118478808)	1.0	slash	0.908701
5	N	A	A	M					B	4	2	shapes	A	2	False	63	(5.404254059699138, -0.35126966208822985)	(2.7312007666155136, 2.7905150727531129)	(-4.3491432491190603, -4.5948908284883645)	(-3.8136596989865819, 5.3486574344557578)	1.0	slash	0.585001
6	M	B	M	B					B	4	1	shapes	B	2	True	63	(-6.9979974262929119, 2.7524046585667428)	(5.8670259620271814, -3.2973555091766729)	(-5.6247685999590136, -1.844850081797035)	(7.9340117910476948, 5.5492778610129161)	1.0	z	0.774477
7	M	B	M	B	N	N	A	A	N	8	7	shapes	A	2	False	63	(-1.2138236073811086, -7.3260483693486229)	(6.5786997264926956, 4.7167236553585123)	(-8.1602258293427159, 4.3499528286111548)	(8.7320283468924558, -1.3539109189426979)	1.0	z	0.086189
8	N	A	A	B	B	M	M	N	B	8	4	shapes	B	2	True	63	(-6.1562207159154898, -8.374048765360703)	(-6.4670217432285559, 6.1835266257659693)	(-0.026500688624457425, -2.2281536570747011)	(6.3988200824215937, 4.6811628829853724)	1.0	slash	0.375662
9	M	A	N	A	M	B	N	B	N	8	5	shapes	B	2	False	63	(4.9400958857628616, 7.4202364287933342)	(-1.4899996707913754, 3.9306471069802456)	(-4.1726380982113316, 0.0086055389678598715)	(0.45013187984886827, -7.5230536828494676)	1.0	z	2.26947
10	N	A	A	M					A	4	2	shapes	A	2	True	63	(5.0596556213053621, -0.35005733388708471)	(-8.0258782258915815, 4.8416655755274505)	(-5.583627916302385, -5.8513770980044457)	(8.1215092968016478, 3.3846321431187185)	1.0	z	0.729341
11	M	A	A	B					B	4	2	shapes	A	2	False	63	(1.6369145955798672, 6.0960821064739452)	(-2.0524981567675491, -8.705304500433753)	(2.85043025445305, -1.4580158685474744)	(-3.2817881814206862, 4.6786107118018574)	1.0	slash	0.70498
12	N	B	M	A	M	A	B	N	M	8	2	shapes	M	2	True	63	(7.6714662503363868, 7.8828910632914742)	(-4.0245037391720375, 7.0827704853693998)	(5.0128028232951571, -6.6728134448411902)	(2.3066874317474237, -2.2677005031758943)	1.0	slash	0.662709
13	N	A	N	B					N	4	0	shapes	N	2	True	63	(2.5175636364918379, 2.1186419833952446)	(-7.4875554160111353, 6.7645933264931184)	(-6.6583268400388214, -7.1416926520484374)	(5.7371178533792779, -2.4691072755377128)	1.0	slash	0.708344
14	M	A	N	N	M	B	B	A	N	8	2	shapes	N	2	True	63	(1.3587877772925125, -3.8881832216395091)	(7.6210087223872449, 0.11005021564399087)	(3.1862913930746544, 2.7156986859464549)	(-0.63561896412055141, 1.0583341160228841)	1.0	z	0.785836
15	N	A	N	M	A	B	B	M	B	8	1	shapes	A	2	False	63	(2.1443084226309423, -0.31544503068455043)	(-2.7274031932232914, 7.8281377146952025)	(3.8538609569195064, 6.6440566597372346)	(6.0468107148730432, -8.1280305562156538)	1.0	z	0.287349
16	N	B	M	A					M	4	3	shapes	A	2	False	63	(8.4857446623800143, -0.82075684377332525)	(4.6198917500233279, 0.27890732701008503)	(-1.6236289324042481, -7.1315503621078875)	(-2.9756232672330842, 2.054528160127397)	1.0	slash	0.765199
17	N	A	M	M					M	4	3	shapes	M	2	True	63	(-8.5264386334337914, 5.0984687887390709)	(2.2436164185106744, -2.0169842926650841)	(8.5847878025859892, 1.6319701345276414)	(-8.4151296726262927, -8.3980856971712612)	1.0	z	0.630747
18	M	B	M	N					M	4	3	shapes	N	2	False	63	(4.1569167338857813, 6.8921029041761308)	(2.626652281185974, -4.8279173721224886)	(-0.77633358153037335, -2.7213746233654161)	(-7.1708671097918177, 5.2461016307077699)	1.0	slash	1.07464
19	N	A	M	N	B	M	B	A	B	8	4	shapes	B	2	True	63	(-2.1563877629911765, -6.5684959822248015)	(4.8014764198336071, 6.3453420392069066)	(-2.3475895227574908, 4.7419746938781149)	(2.6168096052787764, -2.1653685008470669)	1.0	slash	1.07033
20	N	B	A	M	M	N	B	A	M	8	3	shapes	M	2	True	63	(-1.4270961506423623, 4.0228048288417124)	(-8.3980738018476195, -0.092387145524352121)	(3.2352720435256472, 7.9204504244935237)	(8.150133170159819, -6.6414427036720376)	1.0	slash	0.641397
21	M	B	M	B					B	4	0	shapes	M	2	False	63	(6.0940769506522177, -0.35347690030558354)	(-5.6631841396061295, 5.2331947687302591)	(2.5252015818109861, 4.9441454761882362)	(-1.2810303575874959, -2.0007370544629932)	1.0	slash	0.681589
22	M	B	B	N					B	4	1	shapes	B	2	True	63	(2.8947194224104145, -7.8266443561117516)	(6.0211379921861798, 2.8608676959331216)	(-7.9338330787597577, -1.3727225157869265)	(-1.3645907222640217, 5.6368767227287222)	1.0	z	0.641187
23	N	B	B	A	N	A	M	M	N	8	4	shapes	N	2	True	63	(-8.2416596500951211, -1.3753149107535716)	(1.2800956801546022, -0.77184602987445672)	(4.9407741118489366, 0.98818515755663405)	(1.3786985001389453, 3.5658085842979723)	1.0	slash	0.626297
24	M	B	A	B	M	N	N	A	B	8	3	shapes	B	2	True	63	(5.4022670316264332, 5.2983458393446341)	(-4.3379090208011792, 7.4720299928027138)	(5.721948561968496, -6.5471464968003348)	(-0.68723775622416916, 4.4163647077121126)	1.0	slash	0.600784
25	N	B	M	B					N	4	0	shapes	N	2	True	63	(-1.927865928065156, -5.0940032752238009)	(8.2841292257453851, 1.1237751668218756)	(-2.7913755368932387, 4.8460284268766305)	(2.2973343733238991, -3.0862254803641695)	1.0	z	0.576019
26	N	A	M	B	B	M	A	N	N	8	2	shapes	M	2	False	63	(-4.7558862897548027, 7.4387646063742032)	(2.0329449388973657, 3.126143787329811)	(2.4448102268900502, -1.4834769207672442)	(-7.1087191259660365, -0.85070909426206409)	1.0	slash	0.559332
27	M	B	B	M	N	N	A	A	A	8	6	shapes	A	2	True	63	(8.4941291683287048, -0.26812676495018728)	(3.9656499660740323, -4.4031792536868206)	(-1.7184302405442899, -7.9926554172167927)	(3.6283846618499851, 5.0391564696616076)	1.0	z	0.928991
28	M	A	N	A	M	B	B	N	N	8	3	shapes	A	2	False	63	(-4.549887606585906, -8.5909947103582613)	(-0.97309698179536586, 2.1791614094699483)	(3.375178430119302, 6.7504949165731016)	(-6.6066022003345521, 6.0391651628178096)	1.0	slash	0.482446
29	N	A	A	M					N	4	3	shapes	M	2	False	63	(2.0237718880114031, 7.0506730427788966)	(0.12627980377470571, -7.5949274119215948)	(-6.6902791988646033, -5.3736524765551934)	(-5.6823613968757192, 2.8066723156023059)	1.0	z	0.794867
30	M	A	B	N					N	4	2	shapes	B	2	False	63	(-0.22700427405552404, 2.6488768701899428)	(8.0474661745337492, 8.1905980203282951)	(8.1645392879187959, -6.4280443139708172)	(-0.56279552010619049, -2.1551456198666408)	1.0	slash	0.820461
31	N	B	M	M					M	4	3	shapes	M	2	True	63	(-6.8860148858923669, -1.8472349038478271)	(1.0537011397531142, 0.12569491544724087)	(-4.3463014103566913, 8.0144562991186135)	(4.2841078192497797, -7.6069731713048041)	1.0	slash	0.744266
32	N	A	A	B	M	N	B	M	M	8	1	shapes	A	2	False	63	(0.39178176441559387, -0.82957862997344023)	(2.6450476447162252, -6.7602281406428926)	(-3.012251532583746, 6.7513623599182306)	(-7.8159543140578327, -8.7019476145504875)	1.0	slash	0.933916
1	M	A	N	B					A	4	0	shapes	M	3	False	63	(-0.307382233166134, -3.5712735605521102)	(1.0862048147807624, 3.624832616911938)	(-6.2725437530346202, 4.2233918622965518)	(8.5899890392263529, -5.7966356545637119)	1.0	z	0.0414929
2	M	B	B	A	A	N	M	N	B	8	0	shapes	M	3	False	63	(4.8250622866459985, -5.1828218042329475)	(-1.6330533182485683, -7.6345510450875231)	(-7.7657718193776084, 5.119908478978374)	(2.9458915942519095, 4.0843990490138165)	1.0	slash	1.87538
3	N	A	N	B	A	B	M	M	B	8	5	shapes	B	3	True	63	(-4.3889077773166303, -7.4767493516357)	(0.15984159331815739, -1.1579224685075724)	(4.6983287335794639, -1.7806354772971664)	(-4.120021707835976, 8.3349571006403451)	1.0	slash	0.782224
4	N	A	B	B					M	4	2	shapes	B	3	False	63	(3.1212070428922871, -2.9283385559024007)	(-1.6189730887416109, 5.974300540919451)	(3.494880339449395, 7.9343695361334383)	(-4.758687843733588, -6.1304777426126531)	1.0	slash	0.620169
5	N	B	N	M	A	B	A	M	N	8	1	shapes	B	3	False	63	(4.0691065176186907, 2.1829477570897922)	(-7.1772542284078433, 2.9248255972247819)	(7.4479161598154739, -6.4875753833241321)	(1.44317044702799, 5.3330146274759773)	1.0	slash	0.611442
6	N	A	B	A					B	4	3	shapes	A	3	False	63	(6.888110499701769, 3.2638109813248626)	(4.4285335482356558, -1.6461170617342242)	(-2.8372850057664927, 7.5723563505290699)	(-0.030171314054303622, -8.121826965320059)	1.0	slash	0.867738
7	N	A	M	N					M	4	2	shapes	M	3	True	63	(0.46384838500501147, -8.7035615158440862)	(-3.6576118199670358, -7.854608848883176)	(-2.096803018001844, 1.9371661121734576)	(6.7539634888514435, 7.3724902521573519)	1.0	slash	0.101064
8	N	A	B	M	A	M	N	B	M	8	3	shapes	M	3	True	63	(4.3881406370027509, -0.41753569585078409)	(-0.20917131014323687, 2.7043593487036173)	(-7.9632976837404863, 0.1810648787830722)	(1.4131724354948414, -5.443400492578661)	1.0	slash	0.618486
9	N	B	M	B	N	M	A	A	M	8	7	shapes	A	3	False	63	(4.4615281379810217, -2.9439939095564061)	(-7.9390555546181343, 3.1213265423469334)	(2.4577520138731934, 3.7861498275055752)	(-4.4064839287380124, -8.1601115802294206)	1.0	slash	0.682755
10	N	A	A	M	B	B	M	N	B	8	3	shapes	M	3	False	63	(-6.4855044622233393, 6.2770142850076489)	(-3.0625230017335872, 0.29571721621395675)	(3.4964141250442733, 2.6722264918405152)	(0.99787697209452908, 7.2225988682340638)	1.0	slash	0.819651
11	N	B	N	A					N	4	2	shapes	N	3	True	63	(5.0478893783166718, -2.0424598184025218)	(6.7129340268912667, 1.9466064161870626)	(-5.6953105152141514, -1.6876682478111)	(-1.9545370424706876, 5.4052083874356782)	1.0	z	0.984084
12	M	A	N	B	N	M	A	B	B	8	7	shapes	B	3	True	63	(-7.4154813075355053, 2.6373767500806853)	(0.43649795936542723, 8.1126578895663002)	(6.9018062765013433, 0.022698445522861377)	(-5.3094171896972364, 6.0650423537394165)	1.0	slash	0.389541
13	N	B	B	A					N	4	0	shapes	N	3	True	63	(6.9603725035060684, 5.2078885925713188)	(7.8972188210902345, -8.6287245665381214)	(-8.5059811920047235, -4.6624666677246722)	(-0.02421099310477004, 4.2325823106018738)	1.0	z	0.623334
14	N	A	N	M					M	4	3	shapes	M	3	True	63	(-1.3501316968450254, 4.64444003422593)	(2.6908588961416395, -3.7106313531798598)	(-2.7566654919152223, -1.3860367919446128)	(2.7641319829132556, 5.0540212997116338)	1.0	slash	0.515082
15	N	A	B	M					M	4	3	shapes	M	3	True	63	(6.6792363096731027, -0.73049316425629307)	(6.9313263261414217, 7.986738027763888)	(-4.3679604239191931, -0.53202284498549268)	(-0.15497428289718229, 8.6799178316677157)	1.0	z	0.468905
16	N	A	N	B					N	4	1	shapes	A	3	False	63	(-6.5577127349918038, 4.2579294412007886)	(6.1390272196667723, 2.2382922939348653)	(-1.8552941834245447, -8.7294119953977116)	(4.8457135062852199, -4.008750137032826)	1.0	z	0.456409
17	N	B	M	A					M	4	2	shapes	M	3	True	63	(-8.3281403152530551, 8.6461237732064404)	(4.476018953774469, 4.9245988092006847)	(8.1572110443312056, -7.9475134040888058)	(-2.4593956103737202, -3.1226355666752807)	1.0	z	1.14428
18	N	B	A	B	M	M	N	A	A	8	4	shapes	M	3	False	63	(-6.2630667887581275, 4.5045292856843844)	(-8.1715114790704853, 0.38876367770869535)	(0.92825282112749541, 4.0168945826059481)	(-2.1870254940573055, -3.5781144969698886)	1.0	slash	0.525353
19	N	A	B	A	B	N	M	M	A	8	1	shapes	A	3	True	63	(-3.1692672583608701, -3.4698074509564076)	(6.1461792714300358, -6.210552209300654)	(-2.7182510885591045, 1.2801229643188705)	(-4.8370749921241902, 6.0341128043279859)	1.0	slash	0.28547
20	M	B	A	A					N	4	3	shapes	A	3	False	63	(1.301189207600661, 8.2176710677194684)	(-4.0069243088902677, -0.015242178960287234)	(2.8584611383699645, -6.501874490328353)	(-1.5467763996169026, 4.2745709825571634)	1.0	z	0.91912
21	M	A	B	B					A	4	1	shapes	A	3	True	63	(-2.7520134967124887, -1.6203169918144456)	(7.0844375670440183, 7.3562765631547364)	(3.6215340048864935, -3.3995209122378007)	(-6.970360657277781, 3.4867482854169793)	1.0	z	0.816684
22	M	B	N	A					M	4	0	shapes	M	3	True	63	(2.8239769363405962, -7.115005704226891)	(-4.9724391032024924, 4.1348863570363825)	(-1.4788476169068812, -1.919335945311933)	(0.30545504741077778, 6.4460655431086806)	1.0	slash	0.896447
23	M	B	M	N					N	4	0	shapes	M	3	False	63	(4.3204963136935461, 8.2176207248724005)	(-0.84877510532931755, 2.1347931324075127)	(2.2785107168120362, -5.2689883742547901)	(-7.5415129939619412, -1.6224470503706172)	1.0	slash	0.447948
24	N	A	M	B	N	B	A	M	B	8	4	shapes	N	3	False	63	(2.4964340783612222, 3.8726964928171626)	(-7.431772637772327, -7.7703308965833244)	(6.9321453687059211, -3.9269001059345259)	(-2.2138766886273737, 2.8843500438327485)	1.0	slash	1.34589
25	M	A	A	N	N	M	B	B	N	8	2	shapes	A	3	False	63	(6.9904277098919589, 3.1908948823735752)	(0.77568567119457299, 0.81693193874127168)	(-8.0688708044852664, 2.9418972616343382)	(3.1252793610985972, -7.1260467519204589)	1.0	z	0.327565
26	M	A	A	N	M	B	B	N	A	8	7	shapes	N	3	False	63	(-4.8391864816761458, 5.2327127261431148)	(-8.6916431891406081, 1.2346449261500947)	(2.4418954308339877, 7.0500174065847361)	(7.0906244223074228, -4.9235909826344315)	1.0	slash	0.526552
27	M	B	B	A	N	A	M	N	N	8	7	shapes	N	3	True	63	(3.5640802734971508, -1.6948087627074253)	(0.50204012653524011, 4.0971776798980493)	(-0.70830965573854598, -5.2847717116507944)	(4.0444441535915931, -7.2654324483442378)	1.0	z	0.0245068
28	M	A	B	B	M	A	N	N	N	8	7	shapes	N	3	True	63	(-7.5441366849123082, 2.7622537734341837)	(5.1202585718730429, -2.2456034089560699)	(3.0206879515572602, 8.2410066927257439)	(-4.2495092535259884, -5.4435943030831142)	1.0	z	0.587829
29	N	A	N	B					A	4	0	shapes	N	3	False	63	(-6.6925185406011263, 1.0003446629280486)	(-0.74860187181040594, -1.2321263812100103)	(2.4993221580032294, 4.076960049879073)	(5.3704115837688136, -0.08864388167761561)	1.0	slash	0.647975
30	N	A	A	M					B	4	0	shapes	N	3	False	63	(-1.0348916252819755, 3.3080786971988374)	(5.4885331027432205, 7.5900048679953755)	(-1.5193095985954441, -1.7482164121714092)	(7.8509975155867551, -6.9639508323785337)	1.0	slash	0.719675
31	N	B	M	B	N	A	M	A	N	8	0	shapes	N	3	True	63	(-7.9478344668211935, -8.0130760171477391)	(8.7138704739818387, -8.5043886671776683)	(2.3147931149925682, -8.1619266120574725)	(-2.2280902864403931, 5.3957400511017983)	1.0	z	0.643242
32	M	B	B	A	A	M	N	N	M	8	0	shapes	M	3	True	63	(3.9038788648717553, -3.1081315848184872)	(-0.19729547606917563, -7.2453436105416591)	(-4.4036945570826997, 3.148766853955566)	(5.740966027289172, 7.2746968743171259)	1.0	slash	0.500616
1	M	B	N	B	N	M	A	A	M	8	1	shapes	B	4	False	63	(7.8926787306553834, 0.61885761717749865)	(-3.7359536456168678, -0.066509668443197612)	(4.6129621999295303, -8.2878186041639559)	(-5.5815531941183849, 3.6934939624787582)	1.0	slash	0.43929
2	N	A	N	A					M	4	0	shapes	N	4	False	63	(-7.2185519085357068, -0.49108963993469956)	(3.8350708707749224, -4.9562812696513525)	(-1.7990828934678857, 1.6878541444532029)	(6.3550123479239904, 5.542992017378479)	1.0	slash	0.544465
3	N	A	B	N	B	A	M	M	B	8	4	shapes	B	4	True	63	(-8.5608284671234287, -8.1167277264944229)	(0.96355225776281372, -1.3907508608825783)	(5.8763889507040439, 2.5667246635307048)	(3.2107558721364793, -6.7315590300728516)	1.0	z	0.582157
4	N	B	N	B	M	M	A	A	N	8	2	shapes	N	4	True	63	(2.8093785570573875, 1.8530260978699857)	(-7.6245852657451803, -7.6331264090757482)	(3.8731270665195243, -3.2490074493325256)	(-7.4685158449739912, 1.0286137172525898)	1.0	slash	0.371076
5	N	B	B	N					B	4	0	shapes	N	4	False	63	(4.2900744638360457, 0.0023634358136330746)	(1.4221738052979873, -2.8643760467144403)	(-1.3891972064004543, 5.6687888497658285)	(-4.9971350557780783, -4.8977115772393258)	1.0	slash	0.467323
6	M	B	B	M					M	4	2	shapes	B	4	False	63	(2.8814952514623151, -3.3556470141862524)	(-5.256685819950194, -6.2102716021025284)	(-4.5965927569442036, 0.21792700748882865)	(2.2049425024544167, 5.3912993608991098)	1.0	slash	0.479059
7	M	B	N	M	B	A	A	N	A	8	6	shapes	A	4	True	63	(4.2566145025507733, 1.055160341225287)	(8.125779639085831, -7.2211009172843408)	(-6.0055993654235227, -6.1182903023311859)	(3.4793276398288118, -7.9346167930774385)	1.0	z	0.754447
8	N	B	N	M					A	4	2	shapes	N	4	False	63	(1.5565221934356899, 0.33537713051199702)	(-3.748395067726138, -4.2630877844167134)	(8.4538476142894439, -4.6606362529333563)	(-4.8191306884002296, 1.8030406841219353)	1.0	slash	0.611898
9	N	A	B	B	M	N	A	M	B	8	4	shapes	M	4	False	63	(4.660852237772831, 7.1508999404298805)	(1.6044558102888207, -5.85182103118927)	(-2.3307857236205409, 8.4940525451730942)	(-4.2766829818652958, -2.5315552304392206)	1.0	slash	0.620443
10	M	B	A	A					A	4	3	shapes	A	4	True	63	(4.7594943418139319, -2.6774360671172879)	(4.5051594110149562, 6.3544017491993188)	(-4.8921151319180725, -4.8133412108758282)	(-0.11482041421604272, 0.9681526349887335)	1.0	z	0.559692
11	N	A	A	M					A	4	2	shapes	A	4	True	63	(8.0461904785937151, -6.6111295474091198)	(-4.6891390911747575, -7.6943926525665338)	(4.6996123011313493, 3.9596583817262765)	(-5.2739732285653576, 2.3927822818004412)	1.0	z	0.625363
12	M	B	B	A					B	4	1	shapes	B	4	True	63	(5.6349119233796738, 6.2111583361474914)	(3.1835440495701643, -2.9300190356277591)	(-7.8060708413543161, -5.802351179680441)	(-7.8431667711867865, 4.3661792391060654)	1.0	slash	1.27904
13	M	A	B	N					N	4	3	shapes	N	4	True	63	(5.8791636173704855, -6.9586682387977188)	(-8.6547014402740423, 8.4648130465905993)	(7.5387752185571237, 3.1144174474535227)	(-7.1835265788784444, -7.1629697577616804)	1.0	slash	0.718825
14	N	B	A	B	A	N	M	M	M	8	0	shapes	N	4	False	63	(0.025526315088912455, 2.2129736337030614)	(3.9262844401842614, -6.3757737371773704)	(7.6971986923328011, -2.2696131077836696)	(-8.1837997682259296, -1.6112447345254726)	1.0	slash	0.601931
15	M	A	A	B	B	M	N	N	M	8	2	shapes	A	4	False	63	(1.2296898224458914, 3.5497897534034983)	(3.0273787134955619, -3.3221268946953417)	(-3.5941790235779632, 5.8584697989345802)	(6.6188582022005651, 2.0130936829202355)	1.0	z	0.436243
16	N	A	N	M	B	B	M	A	M	8	6	shapes	M	4	True	63	(-3.3181303931178059, -0.098690557538741785)	(4.4536065442264832, 3.2951086668839675)	(-5.7675450854622614, 5.6821078121793693)	(-0.45769408928251032, -3.4914502780014569)	1.0	slash	0.37321
17	N	A	N	M					M	4	3	shapes	M	4	True	63	(5.3771159185508441, -1.1944909159582053)	(-4.8575166195527029, -4.5453368080187868)	(-3.9910657452924427, 2.2538769734756681)	(4.8629237429863075, 5.2170604764497721)	1.0	z	0.683294
18	M	A	A	N					M	4	0	shapes	M	4	True	63	(-2.366380692464146, 3.0176008270229993)	(-1.3369487998330865, -5.6962898439635214)	(5.2383667593908037, 7.4442703654863855)	(3.0165131097324469, -8.4765033474841616)	1.0	slash	0.715225
19	N	A	N	M					N	4	0	shapes	N	4	True	63	(-1.5689992339489347, 3.4932196223224548)	(3.8544818479384197, -3.8022899564589308)	(-7.9505132599389601, -5.845020459651316)	(3.5978293218885362, 4.1037234861048955)	1.0	slash	0.820754
20	N	A	A	M	N	M	B	B	A	8	1	shapes	A	4	True	63	(-1.0473633332343741, -7.1627337179079085)	(4.131588432518754, -3.0993496020090907)	(-4.4571890264813572, -3.6054903349688558)	(8.2439972961693577, -4.1157982101803396)	1.0	slash	0.578445
21	N	A	N	M	M	B	A	B	B	8	3	shapes	M	4	False	63	(-6.1933028886872563, 6.8218360162028659)	(6.3981953826424203, -7.6655089500798228)	(-1.8146863427123163, -5.6386708261656615)	(-0.41196444306057067, 6.2690724825340745)	1.0	slash	0.633675
22	M	B	A	B					N	4	2	shapes	A	4	False	63	(7.4080888833750329, -8.2725064397725472)	(-7.9295675648062725, 8.5046765645398601)	(6.2875562005444348, 6.1779367610203337)	(-6.7820614947394864, -8.1392419291002067)	1.0	z	0.427402
23	M	A	M	A					A	4	2	shapes	M	4	False	63	(-1.2481980045525916, 6.7795005670171129)	(4.175884031629959, 4.5272181195389614)	(3.9945007768078291, -2.330020073938039)	(-7.638585255284684, -6.795974172008866)	1.0	z	0.527537
24	N	B	B	N					M	4	1	shapes	B	4	False	63	(8.1608209379273369, -3.456202395298666)	(2.612930228306249, 7.1613347974944848)	(-0.51459828731363721, -5.7166260211063049)	(-1.4837408871465492, 6.3259814660122995)	1.0	slash	0.487279
25	M	A	A	N	N	M	B	B	A	8	2	shapes	A	4	True	63	(-5.2932593756733848, 3.3762084402485097)	(-3.1044895529694534, -1.0411573192026085)	(5.7835383564891192, -4.9343277094864675)	(-3.4117069855703699, -5.6454692332075513)	1.0	slash	0.896889
26	N	A	A	M	M	N	B	B	A	8	1	shapes	A	4	True	63	(-5.7978983245886795, 6.6970255389045157)	(-3.9033096933431422, -2.4734372369428614)	(0.056741546889830019, 5.446202162939672)	(5.4262068752673773, 7.5078286378099612)	1.0	slash	0.631889
27	N	A	M	A	M	N	B	B	M	8	2	shapes	M	4	True	63	(-6.8261879851966318, 2.9393107423858797)	(-3.3496685759241744, 0.54918443950725759)	(7.8747430944033816, 7.2065177858720109)	(7.8528293071691593, -5.6233016628738497)	1.0	z	0.548866
28	N	A	B	A					M	4	0	shapes	N	4	False	63	(-1.2590546736093859, -0.64097895332088228)	(5.157632894589435, -5.9200423474799422)	(-7.4667673617205583, 5.3341676382838372)	(4.6803291368714479, 6.5943304917001608)	1.0	slash	1.03171
29	M	B	B	N					M	4	0	shapes	M	4	True	63	(5.0161146285799028, 2.027121987953425)	(-6.2637227409691718, 0.49261417580496136)	(-1.7158751752287138, -6.9017825901717309)	(2.4891436539440797, -3.695768245751859)	1.0	z	0.721536
30	N	B	M	A	B	A	N	M	N	8	3	shapes	A	4	False	63	(-2.7594836424696192, -3.4843941080225038)	(8.7329698471398132, 6.4166388178963611)	(0.88640270403270627, 6.5242210777494183)	(-2.9029058450246827, -7.8904830009066824)	1.0	slash	1.0026
31	M	B	A	N	N	B	A	M	A	8	5	shapes	B	4	False	63	(8.6123387424251092, 3.503664489380375)	(-2.9499311256605623, 4.707037701406783)	(-5.9043710211250406, -5.5994288700958199)	(-2.2711931428611765, -3.2003594052452025)	1.0	slash	0.765903
32	M	A	N	A	B	M	N	B	B	8	5	shapes	M	4	False	63	(-3.5744143212090291, 6.0799579551608591)	(-2.4696950216836786, 2.2056286513210068)	(6.9487219990932267, -6.8870381383751669)	(8.7321558072325764, -3.2483910871080717)	1.0	z	0.40678
1	M	B	B	N	N	M	A	A	M	8	7	shapes	A	5	False	63	(3.8224022601197643, -8.4510824461211094)	(-2.2539488432023189, 6.7368269990917344)	(4.4875406560939286, 0.22635411620085399)	(7.8846999601947907, -3.0957816146600399)	1.0	slash	0.427493
2	N	A	A	B					A	4	1	shapes	A	5	True	63	(0.67088291536853006, -7.3807043499158009)	(-5.2778063484915112, 3.5645879528897915)	(-8.46984727269699, -7.9401723805989608)	(0.14528948533893704, 1.6773581560678998)	1.0	slash	0.293761
3	M	A	N	M					M	4	0	shapes	M	5	True	63	(-6.1934470994662583, -0.99520485995589336)	(3.3008372696707582, 7.5076298253165632)	(7.1751850529333581, -2.6543126912205723)	(-3.89368213699768, 8.4665109300845849)	1.0	z	0.58935
4	M	A	N	B					B	4	0	shapes	M	5	False	63	(-1.2316428813303553, -5.1475323604072347)	(-4.2819239451652784, 7.5705303926424286)	(6.113551057738114, -5.7134013231819578)	(0.44419675091542032, 2.9446628761708133)	1.0	slash	0.591101
5	M	A	B	B	N	A	M	N	M	8	0	shapes	M	5	True	63	(-3.9174771182837791, 7.7560308809376899)	(-8.4762122934810158, -6.9648249988037794)	(5.3379576904324288, -4.5020357255292289)	(5.6269783064751948, 8.619631318561062)	1.0	slash	0.372704
6	N	B	N	M	B	A	M	A	M	8	3	shapes	M	5	True	63	(-1.9796387353971134, 7.8243458672625827)	(5.3054071778789709, 2.5636909974090525)	(3.0131847703960446, -2.8623497105567388)	(-2.8598741964007521, -4.99384595952393)	1.0	z	0.392136
7	N	B	A	N	M	M	A	B	N	8	0	shapes	N	5	True	63	(-2.3728977936375788, 2.7908360684458859)	(7.2615832444113089, 7.0221257932412318)	(4.588260323866546, -0.95903636690954475)	(-1.4362554266648511, -7.7432295626094376)	1.0	z	0.78761
8	N	A	M	A					M	4	2	shapes	M	5	True	63	(7.6407360178462014, 1.8421063869513024)	(7.7867299124427056, -5.497654482991889)	(-4.2654122482211978, 3.2748875518038858)	(-5.266273336352862, -7.2197322208473906)	1.0	slash	0.309776
9	M	A	A	N					A	4	3	shapes	N	5	False	63	(-7.9113081182702647, -1.2695650908811418)	(8.0368641670097745, 4.635544674988024)	(5.4196194680764673, -3.8831264043977578)	(-8.2514146869487224, 8.1530041615279245)	1.0	slash	0.577076
10	M	A	M	B	N	N	B	A	M	8	1	shapes	A	5	False	63	(8.5809010827705627, -0.52375163357393006)	(3.524730272847874, -6.133695678927058)	(-3.7232822465719595, -6.8965685482710066)	(-5.4099079724803349, 0.99736459287186996)	1.0	slash	0.473119
11	M	B	A	A	B	M	N	N	M	8	5	shapes	M	5	True	63	(1.2893974806418989, -6.5623864181189377)	(-6.4275021144543514, 7.5231221773165835)	(2.0085428668961018, 7.0776234099005091)	(-4.5174729557233082, 2.2797597142127923)	1.0	slash	0.500156
12	N	A	B	A					N	4	3	shapes	A	5	False	63	(-0.84061452493238242, -1.4257680113168885)	(2.5176818878405314, 7.7754109786852545)	(3.4701844655769136, -7.1805665844871118)	(-6.4061147391243232, 5.9694355558209722)	1.0	slash	0.570606
13	M	A	M	B					B	4	3	shapes	B	5	True	63	(0.11781259459969107, 6.4992937380617555)	(3.3191747714368383, -7.7655772681315822)	(-1.4141458260601238, -3.7391522220126303)	(-7.7496754040886238, 4.5981429404721137)	1.0	slash	0.52214
14	N	B	N	M					M	4	2	shapes	N	5	False	63	(-2.2181789436498507, -5.1669635554804678)	(-1.5882711218068231, 1.3011150022733542)	(7.3125447733376525, 5.4200722629834921)	(4.3079635300155239, -1.2686927496085829)	1.0	slash	0.505901
15	M	B	A	N	M	A	N	B	A	8	7	shapes	B	5	False	63	(5.1319951226393901, -7.6376181438638255)	(4.72567092328784, 1.8157239881654821)	(0.68623628708781581, 4.6212291213596597)	(-2.9294387692782635, 0.85585246270361637)	1.0	slash	0.487056
16	N	A	A	B	N	M	B	M	N	8	4	shapes	N	5	True	63	(-7.7172098939432496, -7.294969617450481)	(4.988158801742598, 2.0031861290241793)	(-0.66067638332204481, -6.8435801221679711)	(-1.5087747997611043, 3.4968236192677882)	1.0	slash	0.614509
17	M	B	N	M					M	4	2	shapes	N	5	False	63	(-0.54568536592907435, -2.9568987088896312)	(-2.0494009348899924, 5.8737887107840034)	(7.4763969228911051, 1.2924222682709416)	(2.2666786790241318, -7.0383889141746359)	1.0	slash	1.39036
18	N	A	A	N	B	M	M	B	M	8	3	shapes	N	5	False	63	(-8.5323939199592331, -3.4207713945241167)	(-3.5289933253975683, -1.1238103930754599)	(8.033097661254903, -0.74275852556391264)	(6.1512410267061206, 6.0583642302164264)	1.0	slash	1.12191
19	N	B	B	N					M	4	2	shapes	B	5	False	63	(8.4791971082998749, -5.9580236905571446)	(6.5104260259183828, 0.48866955344714746)	(-7.5807952453812497, -6.3434909356982754)	(-5.5826127407109967, 3.3950581531068877)	1.0	slash	1.02618
20	M	B	A	B	M	N	N	A	M	8	7	shapes	A	5	False	63	(-2.6867591948761236, -1.0540128160233433)	(1.876015891145018, 7.1950630428438807)	(2.0646530839463715, -1.3947921507423287)	(-6.6559696870207041, 8.0264419589141234)	1.0	slash	0.647083
21	M	B	A	N					A	4	2	shapes	A	5	True	63	(6.6095242072409288, -4.2993842743040114)	(0.33935863805302624, 7.9035223637227006)	(-2.5473895850326747, -5.7759004545663934)	(-7.5377324204709142, 5.900282614419055)	1.0	z	1.19735
22	M	B	A	N	M	B	N	A	N	8	3	shapes	N	5	True	63	(-2.1732534386254665, -8.7029136147946407)	(8.2591577200546951, 6.6189304788908103)	(4.3820899601739693, -7.5342802906063433)	(1.0025442786578864, 0.46623925777206487)	1.0	slash	0.473085
23	N	B	N	A	M	B	M	A	N	8	7	shapes	A	5	False	63	(-3.0866907738942473, 1.3578298489628082)	(-8.7355821028439529, -7.1299783856914534)	(5.613231923485424, -4.9911514244364401)	(6.7659509605956547, -1.0364139277986899)	1.0	slash	0.356288
24	N	B	N	M	A	A	M	B	N	8	6	shapes	M	5	False	63	(5.8733492294363234, 3.7737860071376321)	(1.3768897873843891, -3.5333359684801104)	(-4.8445880914364281, 0.98861977894488895)	(-5.4382941547583945, -6.5853952305524288)	1.0	slash	0.637891
25	M	A	N	A					A	4	1	shapes	A	5	True	63	(0.82206155300734451, 3.5952129705058216)	(-6.160259580441334, 2.7511443635571489)	(2.7786799260799526, -4.6849457841963851)	(-0.00014227495326402106, -0.7523256442866737)	1.0	z	0.927392
26	M	B	M	B					M	4	0	shapes	M	5	True	63	(2.7598454337609617, -2.7951504194379764)	(-5.6685211532968776, 7.6141863900386504)	(1.7615374591258472, 8.3136961453130986)	(-7.7945443151733498, -2.0044643738305457)	1.0	slash	0.64782
27	N	B	M	A					A	4	1	shapes	B	5	False	63	(-2.5660332377812782, 1.4230255794668025)	(2.1823672283971458, 1.3781127310639736)	(5.6341849250346936, -3.2780604905329387)	(-0.19691637816271346, -2.8763912644559078)	1.0	slash	0.485122
28	N	B	M	N	B	M	A	A	N	8	0	shapes	N	5	True	63	(5.2044550461035008, 1.902857960175794)	(-6.0428466249468329, -0.97726932738250571)	(3.0038531972366052, -3.7341170697500354)	(8.0162983895560949, -1.069493177906276)	1.0	slash	0.383651
29	M	A	N	N					M	4	0	shapes	M	5	True	63	(-6.1764054119772762, -2.8618349713595617)	(-5.2269763846687702, 5.5146373362714023)	(7.1162839227576082, 8.0624055012059834)	(3.5882397335869491, -1.3420346121406439)	1.0	z	1.48472
30	M	B	B	A					B	4	3	shapes	A	5	False	63	(1.1015187725280118, 6.4746508247560843)	(-2.9340560590206968, -5.4977880172453704)	(-7.8983464376572758, 8.2242421534756716)	(5.738008351482673, -5.5102394174690517)	1.0	slash	0.940287
31	M	A	A	B	B	M	N	N	N	8	7	shapes	N	5	True	63	(7.3974746283205803, 0.65246904368727598)	(-7.4585654921790496, -4.0884608098581774)	(5.231259203152625, -5.2275916285364215)	(-8.4596418630509174, 4.9286919635805404)	1.0	slash	1.18837
32	N	A	B	N	M	A	M	B	B	8	5	shapes	A	5	False	63	(-0.94846366419979411, -4.1301433356917263)	(2.390613119594347, 4.161204746782353)	(-4.4539808402192866, 5.3107272186777035)	(6.1539938734288846, 2.4363252969767935)	1.0	slash	1.19354
1	M	B	N	B					B	4	1	shapes	B	6	True	63	(-0.83080296150821731, 5.6357755204992053)	(3.2861921977713067, 1.2782100051383001)	(-0.86286436094376917, -7.1529983163074196)	(5.1058429876453708, -6.8457933976299961)	1.0	z	1.04948
2	N	A	B	B	A	M	N	M	A	8	6	shapes	N	6	False	63	(5.6549741882686355, 0.37017457609177207)	(2.5641303728512312, 6.3416194400357782)	(-3.5036207638783345, 6.4603731640027426)	(-5.820384374142975, 2.115183797065276)	1.0	slash	0.586227
3	N	A	A	B	N	M	B	M	B	8	6	shapes	B	6	True	63	(7.0205492475936317, -4.4495150601127671)	(-0.61547414534366673, -3.6897503274225398)	(-5.7546232889951074, 7.5189433428462209)	(-5.6540052090428112, -3.2659321979890166)	1.0	slash	0.437993
4	M	B	N	N	B	M	A	A	N	8	3	shapes	N	6	True	63	(4.1589332422636165, 4.397403742367695)	(2.436533716625382, -8.2155021267326731)	(-1.0669343867654097, 4.2047341138037098)	(-5.690467016226739, 7.8358590885294781)	1.0	z	1.00576
5	M	B	A	N	A	M	B	N	A	8	3	shapes	N	6	False	63	(1.6244830462668958, 1.4630276788727752)	(-3.2065679775911766, 4.6739509888315602)	(-7.3723540843413149, 6.8282646033018413)	(-3.0290084943657476, -6.9029276342411112)	1.0	z	0.975344
6	M	B	A	B	M	N	N	A	N	8	5	shapes	N	6	True	63	(4.7335667560838584, 8.7443772571216734)	(7.6321528832501428, -6.5925210987690743)	(1.7839519706781708, -2.1420038041420311)	(-4.4205386120858288, -2.0088866579302422)	1.0	slash	0.583082
7	M	A	N	B	N	A	M	B	N	8	7	shapes	B	6	False	63	(-4.7505512879201142, 7.8662940993807737)	(-1.6860085869925827, 0.005414161225811398)	(-3.9195010857122998, -5.6613625292534451)	(5.9813011829737786, 7.5638601676360331)	1.0	slash	1.18883
8	M	A	M	N					A	4	2	shapes	M	6	False	63	(3.5211474993718017, 3.6485906554023853)	(-6.1835686873363631, -8.622711239133606)	(4.1331870758648108, -3.9961727171134669)	(-3.3509468031794158, 5.9210696143920796)	1.0	slash	0.910888
9	M	A	M	A	B	N	B	N	B	8	3	shapes	A	6	False	63	(-0.44026047281585257, 2.101528859417094)	(-6.8931808957099676, 4.2893721913609255)	(8.6333704104870428, -6.236360618355187)	(8.5469727270331077, 7.6037954193662394)	1.0	slash	0.681713
10	N	B	M	B					B	4	0	shapes	N	6	False	63	(2.726420334208953, 5.0077717443244865)	(-8.0907520545865719, 3.1154302714526239)	(0.64523652094156603, -3.9885938935576863)	(-4.4727772893486337, -8.533922350849771)	1.0	z	1.10613
11	M	B	B	N	A	N	M	A	B	8	1	shapes	B	6	True	63	(-1.1044023234455587, -3.2525676175643259)	(-2.7978744735508148, 2.102786214743583)	(5.7114526843080817, -2.7366818178445866)	(-0.89841917666524829, 6.2606128817027855)	1.0	slash	0.583313
12	N	A	A	N					A	4	0	shapes	N	6	False	63	(-4.5566439554688865, 7.3854330604707776)	(-6.7680138370874232, -1.5089398691570155)	(2.1302234905961246, 5.8415501408956594)	(5.4806264016335682, -4.106243359683087)	1.0	slash	0.867241
13	M	B	M	A	A	B	N	N	A	8	3	shapes	A	6	True	63	(7.1100175062893669, 4.1486079292697315)	(3.5063079760852549, -8.4794846628409672)	(-2.9470860557344807, -7.557288180343309)	(8.0865635779154665, -4.9945484339095163)	1.0	slash	0.632324
14	N	A	A	M					N	4	0	shapes	N	6	True	63	(2.7710046130028694, 2.7089958187028831)	(-5.5126481410602093, -0.20206044828561787)	(7.2987593443616596, -6.4147413187281801)	(-1.4040340644680978, 0.39885249110721332)	1.0	slash	0.626684
15	M	B	B	M					N	4	2	shapes	B	6	False	63	(-0.20340859508553244, 4.8954194015738732)	(3.4818878031788998, -7.3140618109766145)	(-4.2771473495619725, -3.3162902744836842)	(7.788879944283817, 6.5033783035205843)	1.0	slash	0.592584
16	M	A	B	A	N	B	N	M	M	8	1	shapes	A	6	False	63	(-7.7971392563739546, 6.0056663155554535)	(-7.8588726996452429, -0.2040439213804639)	(7.1773894735671924, -6.381081387866308)	(-5.2495364411114629, -6.6537888443716149)	1.0	slash	0.499542
17	M	B	N	N	A	M	B	A	N	8	3	shapes	N	6	True	63	(-8.6435003827261792, -4.2755378680577696)	(-5.5715886281113507, 8.7145550147700277)	(7.9024491952786171, -8.4465238893546246)	(-2.5659718670531539, 0.27294616419814943)	1.0	slash	0.491641
18	N	A	M	N					A	4	3	shapes	N	6	False	63	(4.222770367247298, -7.3827939109076546)	(-1.7602553422383833, 5.4414347063701207)	(6.1311157092929065, 4.602571960093444)	(-0.6960402492877158, -7.9663937429988936)	1.0	slash	0.464592
19	M	A	N	M					N	4	2	shapes	N	6	True	63	(3.2010070142723368, -5.7475088145441902)	(-5.0477663889410103, 2.9076159284622953)	(-2.2786144181373551, -5.3524473185187773)	(0.067926405363278874, 7.063027998450023)	1.0	slash	0.668908
20	N	A	B	A					A	4	1	shapes	A	6	True	63	(-5.4397429912367325, -7.3692768801728414)	(7.5441736667574908, 6.7564804739843272)	(-1.5944999101223027, 4.9456607416090357)	(6.130904165246605, -7.3490780208115103)	1.0	z	1.16666
21	M	A	B	M					A	4	1	shapes	A	6	True	63	(-7.2695616537811638, 2.6250188921121111)	(-2.3689554134866491, -3.7955471556776574)	(2.8664013712779308, -3.4259395188669153)	(1.0983462131690676, 4.178379248022317)	1.0	z	1.01446
22	N	A	A	M					B	4	2	shapes	A	6	False	63	(4.6434199209933364, -0.056453151099665533)	(-2.0211222368333477, 0.36014218796933051)	(4.7564441110727866, 6.2407319559044367)	(-0.41869261544539782, -5.3241610294091366)	1.0	slash	1.07624
23	M	B	A	B					M	4	2	shapes	A	6	False	63	(5.8385850460587285, -8.2237214659535915)	(-3.1412670367281699, -8.3866782636457771)	(-2.2567115231619441, 4.4082992348990455)	(8.5425917858135385, 3.5745423318789715)	1.0	slash	0.911119
24	M	B	A	B	A	M	N	N	A	8	1	shapes	B	6	False	63	(5.0299100537837358, -4.9104611459417082)	(-2.963501817789763, -8.5403120998160169)	(-8.53210784199897, 2.3751819018555871)	(6.535518320399289, -0.13861835108130549)	1.0	slash	0.762791
25	N	B	M	B					M	4	2	shapes	M	6	True	63	(-3.5515988780381678, 0.079748096539722368)	(-6.7944997734672068, -4.5039104557154461)	(8.5965527924030205, -4.6485332259457026)	(3.7653475898111317, 4.9756615619456692)	1.0	slash	0.938983
26	M	A	A	M	N	B	B	N	N	8	7	shapes	N	6	True	63	(6.7054233262715144, -5.0994965505470455)	(-3.5737822812198976, -0.48347355622407129)	(-8.057861855907575, 7.339072710797204)	(-7.9135503748233447, -7.5544008393012811)	1.0	z	0.986745
27	N	B	N	A					N	4	3	shapes	A	6	False	63	(0.28758622026835745, -8.6246109916054987)	(-1.3217946231882669, 7.3407271120346032)	(3.4449484977146287, 0.4012164187114422)	(-7.0340596794956918, -7.4057175474747758)	1.0	slash	1.04886
28	N	A	N	A					A	4	3	shapes	A	6	True	63	(-5.3988988682316119, -0.88357773447075072)	(7.8624129284667603, 5.4672157748680199)	(-8.4509128428138105, 2.3524810102781597)	(2.9150156773180473, -0.7072405501539869)	1.0	z	1.0239
29	M	A	M	A	N	B	B	N	B	8	6	shapes	B	6	True	63	(-2.5798209278911628, 2.2012006582717802)	(-8.3377477887261513, 1.5569942737389084)	(-1.6156343444971331, -4.7499933278100226)	(4.4831495732631073, 5.1829764124067115)	1.0	slash	1.17559
30	N	A	A	N					A	4	1	shapes	A	6	True	63	(4.0494584579135431, -4.1806459087299794)	(-4.0125995379422212, -7.8520124900257207)	(-8.6488455848501129, 5.5488105313931388)	(0.76387872848114213, 8.3555914955911526)	1.0	slash	1.02923
31	N	B	N	B	A	A	M	M	M	8	3	shapes	B	6	False	63	(5.2395199929383676, 2.8709992962844826)	(1.9795914285219798, 7.2092280762040062)	(4.2610429285634535, -8.3480723990590615)	(4.5356973543618455, -2.1691795341081912)	1.0	z	1.13914
32	N	A	M	B	B	N	A	M	M	8	5	shapes	N	6	False	63	(4.3582991424621706, -3.5762151969135321)	(4.9877435773018473, -7.6698531668089842)	(-5.9459183017322665, 0.35052591082404305)	(-2.938251687377722, -8.5361834627333852)	1.0	slash	0.985808
1	M	B	N	N					N	4	2	shapes	N	7	True	63	(4.312652694473984, 3.7289911365035628)	(-6.9587000567984525, -5.1160761401020061)	(3.1390004433004872, -5.3045465866950039)	(-2.0460565475078853, 6.3083592888640929)	1.0	z	0.970183
2	M	A	A	M					N	4	2	shapes	A	7	False	63	(6.9067417731054093, -3.7899214184077819)	(-1.2065334471590754, 0.32787282288277275)	(3.3904015438879007, 6.5919291681172787)	(-4.7547199683594261, -3.9637713617228414)	1.0	slash	0.927696
3	N	A	A	B	N	B	M	M	A	8	5	shapes	B	7	False	63	(-2.1790229942240735, -0.91002042766125513)	(-7.0001262204752406, -1.7622271898922106)	(-2.6711352626786429, 8.7342243490819733)	(2.0689188189058942, -5.2660273157981141)	1.0	z	1.05676
4	M	A	A	B	B	N	N	M	B	8	7	shapes	M	7	False	63	(7.3617258363316687, -1.5440115518170687)	(4.108595398611941, -8.4780698011556197)	(6.940357423981208, 4.2326484279373382)	(2.926608706422174, 3.2711464219633655)	1.0	slash	1.04891
5	N	B	N	A	M	A	B	M	B	8	1	shapes	B	7	True	63	(0.039115165243533312, 4.1303469223145317)	(-1.1547124220487675, -4.8811483187222429)	(-5.6052522886073257, 2.6883868561225022)	(2.5470528788762827, -1.1943026374139816)	1.0	slash	1.20207
6	M	A	N	B					B	4	1	shapes	A	7	False	63	(-6.2470852276723718, -4.3905483635723126)	(4.5618219131055735, -2.6873502317906288)	(0.061231774470035916, 1.0579772081217858)	(-7.2614536591327052, 1.9126477599528275)	1.0	z	1.03624
7	M	A	B	B	N	N	A	M	M	8	0	shapes	M	7	True	63	(-2.1367514772988647, 3.6783104887548657)	(-5.6381147141518957, -7.5677505049750717)	(8.7351123712752532, -4.624562465895079)	(3.4868707638629868, -7.1715855522610914)	1.0	z	0.911994
8	N	B	B	A	A	N	M	M	N	8	0	shapes	N	7	True	63	(4.6889525457309009, -4.5603581784036704)	(-6.8047691554612895, 1.6038660409511767)	(7.4102142111550577, 4.3138321848371035)	(-5.2770757920275386, -4.4593629715175407)	1.0	slash	0.890749
9	M	A	M	N					A	4	1	shapes	A	7	True	63	(3.0008483154906571, 5.9672795043015334)	(-7.6059165534949935, 2.3113607221602717)	(-7.1391679266633492, -7.9250901771794737)	(4.3353541924856405, -4.259418678590011)	1.0	z	1.01909
10	M	A	B	B	N	N	M	A	N	8	5	shapes	N	7	True	63	(-2.127684854515282, 4.4275624897350276)	(7.3412464897578857, -7.3286035598443515)	(0.12005181503538864, -2.7162632854160531)	(7.2522131933645788, 6.6239656909832174)	1.0	slash	1.1863
11	M	B	N	N					M	4	0	shapes	M	7	True	63	(-6.9988472571130993, -4.5476935760274113)	(3.6460550081827936, 8.5776102366148557)	(4.5015011330767152, -7.9637257555457888)	(-6.4531920339267952, 8.209937477976947)	1.0	slash	1.16842
12	M	B	B	A	M	A	N	N	M	8	7	shapes	N	7	False	63	(8.5135349050811584, -6.1322742351549255)	(5.108644688054591, 8.4277047564350944)	(5.7483320215795679, 3.1971925496468554)	(-5.1265552628093518, -1.5491031015280514)	1.0	slash	1.00258
13	N	A	M	M					N	4	0	shapes	N	7	True	63	(0.82538622731855504, -0.8841873540554186)	(-0.09940805693201149, 5.322159023567945)	(6.3071067438312607, 2.1416395743428183)	(-6.2714060830826099, -3.066150730409154)	1.0	z	0.907778
14	N	B	M	M	N	B	A	A	M	8	3	shapes	M	7	True	63	(5.008898350300548, 7.7642981654976033)	(-5.1044666008573518, 6.9332802031048395)	(-5.6731172273878983, 2.4023555370850254)	(2.4705948319451903, 3.7251691639994)	1.0	z	0.88862
15	M	A	A	M					A	4	1	shapes	A	7	True	63	(2.7555564607317748, -1.9759998543458384)	(-6.0922729359514474, 6.0940701310836314)	(8.5974876671263765, 7.5651863394181724)	(-4.9965506268631401, -2.515467273299028)	1.0	z	0.990929
16	M	B	B	N	A	A	M	N	A	8	5	shapes	A	7	True	63	(4.8220340930155938, -4.9467864838923807)	(0.72714759887526803, -3.5521938127608284)	(-8.3252957249391049, 6.9879627087985909)	(-0.74957283513374051, 0.41467742921926387)	1.0	slash	1.14673
17	M	A	M	A					M	4	0	shapes	M	7	True	63	(-1.7598423455839391, -7.1198092973023552)	(-2.1959516043055851, 4.5593909058973772)	(1.2634687524771167, 7.5255611654471117)	(6.0947794441116976, -4.1287962291353502)	1.0	slash	1.00781
18	M	B	A	N					N	4	1	shapes	B	7	False	63	(2.9808630851155886, -6.8009604397203303)	(-5.0301819682371987, -5.7494579449959229)	(-5.235561036069889, 1.9339610385655117)	(6.8424620446264424, 8.7078040306321611)	1.0	slash	1.11212
19	M	B	B	N	M	N	A	A	N	8	6	shapes	A	7	False	63	(-3.1934680537251019, -6.7488069138022091)	(-2.7539616169841068, 8.5213839994745335)	(1.6623860562790416, -5.2694275492677018)	(-4.2679093816656071, -2.6234918438309558)	1.0	slash	0.907658
20	N	A	B	B					B	4	2	shapes	B	7	True	63	(0.69949904863891987, 0.23596718025642538)	(-6.0559172652500024, 5.5302628683810049)	(-2.3265864094675637, -7.2420175356503531)	(7.4023580304202383, -3.549064860719608)	1.0	z	1.07907
21	N	B	M	B					A	4	3	shapes	B	7	False	63	(-4.6600047017054234, 7.5367728063963533)	(0.5734281011973188, 0.73810753229829018)	(3.8582068258353353, -4.0567431488042933)	(-6.6058608036106632, -7.9975131662166099)	1.0	slash	0.510762
22	N	A	A	N					M	4	0	shapes	N	7	False	63	(5.737467592778124, 2.106111250681618)	(-7.3420640454536201, -1.491672764754183)	(7.8904555950821305, -6.376270004290209)	(-3.2498809709093877, 4.5684718626730536)	1.0	slash	1.23408
23	N	A	A	B	M	N	B	M	B	8	4	shapes	M	7	False	63	(0.12657843977801342, -6.0783015688719342)	(2.683166784986236, 8.3080273069485173)	(6.9849044123867916, -7.9109238264721551)	(-6.2588234424622016, -7.9617285166812728)	1.0	slash	0.941639
24	N	B	A	M					M	4	1	shapes	B	7	False	63	(-8.6306213677142338, -2.5236698075276527)	(3.0889539876836167, 6.124471522043752)	(6.4555339674982619, -1.3686263420810345)	(-4.5261407110388827, 0.28383684936258113)	1.0	slash	0.923938
25	N	A	A	B					N	4	3	shapes	B	7	False	63	(-2.5451619401909458, -1.6112544803764779)	(2.1987368536132212, 7.9378023103270863)	(-5.8717942470318736, 7.9314508544197153)	(4.8673531472398004, -8.2984241096880655)	1.0	slash	0.92531
26	N	B	M	N					N	4	0	shapes	N	7	True	63	(-4.2402612824728712, -1.8604110708661112)	(-3.9814608000057436, 7.0478834309908169)	(7.3887729164398728, 8.4726411023090833)	(2.5080164091335444, -3.7907879111892999)	1.0	slash	0.847114
27	N	B	N	M	A	A	M	B	M	8	3	shapes	M	7	True	63	(-4.478382454378778, 1.6360775550726299)	(-7.7518634637135859, -6.3399148696885383)	(7.1372183296901763, 1.5065328133263769)	(7.3658179924190357, -4.0429808099705253)	1.0	slash	0.864596
28	N	A	M	M	B	N	B	A	M	8	5	shapes	N	7	False	63	(8.3654249318387777, 0.77172340246435844)	(-4.2869999948205173, 3.6116338881205206)	(1.0626741010276124, 8.5962815249540547)	(2.4998284733286464, -7.9617236285159754)	1.0	z	1.46189
29	M	A	A	B	B	N	N	M	N	8	4	shapes	B	7	False	63	(1.8009824745157008, 5.639485412366092)	(5.9581956531882732, -8.0372786349036733)	(-4.8986781384039606, 8.1356695715157308)	(0.37489551717172453, -2.239723278748281)	1.0	slash	0.819488
30	N	B	N	B	A	M	A	M	M	8	7	shapes	M	7	True	63	(-0.86532726585290654, 7.2943652159057635)	(6.2279063742844905, -7.7099064671091124)	(-6.0003814894502394, 0.46876301340445004)	(-2.5903142541690984, -4.9158058023220494)	1.0	slash	0.639465
31	N	B	N	A	M	M	A	B	M	8	2	shapes	N	7	False	63	(2.1354922960496605, 5.9148617742054501)	(3.3215485392772912, -2.6155461736589549)	(-5.9039877927923374, -0.37364478017701153)	(-5.8548010011942004, 6.5016153351167674)	1.0	slash	0.962803
32	N	A	N	M					N	4	1	shapes	A	7	False	63	(0.74165358360052025, -4.30922802379256)	(-8.0816585576598285, -8.1993329969094795)	(5.9420804383974346, 4.358609454486194)	(-5.3769474400706869, 4.0406711051116719)	1.0	slash	0.992833
1	M	A	M	B					M	4	0	shapes	M	8	True	63	(6.5496702759667951, 4.9605040668553233)	(1.4722140221107622, -7.3883232790644637)	(-2.3216162296754304, 8.2161017257468529)	(-6.1200426960416054, -7.0932532123634413)	1.0	z	1.10035
2	M	B	B	A					A	4	3	shapes	A	8	True	63	(-2.8626230230743221, -3.4867521130580448)	(-5.1576238514430948, 0.56781545137520162)	(5.331013800934322, 1.9399032875174953)	(8.7417941136272219, -2.7315851900416011)	1.0	z	0.569529
3	M	B	N	M					M	4	1	shapes	B	8	False	63	(8.6815792791122242, 3.6269998706553626)	(-3.9966641982578501, -4.4286187829661134)	(-4.5506215158403025, 0.34930408738363461)	(4.5578722501590114, -0.82520159343713928)	1.0	slash	0.537836
4	M	A	A	B					M	4	2	shapes	A	8	False	63	(-8.461461126684247, 1.950720693837118)	(7.1010016872606041, 6.3722383085305054)	(8.2998800384231401, -6.4971108507132147)	(-5.3902435426213771, -8.7364307813597968)	1.0	slash	0.447578
5	N	B	A	B	A	N	M	M	N	8	7	shapes	M	8	False	63	(-7.8722678303764191, -4.1419843897022153)	(-0.49737007561407154, 6.5028553716553148)	(3.2559846281249314, 2.6801674988722493)	(7.1962406347298842, 3.6169553354720794)	1.0	slash	0.577349
6	N	A	M	B					N	4	2	shapes	M	8	False	63	(-1.4462843239848189, 4.528252340602096)	(2.4201360950487718, -0.33941395662736795)	(-6.8504266368289146, -1.5223141818408612)	(6.7111547936209082, 6.2099645997826638)	1.0	slash	0.54888
7	M	B	M	N	A	A	N	B	N	8	0	shapes	M	8	False	63	(0.33319771617314942, -2.9950770715191641)	(7.0647272475184248, -7.2806247610681485)	(-6.3689065137270298, -2.0853973571743865)	(-4.4935009032062281, -7.2254528227922847)	1.0	slash	0.489854
8	M	B	B	N	N	M	A	A	M	8	0	shapes	M	8	True	63	(5.9186710239608935, 3.0038019580025814)	(-8.554516077825669, -8.6449438678387338)	(8.7358610505172756, -2.5374838750976325)	(-1.7405992879043293, -5.3948251633538202)	1.0	slash	0.556239
9	N	A	N	B					A	4	1	shapes	A	8	True	63	(4.4892384188730006, 7.0860115014598399)	(-5.4994648823475867, 7.0859813256558191)	(-0.66993280729695748, -8.6597090866379496)	(2.4958788880425171, -5.3667920546855452)	1.0	z	0.61587
10	N	A	A	M					A	4	0	shapes	N	8	False	63	(-4.3259282228196803, -0.64798228305185468)	(6.8826786501256603, -5.2918045609537447)	(-6.7920912350242002, 5.9403038108449167)	(2.9629314077846995, 6.7468042988952934)	1.0	slash	0.493428
11	N	B	B	N	A	M	A	M	A	8	6	shapes	A	8	True	63	(-0.37593799335840394, -6.4786509607333258)	(-2.8298158721809656, 2.1058255443702389)	(-8.1665948459606774, 8.1412069150578716)	(6.9216801363332312, 7.4350934010101959)	1.0	z	0.620346
12	M	B	A	B	M	N	A	N	B	8	7	shapes	N	8	False	63	(1.6577753635277084, 6.6382174953725119)	(-7.8931180365784641, 4.2791716608881405)	(4.5840396736694338, -0.51410555303034933)	(-4.7512781658453793, -7.7075441763513135)	1.0	slash	1.9065
13	M	A	N	N					M	4	3	shapes	N	8	False	63	(5.8663593415990647, 1.0962624541151946)	(-2.7377183435482406, 2.7898417622222684)	(0.84425648326298486, -4.1675540602647905)	(-3.249096079496236, -4.7004875219334927)	1.0	z	0.766321
14	M	A	N	M	N	A	B	B	B	8	7	shapes	B	8	True	63	(2.9781048120944345, 8.241603330487699)	(8.3979249369967661, 4.7669872215855804)	(2.1304086206842587, -5.1952613190166721)	(-3.3944226058604237, 5.917899686709239)	1.0	z	0.879328
15	N	A	N	A	M	B	B	M	N	8	3	shapes	A	8	False	63	(-1.6336972972734287, 2.7936136426478395)	(-6.0361873801923895, 3.3255435789629182)	(6.5247554305493622, -2.8762230765857035)	(7.4419915479482377, 7.5172846276206933)	1.0	slash	0.903076
16	N	B	N	A	A	B	M	M	M	8	7	shapes	M	8	True	63	(1.94306319307446, -5.16731476338781)	(-1.7565061255157435, 7.9034298827290179)	(3.561427368968582, 6.3508609895673125)	(-5.7620218912913392, 7.9205406198531279)	1.0	slash	0.3973
17	M	A	B	A					A	4	3	shapes	A	8	True	63	(6.910848797175893, -4.7606941150970057)	(-3.5218677186246827, -2.6945077037277372)	(-7.4607680651659036, 5.760453701728558)	(4.6691645371000394, 0.11643567093628526)	1.0	z	0.956938
18	M	A	B	B	A	M	N	N	N	8	5	shapes	M	8	False	63	(6.9848037456933856, -1.5718197828379532)	(7.2588157944688092, 6.818609802480168)	(-3.3727583363854023, 2.6237499059484453)	(-8.2613229083293991, 0.033243556670019103)	1.0	slash	0.904172
19	M	A	B	N	A	N	M	B	A	8	7	shapes	B	8	False	63	(-4.2643929442145758, -7.4560841957212656)	(-1.2413640615415034, -4.5203913099426174)	(4.7964421784056963, -4.664883584552558)	(-8.5689972518199529, 1.5724888557676771)	1.0	z	1.01175
20	N	B	B	M	N	A	A	M	N	8	0	shapes	N	8	True	63	(-1.2559289374538292, -7.8084092725726375)	(8.7174827005490414, -6.9850581445542108)	(-4.5639092699369552, 0.48905852527759031)	(6.8514415206031725, 6.0770351785834098)	1.0	z	0.956011
21	N	B	M	N					A	4	1	shapes	B	8	False	63	(-6.8805117661490929, 5.2116435503994616)	(-3.7160487408984757, -0.64362051578250679)	(4.6539526766842449, 0.39749491192736919)	(8.2054502410056713, -6.5991626908638663)	1.0	slash	1.42341
22	M	B	A	M					M	4	3	shapes	M	8	True	63	(-3.054146974618603, -3.1226875087217216)	(3.2670959472356067, 4.1402213052250136)	(-4.7503940948250989, 0.80375047715764403)	(2.7820983915004316, -4.0367487187760842)	1.0	slash	0.901335
23	M	A	M	A	B	N	B	N	B	8	4	shapes	B	8	True	63	(4.6623635524743197, 1.1716350608804618)	(5.0354766255623282, 7.8716494618830524)	(7.1200495434978652, -5.7869985480347355)	(-4.6112816972508295, 7.6480544431861688)	1.0	z	1.02683
24	M	A	M	N					B	4	1	shapes	A	8	False	63	(8.2467041856874701, 7.7427234483185678)	(6.9603054279765537, -0.71206825710456023)	(-7.2501641647416264, 5.8299594381971485)	(-5.6747923993578642, -3.1578923926975966)	1.0	slash	1.60668
25	N	B	A	N					A	4	2	shapes	A	8	True	63	(4.9566256858881133, 0.7892026040575324)	(-8.4453836137497973, -1.0913220626199021)	(7.7079752971726272, -6.9552889339956394)	(-0.48033172801107149, 7.1547118158943075)	1.0	slash	0.895659
26	M	A	M	B					M	4	0	shapes	M	8	True	63	(-6.4319032330120116, -1.4692031033243174)	(5.5359875670071848, 7.8485808223322771)	(-3.7915774090095598, 2.1273815846375559)	(7.3346745340788146, -7.7649529034913911)	1.0	z	0.927388
27	M	B	N	M					A	4	2	shapes	N	8	False	63	(5.7700644087154451, -4.4825668204661069)	(-7.9887126234214882, 2.8301024022769372)	(4.0648126971978353, 5.4403144172145748)	(-1.5417546425904582, -2.8205496653606268)	1.0	slash	1.01706
28	N	A	M	M	B	A	B	N	A	8	1	shapes	A	8	True	63	(4.8030024361002397, -5.632493601637254)	(0.60408170972161734, 1.5374696465978346)	(7.5066295269549137, 5.6813797578875782)	(-3.6356471394687437, -8.5678915413031014)	1.0	z	0.784553
29	M	B	M	B	A	A	N	N	B	8	5	shapes	A	8	False	63	(-6.5117843071603874, -6.5249538815605383)	(3.4050250899828693, 3.9300731954681005)	(0.23121495552527982, -5.3990450609759275)	(6.0484736737954492, -2.9019833631780898)	1.0	z	0.933916
30	M	A	M	A	B	B	N	N	M	8	1	shapes	A	8	False	63	(-8.1087937115884401, -1.8287149644683209)	(6.6018268244691782, 3.5459697654358582)	(-4.9082833772313794, 3.6828862961439945)	(-6.0749690373815319, -6.4548603774683695)	1.0	slash	0.93387
31	M	B	M	N					N	4	3	shapes	N	8	True	63	(-4.02463321793996, 7.0979613681049205)	(5.7684701250485553, 0.67551756586441236)	(-4.388926198386887, -8.2211212801557636)	(1.8963441263099856, -7.4027597623123986)	1.0	slash	1.01397
32	M	B	M	N	A	B	N	A	N	8	3	shapes	N	8	True	63	(2.6181019652733344, 6.9650974269544719)	(0.42781671922465492, 1.4215845090715042)	(-5.6398471223744924, -4.473488901325867)	(-7.1527398208128234, 6.4578827714157292)	1.0	z	0.957814
