TrialNumber	stim0	stim1	stim2	stim3	stim4	stim5	stim6	stim7	stim.probe	ttl.stims	corr.num	trial.type	stim.corr	block	match	Subject	stim.pos0	stim.pos1	stim.pos2	stim.pos3	ran	resp	RT
1	M	B	A	A					B	4	3	shapes	A	Practice	False	7	(4.4994247313957665, -5.864576740758606)	(-3.5657244643194606, -2.0830427740033697)	(-3.3850939439625369, 3.6020755929371528)	(7.4491419872854827, 6.0923201685411765)	1.0	slash	3.18985
2	M	B	B	N					N	4	3	shapes	N	Practice	True	7	(8.1433217857276645, 4.4985395804385622)	(2.0932148669102535, -6.5454080415928715)	(-3.9038279537332148, 6.0023110262963328)	(-5.22920466883087, -8.219606873060858)	1.0	z	1.7151
3	M	A	A	M	B	B	N	N	N	8	4	shapes	B	Practice	False	7	(3.7965077044298869, -6.9080601222307996)	(1.799866198355808, -3.0794313355563308)	(1.7572080022914598, 8.2219140302440721)	(-3.3438406709576167, 8.603140795985265)	1.0	slash	1.96065
4	M	A	M	A					A	4	3	shapes	A	Practice	True	7	(2.8705298072892891, 4.0237546511497406)	(-8.2452762564389595, 2.6277961056212149)	(8.3490995594721866, -3.5279953761472953)	(-1.7571836037551423, -8.3545318385169658)	1.0	z	2.40838
5	N	A	N	M	A	M	B	B	B	8	5	shapes	M	Practice	False	7	(-6.6938026930187746, -1.3864412425608066)	(2.4352672371185395, 3.6973994008104079)	(2.6589638930700694, -5.0892185927983826)	(-2.2533134962256911, 7.3951921261290607)	1.0	slash	2.01192
6	N	B	A	N	B	A	M	M	N	8	3	shapes	N	Practice	True	7	(6.9472953503150414, 3.2805217266865174)	(3.0570254308670606, 0.18255310796243052)	(-2.9708581294027177, 0.90249316733057405)	(-8.6517428859534391, -4.3848983651591515)	1.0	slash	2.93339
7	M	B	N	A	B	M	N	A	A	8	3	shapes	A	Practice	True	7	(4.9188718194503558, -2.6092760786640419)	(-1.1824671694462809, -5.734868302382166)	(-7.3117256994565842, 4.2100451564750507)	(-8.6552728466088116, -3.4927019084087023)	1.0	z	1.71105
8	N	B	A	B					A	4	1	shapes	B	Practice	False	7	(-5.978705192076748, -6.4071256526747424)	(-8.4484113146024296, 0.45354438742345771)	(0.40880154760153253, 4.7810551750711259)	(2.7137228600569419, -5.3321585675591017)	1.0	z	0.898574
1	M	B	B	A	A	N	N	M	M	8	7	shapes	M	0	True	7	(3.6337077822292514, 3.7961890864758896)	(5.3036592939091101, -0.66142492822320165)	(-6.5924416258609764, -2.5144196511868362)	(8.6824929193850551, -5.7578446437137458)	1.0	slash	0.786326
2	M	B	N	N					M	4	1	shapes	B	0	False	7	(2.0712923300843649, 7.3056018154749509)	(5.2269340965984821, -5.0105835827532132)	(-4.2091749118005959, -8.3896971430291352)	(-3.9776761889125014, 5.9110896731701281)	1.0	slash	0.816056
3	N	B	M	M	B	A	N	A	A	8	2	shapes	M	0	False	7	(0.18528652430800818, -8.5219538842973765)	(3.3314109087101293, -3.3050602827379238)	(3.1880600492797715, 7.4705728402577201)	(-7.6930845878218097, 5.203565367675683)	1.0	slash	0.865756
4	N	A	B	B	N	A	M	M	M	8	2	shapes	B	0	False	7	(3.8938819262936946, -6.2776573890261389)	(1.2133125387418424, 6.4187300934400362)	(0.82756313886314103, 2.1139842147656012)	(8.6899590490978866, -8.5556525889221025)	1.0	slash	0.625669
5	M	B	M	B					A	4	1	shapes	B	0	False	7	(6.8533759718558933, 4.3933626889004085)	(-5.3103929760663, -2.1938112355429054)	(-1.1691928475007991, 2.2532935056952841)	(3.5130987095390758, -4.3350199342175122)	1.0	slash	2.19914
6	N	A	A	B					N	4	0	shapes	N	0	True	7	(6.7166635594547373, 2.2816775333558059)	(-4.2248641834743212, -4.6232799175103585)	(6.8109638412404436, -8.1697080752544977)	(-5.8480253687991759, 0.24452034789027799)	1.0	slash	0.344816
7	N	A	B	N					B	4	1	shapes	A	0	False	7	(4.8028107979683785, 8.3463624395134524)	(-7.0651658226095231, -0.36210588414751577)	(-8.4374759392711951, 3.649573304955803)	(7.2906006966305341, -6.9709131719120494)	1.0	z	0.286529
8	N	A	N	M	A	B	B	M	B	8	2	shapes	N	0	False	7	(4.9708291427526312, -7.722851062397635)	(-8.5862573255989041, -0.83683079977857222)	(-5.6582966474211398, -4.2744732938368726)	(-3.0714384188306028, 6.6961183180181845)	1.0	z	0.857909
9	N	A	B	M					B	4	2	shapes	B	0	True	7	(2.6856673155144808, 0.87239212555378209)	(-0.60450678516905576, -3.6073788707751149)	(-6.1137289620240569, 7.9538402695254398)	(1.4748150982936306, -7.4940820049399006)	1.0	slash	0.895642
10	M	A	N	N					M	4	0	shapes	M	0	True	7	(6.7548391319111811, 3.312488992185866)	(-1.7591088632116856, -4.4631661401302605)	(-0.68568862636558059, 5.875072479786926)	(4.5592714136997667, -5.6809451035986189)	1.0	z	0.623342
11	M	A	N	M	B	A	N	B	N	8	6	shapes	N	0	True	7	(-5.8537604192419899, 5.0805129158463416)	(2.2029713097687242, 0.8149089299768697)	(-3.6717105887275157, -7.0937511419984354)	(1.5722686364750054, -5.6898636817136357)	1.0	slash	1.28711
12	N	B	A	B					N	4	3	shapes	B	0	False	7	(-4.9846146754736269, -6.0937390456160774)	(5.19832592850819, -2.5918688879969611)	(6.4291925868442128, 5.2060425165776731)	(-1.429998632108342, 7.6172810052526962)	1.0	slash	0.872854
13	N	A	A	N	M	M	B	B	N	8	3	shapes	N	0	True	7	(3.9700034967016151, 3.5727401415567748)	(-5.6591208239676671, -3.2009952391073178)	(-0.57718547327190528, 1.4243269975606907)	(5.0206333067170679, -6.8112491782214981)	1.0	z	1.07028
14	M	A	M	A	B	B	N	N	N	8	6	shapes	N	0	True	7	(0.097375961203194805, -2.7046776767049465)	(-0.92101807469042374, -7.6399976516308605)	(-7.6572483958521849, -0.45430549944324561)	(6.4372039729483799, -6.6814464312817616)	1.0	z	1.02195
15	M	B	M	B					B	4	0	shapes	M	0	False	7	(-3.6691657777146487, 0.31172541870776982)	(8.4500651243531628, 7.9622126709017067)	(3.4587982550732672, -5.0543525262414768)	(-7.5956761672368351, -1.3728418319647089)	1.0	z	0.56354
16	N	A	M	A	B	M	B	N	B	8	5	shapes	M	0	False	7	(8.2473135051249145, -7.9769663646030367)	(-0.51732482834970206, 3.8927998791478391)	(3.0110240813542521, -5.1981954765607536)	(-6.8856163438888274, 5.3460435329506222)	1.0	slash	2.11925
17	M	A	N	B	A	M	B	N	M	8	7	shapes	N	0	False	7	(4.9327282170521869, -3.6618212837315793)	(6.6418939163142188, 6.2143369421242909)	(-8.5639134411218958, 5.8824856538607264)	(-2.6960400069484161, -4.0500037569883238)	1.0	slash	0.732833
18	M	A	A	M					B	4	1	shapes	A	0	False	7	(3.5021197677788383, 2.6333321652293282)	(3.1001538105773143, -4.5027826437707965)	(-2.1422448436294035, 7.8052372543121251)	(-6.0574833385781535, -3.3021793011493594)	1.0	slash	0.572308
19	N	B	A	B					B	4	3	shapes	B	0	True	7	(4.7807006193363275, -5.4668520412016619)	(-2.9021086159179363, 2.0003043167174823)	(4.4869165044023589, 0.16046602693158363)	(-2.6162159976805501, -5.7060572284556939)	1.0	z	0.739979
20	M	B	B	N	M	N	A	A	N	8	0	shapes	M	0	False	7	(-5.2165372732841568, -4.8965239656637607)	(5.8495078574079322, -6.2889043329525594)	(-4.4619415436736487, 2.8836385903130992)	(8.4773363728166338, 7.9833518069290399)	1.0	z	0.805871
21	N	B	N	M	M	B	A	A	M	8	3	shapes	M	0	True	7	(8.1812836419236383, 2.3414155225615474)	(0.38977405544495802, 1.852462440462844)	(6.6888569862722118, -1.8102629430079489)	(-6.731201669558172, -0.77600768628279226)	1.0	slash	0.745379
22	N	B	N	B	A	A	M	M	N	8	0	shapes	N	0	True	7	(-4.2060257852025833, 8.528486556584042)	(3.6704284550754522, 2.2763684470592196)	(6.1352421208885914, 8.6772232030546448)	(-3.4829797497196076, 4.365847720726201)	1.0	slash	1.05708
23	N	A	B	N					A	4	3	shapes	N	0	False	7	(1.962948380422036, -5.5489940103634092)	(-2.4524646254385996, 2.99285134856345)	(3.2672256488593003, 4.1363569286120452)	(-4.0290593458128363, -3.412168969308075)	1.0	z	0.848746
24	M	A	B	B					M	4	0	shapes	M	0	True	7	(3.6695113881668906, -0.65416172377982384)	(7.546106389792822, 4.6961439524658779)	(-5.5031393646240119, 2.1648320255555831)	(-3.7614686855493495, -1.4520517848701715)	1.0	z	1.48844
25	N	A	B	N					A	4	1	shapes	A	0	True	7	(4.3994430356366259, -3.0112758699736268)	(-1.6346676442413193, 3.2888055806956373)	(-1.9805108841183161, -7.326527859596311)	(4.2123896037999344, 5.9284154464930641)	1.0	z	1.25597
26	N	B	B	M					B	4	0	shapes	N	0	False	7	(0.12021624080550453, -0.71389816896794578)	(7.7140454643366709, 2.8185167352255185)	(-2.3055266755329749, -5.0928101842024951)	(-6.4396133371970166, 7.2446046115768645)	1.0	slash	1.18367
27	N	B	A	B	A	M	M	N	M	8	1	shapes	B	0	False	7	(6.4252765453082041, 5.9422215923929471)	(4.99686197036457, -5.9745925925266263)	(-1.7963846747406045, 8.6528959903667015)	(5.1779416380098322, -0.090536868265893133)	1.0	slash	0.927141
28	N	A	N	A	B	M	B	M	A	8	3	shapes	A	0	True	7	(-2.6014441229816798, -7.4011706200425467)	(7.1731720296838404, 7.5935330205284437)	(-3.52578945397173, -0.39054517423466528)	(2.2614130336178437, 3.8290066577303197)	1.0	slash	0.778815
29	N	B	N	B					B	4	3	shapes	B	0	True	7	(6.3773034063538514, -0.84607695116401072)	(5.8770388210460744, 4.8242909991854592)	(-5.5869285263781236, 6.213958371189765)	(-6.947463799707525, -8.455415536388081)	1.0	z	0.368513
30	M	A	B	N	B	N	M	A	A	8	2	shapes	B	0	False	7	(7.0784170772278578, 2.648893245356934)	(1.1077877254832984, 3.8491778096907208)	(-6.0538922089668876, 0.28758989360256848)	(-0.040640909780217171, 8.1177214828660027)	1.0	slash	3.10762
31	M	B	N	N	A	A	M	B	B	8	1	shapes	B	0	True	7	(7.8587383180715449, 7.8809208058023792)	(-7.4495788768052025, 1.5255666982821268)	(5.9883942960621805, 3.6624400236175578)	(-7.4950062864755198, -3.51950366921099)	1.0	slash	1.40365
32	N	B	A	A					N	4	0	shapes	N	0	True	7	(-2.9494862114278293, 0.28666857209623586)	(1.34725653395809, 7.2587258615882462)	(0.43471078452485656, -5.6559148249368656)	(-7.3746957998131171, -4.9739227246692543)	1.0	z	1.79735
1	N	A	N	A	M	B	M	B	M	8	4	shapes	M	1	True	7	(3.6826370518201266, 4.5667773529391944)	(-1.1022899873072731, -6.8612505986342942)	(-7.573829546016678, 6.5951410983268381)	(-2.875335434618707, 0.4928617497435166)	1.0	slash	0.606941
2	N	A	A	M					N	4	0	shapes	N	1	True	7	(7.8428286538089544, -3.0496347870765481)	(-2.2205367010759591, 2.5411599022758562)	(5.8644110916628343, 7.6556007840622513)	(-8.3176852561220791, -2.5049712979243726)	1.0	slash	0.968568
3	M	A	M	B					M	4	2	shapes	M	1	True	7	(1.2646836623667834, 3.7877113711929802)	(-2.2533019580732985, -6.1638713347124927)	(-4.8883881054927709, 4.4870838730090057)	(4.953371063042848, -0.22662009044847764)	1.0	z	1.01583
4	N	A	M	B	B	N	M	A	A	8	7	shapes	A	1	True	7	(-4.298832430486053, -1.2230147108729472)	(-7.2154349694640691, 4.9685271987917936)	(7.3410327922598846, -5.0301135393772878)	(8.0997231816500168, -0.27710453758388098)	1.0	slash	0.681633
5	N	B	M	M					N	4	0	shapes	N	1	True	7	(-5.7227822550094727, 0.2694092463422777)	(8.1869887251733537, -4.3823179155688825)	(-3.1405186401270493, -4.3337571992203632)	(0.42742684209146908, 1.1572774925176486)	1.0	slash	2.81949
6	N	B	N	B	M	M	A	A	N	8	3	shapes	B	1	False	7	(-2.6346180848203469, -2.0439662527656326)	(2.4009785500820815, 4.2030122173984807)	(6.8273210799305151, -3.5153573568849019)	(-4.768001368195133, 7.9700591764955036)	1.0	slash	1.06683
7	M	B	M	B	A	A	N	N	A	8	4	shapes	A	1	True	7	(-2.3790958908917288, 4.4905179758797544)	(4.4391021492927791, 7.3494054356113878)	(0.83271508659306015, -7.5215900262719551)	(-3.2472062502560943, -7.170604857847211)	1.0	slash	0.402736
8	M	B	A	N	N	B	A	M	N	8	2	shapes	A	1	False	7	(0.18554129295528021, -7.5300275146773892)	(-5.4675043596790314, 5.2195946345190745)	(-5.4938139188344461, 1.1805466036450998)	(5.1610198779310128, 3.6432463061549232)	1.0	slash	0.726283
9	N	A	B	N					B	4	2	shapes	B	1	True	7	(-4.5715674008643283, -6.7347760729917052)	(-2.7101007746854942, 5.9405797765590656)	(6.5206778844455275, 4.3689164233339248)	(0.28899371841176169, -6.43183536369731)	1.0	slash	0.472042
10	M	A	A	N	B	M	N	B	A	8	7	shapes	B	1	False	7	(-8.0872404373854252, -5.5260520458943176)	(7.3338630898101727, -0.58305297224899633)	(-0.091671541247780652, 1.7758373968589236)	(-1.8448123000054046, -5.3374338422901397)	1.0	z	0.685501
11	N	B	B	N	A	M	M	A	A	8	4	shapes	A	1	True	7	(-7.1418607347237284, -3.6156324959617825)	(6.2155225284488491, 4.5899722157593867)	(-0.05824529306475057, 0.33418349944457404)	(-8.4440360629852265, 7.446638043268905)	1.0	slash	0.905157
12	M	B	A	A					B	4	1	shapes	B	1	True	7	(-4.508579191741414, 7.7187370123559091)	(1.1903594897688023, 7.8255620268025829)	(-6.5302648067075104, -2.7619366585567571)	(0.55934434816357026, -0.80740652553299075)	1.0	slash	1.60698
13	M	B	B	A					N	4	2	shapes	B	1	False	7	(7.129503835302474, -5.9173110532703461)	(-2.5742185269276892, -7.7028675851967643)	(-6.2668206821098824, 6.5450418182321943)	(1.0614808378200422, 7.2928689146619305)	1.0	z	1.72849
14	M	B	M	A	N	N	A	B	M	8	0	shapes	M	1	True	7	(-2.3197744844063122, -3.0453484771474209)	(-6.0280101860250053, -1.0765296298038596)	(7.6457259603984333, 2.7772856359247129)	(-0.32799315015427943, 4.3407846921351485)	1.0	z	0.820152
15	M	B	B	M					M	4	1	shapes	B	1	False	7	(-4.1244650527948332, -1.1234990818652228)	(5.6426983014447973, 5.6453459966055117)	(8.2876720375380089, -0.93481503123650356)	(-7.5588692489694189, 3.8638774538686587)	1.0	slash	0.753876
16	N	A	N	A					A	4	0	shapes	N	1	False	7	(8.2278874750872575, 4.4707485221828733)	(-0.59623786478767649, 0.51884919661114814)	(6.2951784734131486, -7.0616361182793748)	(-6.2954885756706851, -3.7220755700512154)	1.0	slash	0.64351
17	M	A	N	B	N	M	A	B	N	8	2	shapes	N	1	True	7	(-7.3187122161936129, -5.664308100030147)	(5.6193955617029712, 3.9475125466943162)	(3.7797684167430639, -4.2099779095464935)	(-3.0187640005094885, -4.4519779751357031)	1.0	z	0.262969
18	N	B	M	N	M	B	A	A	N	8	4	shapes	M	1	False	7	(-4.9966960675681422, 0.40257812317710773)	(3.4636591647203527, 8.0717987829420537)	(7.177238943948284, -4.9507927246900607)	(4.3705195682641556, 2.3220821710387849)	1.0	slash	0.406216
19	M	A	M	A					A	4	0	shapes	M	1	False	7	(-7.2009293713389813, -2.3238295791419858)	(-3.8169099740345951, 4.8848869258514718)	(3.2048335037872224, -6.2634576023161754)	(8.3912130055018572, 4.9938138360501032)	1.0	slash	0.384406
20	M	B	M	N					A	4	1	shapes	B	1	False	7	(4.3981055635644015, -8.2317165050862577)	(7.2206455704678074, 1.721813083307234)	(-1.959925654116895, -6.4324880456931268)	(-2.5294205074798768, 4.298802994970842)	1.0	slash	0.749971
21	N	A	M	B	M	B	A	N	B	8	2	shapes	M	1	False	7	(-8.2416401469872547, 6.3305118738458166)	(-3.8699643571064266, -8.1115489318528908)	(4.4362736313322397, -5.8602266743761184)	(0.55775684350233945, 5.7499457496014266)	1.0	slash	1.0298
22	N	B	N	M	B	M	A	A	N	8	0	shapes	N	1	True	7	(4.8657317891226963, 6.1165634336775287)	(0.22792943435091573, -8.4760262789770202)	(3.4801143645848072, 0.42321632509339402)	(-0.98488644603188291, 0.43326088757793002)	1.0	slash	0.869694
23	N	B	N	M					N	4	2	shapes	N	1	True	7	(7.1820067188600252, 1.9741904997797288)	(2.4837988665333448, -6.1555440959350172)	(-0.11243470858394033, 6.0984324133120484)	(-3.670918804445499, -2.4711529512548713)	1.0	slash	0.832525
24	M	A	A	B	N	M	N	B	N	8	1	shapes	A	1	False	7	(0.7866326323029007, 7.0148265512649282)	(-1.5254531625592191, -3.4529455275699288)	(-3.8853757221665095, 5.084830367494634)	(5.3279169176936261, -0.37834672957678528)	1.0	slash	0.894748
25	N	A	M	A	N	B	M	B	A	8	2	shapes	M	1	False	7	(5.9047157163767441, -5.2894092386902898)	(-3.9277096136057672, -3.0383018076626893)	(7.3686696175775204, -0.42093435510462385)	(-4.0225877802679273, 4.3077299770901938)	1.0	z	1.39241
26	N	B	M	A					M	4	2	shapes	M	1	True	7	(1.4888496580394097, -4.4023464269069175)	(-2.8560296090055166, 1.4467607133394793)	(-4.702760238801492, -4.4988169509748905)	(5.1426451282811332, 3.0959961584769449)	1.0	z	1.21982
27	N	B	B	A	M	M	N	A	N	8	6	shapes	N	1	True	7	(4.638930378224897, -8.1180172803388668)	(8.5243951756203771, -0.2569344762899064)	(-3.7025914179473496, -8.5690415443458239)	(-0.70723427902820468, 1.8946977073950677)	1.0	z	1.14555
28	M	B	A	M					M	4	1	shapes	B	1	False	7	(5.8008334926913463, 5.3742595211729451)	(-8.6703653775013407, 1.5960794392538293)	(-2.7143091038717397, -5.0585396909288001)	(6.195580312223175, -0.1800210500593149)	1.0	slash	0.909333
29	M	B	B	N					N	4	3	shapes	N	1	True	7	(2.1748649428720803, -0.79140347453920512)	(-3.0761138555403331, -7.5644111408095469)	(-6.7769719305330511, 8.2635523459855769)	(6.404974088461854, 1.714573133843377)	1.0	z	1.37694
30	N	A	A	M					N	4	1	shapes	A	1	False	7	(-8.340193015710696, -7.2760767295036404)	(-4.2228310722923865, 3.4864573907154437)	(7.7010245111331699, 2.3960893047765186)	(4.0503387406130855, -0.84705630324947023)	1.0	slash	0.910487
31	N	B	B	A	M	N	A	M	M	8	1	shapes	B	1	False	7	(-2.0515975506309587, 3.0154540716614733)	(-5.7217400712730697, 0.091842337827696241)	(-4.2888008291809072, -8.1265291340815544)	(5.5027758393193835, -6.8194967095406991)	1.0	slash	0.997712
32	M	A	N	B					A	4	0	shapes	M	1	False	7	(-4.8511471692788728, -7.288045714265154)	(8.7046348502717272, -0.54148284805391356)	(6.5090668832874616, 4.5587203960252065)	(-2.7747696304266185, 3.0769688121797731)	1.0	slash	0.927567
1	N	A	N	M					M	4	2	shapes	N	2	False	7	(-1.3555236907442314, 2.9576513865361456)	(5.3554866111491801, -7.6390501728286182)	(4.0059206860676841, 3.1244960013361336)	(-2.1278710155988314, -8.4729981150010829)	1.0	slash	0.71551
2	M	A	B	B	A	M	N	N	A	8	2	shapes	B	2	False	7	(6.923710404235413, -7.0328723580635382)	(-6.9202765779007445, -5.2719199145493807)	(-3.5694379446552524, 7.5732770009898758)	(6.8107997465624237, -1.899892824445212)	1.0	slash	0.697048
3	N	B	B	N					N	4	3	shapes	N	2	True	7	(5.2969659184780724, 4.5672531019443667)	(-6.2112787445762132, -8.0088214459365119)	(-0.27480271614412999, 3.8835975915600063)	(2.6016299524874107, -4.9275301193130483)	1.0	z	1.20879
4	M	B	B	A	M	N	N	A	N	8	5	shapes	N	2	True	7	(7.2138089439719906, -6.1161399669521028)	(-2.0000296857019695, 8.4697525026943907)	(-3.505397111192007, -0.76064665355746008)	(2.1130151164987083, 1.6378313015757335)	1.0	slash	0.596464
5	N	B	N	M	A	A	B	M	N	8	2	shapes	N	2	True	7	(5.032287514598627, 5.5873853385121439)	(-3.2503229782801721, 4.520597721142785)	(-4.1219680474999452, -6.1599193546743383)	(-8.6107986494879167, 4.2690501835170416)	1.0	z	1.32205
6	N	A	B	A					A	4	1	shapes	A	2	True	7	(5.6588706433263116, 5.9013871433719842)	(-6.534839005244649, 1.3230311640677073)	(-4.9934696699453234, -7.5388390347024803)	(5.8045193165153641, -6.0766812514105961)	1.0	z	1.33968
7	M	A	N	M					M	4	0	shapes	M	2	True	7	(-3.5863146934920866, -6.5125586495169703)	(-2.0895405604940258, 4.2722366260797919)	(6.5430731691230051, -0.68506702808161712)	(5.6899379157690753, 6.080999517471648)	1.0	z	1.00937
8	N	A	N	A					A	4	0	shapes	N	2	False	7	(-6.0526158055462869, -3.5381283286562075)	(7.2372413715377366, -6.0371175686519045)	(-5.2846534832605805, 6.4918986245911974)	(7.6368755798365058, 7.9524379960676512)	1.0	z	1.80104
9	M	A	B	N	A	N	M	B	N	8	6	shapes	M	2	False	7	(0.84945146358733403, 4.3486934653498874)	(-0.84973311395557616, -2.037907169555643)	(-4.2229092650447448, -8.1907553117644287)	(7.1767088685843206, 5.4326772421586149)	1.0	slash	0.622558
10	M	A	M	B	N	A	N	B	A	8	1	shapes	A	2	True	7	(-3.34508357301873, -8.532720005195042)	(3.7441160143145051, 8.1891965898571009)	(4.3752694278042927, -7.5374576952963981)	(-1.4978565562773696, -2.6849338513390544)	1.0	slash	0.622388
11	M	A	B	N	A	N	M	B	B	8	5	shapes	N	2	False	7	(7.1221130840197073, 6.3673722354647229)	(-8.0623897560096651, -2.4732251846234865)	(2.5061786108479218, 4.2355958442137958)	(-3.3465978197400501, 7.1694864977659147)	1.0	slash	1.5417
12	N	B	A	A	M	B	N	M	N	8	4	shapes	M	2	False	7	(7.8731062282419018, -7.2773319589740382)	(-6.9637288045941128, 1.2670096678095106)	(-4.3794756162361388, 7.0016356059397893)	(-0.9130948027133261, -2.1692444001027242)	1.0	slash	0.613344
13	M	A	B	N	M	N	B	A	N	8	3	shapes	N	2	True	7	(3.4602765165480029, 1.6995455735687397)	(-7.580361139197799, -0.62597953967843445)	(-2.8254171265385724, 2.4716443024353403)	(-8.6273231739881737, 7.5397271184282424)	1.0	slash	0.583014
14	N	B	A	B					M	4	0	shapes	N	2	False	7	(-5.0348880327590315, 6.5400099742985454)	(4.6113960177016242, -0.91309489329298099)	(2.1708170450650393, 4.9091429463025271)	(-1.0318152066100934, -5.4643548942391416)	1.0	slash	0.532787
15	N	A	N	B					A	4	1	shapes	A	2	True	7	(7.1136701348132458, -6.7566200197690254)	(5.213488837987132, 3.7448335979722422)	(-6.3363237946994833, -5.5474987578731625)	(-3.192631565089858, 8.1192124374288177)	1.0	z	1.41227
16	M	B	N	A	M	B	A	N	N	8	4	shapes	M	2	False	7	(-7.1383485558630149, 7.6095723434780105)	(-0.18309215756007902, 2.4916045996162097)	(-1.9906767910097516, -2.003978940756407)	(-5.3211109331760689, -7.031474559338009)	1.0	z	1.15824
17	N	A	N	M	A	B	B	M	N	8	1	shapes	A	2	False	7	(-1.5113362287925849, 7.3782665947806834)	(2.838553047044666, -6.5885871703558454)	(3.1930694126039398, 1.5776447091453303)	(8.3483354054799506, 6.0434050631901979)	1.0	slash	1.19575
18	N	B	B	N					M	4	2	shapes	B	2	False	7	(8.6563327799944219, 6.9197446299088199)	(-5.2732568011396364, -5.0921033808227225)	(0.71789973281698849, -1.0534682234136969)	(-3.2837937816509264, 7.1635354292173581)	1.0	slash	0.719256
19	M	A	A	B					B	4	1	shapes	A	2	False	7	(-8.2218726126774602, -5.2395017940364621)	(4.8847762167273601, -5.9276805595686675)	(7.2995611101674882, 7.9410518366284002)	(-2.9360490279958809, 2.0580793443408041)	1.0	z	1.10508
20	N	B	A	M					A	4	2	shapes	A	2	True	7	(4.4235478452223589, -4.895495862958005)	(-0.041696537712809345, 4.5035832895314165)	(-0.32831601863444071, -0.24071069401953338)	(5.4435182491839704, 3.401069478509708)	1.0	z	1.04668
21	N	A	M	N					N	4	3	shapes	N	2	True	7	(-3.8791333794042515, -5.3412547742886982)	(5.3263297057185621, 4.2192686170560734)	(7.3242204316567268, -0.093566568166027153)	(-7.5183911489064963, 2.9231166997458295)	1.0	z	1.11233
22	N	A	M	B	B	M	N	A	B	8	3	shapes	B	2	True	7	(-4.5901218127526784, 4.0039714679167382)	(7.5494510096865355, -6.64072145032923)	(-0.064228017788336089, -8.0093888756350786)	(-1.7359903285026457, 8.61875353934267)	1.0	slash	0.661726
23	M	B	A	A					B	4	2	shapes	A	2	False	7	(2.1681211737841455, -5.0894730660302114)	(3.0661077772403722, 7.6701968712261142)	(-2.0312571366152836, 4.7841918768483858)	(-8.0479462441131524, -0.85852541234674451)	1.0	slash	0.299703
24	M	A	B	B					B	4	2	shapes	B	2	True	7	(-2.8703722789137931, 7.4274255280320034)	(2.3977886076922719, 4.0295845102215804)	(-2.1435149637605191, -4.4460251509103497)	(6.344594814668703, -3.7500712102773432)	1.0	z	0.681404
25	N	A	N	M	A	M	B	B	M	8	5	shapes	M	2	True	7	(-0.49242853869911762, 4.1959928638792654)	(-7.089640941058386, -0.048753077997311323)	(4.3347101478655503, 3.3593607198259239)	(8.3868974975574275, -3.9375487441176622)	1.0	z	0.292892
26	M	A	A	B	B	M	N	N	A	8	7	shapes	N	2	False	7	(4.5978065772663577, -3.8033426006912201)	(-5.8567625119490003, -2.3927151513877414)	(0.07957087976351751, -4.4991475536209018)	(2.7445149433367302, 2.6697860768003228)	1.0	slash	0.286596
27	N	A	B	B					A	4	3	shapes	B	2	False	7	(2.8734158517461683, 2.9265845082899009)	(-7.6411128014371581, 3.0718184600239375)	(-0.77269054212310806, -3.105914819198798)	(8.3381933548360827, -8.2703738392595199)	1.0	slash	0.336423
28	M	B	A	A	B	M	N	N	B	8	3	shapes	A	2	False	7	(5.8616263140043809, 7.5429907606467843)	(0.015721860191158399, 0.74844130167173262)	(-6.2753341722770042, -7.1092069063449443)	(-4.585781199501727, 5.753159954416958)	1.0	z	0.265859
29	N	B	M	M					M	4	2	shapes	M	2	True	7	(7.8451072986369645, 4.745570592531255)	(-6.2837431830612331, -3.4643325924681436)	(-8.7212691792964954, 7.8230205620838369)	(7.6547858670669875, -2.5621660858055382)	1.0	z	0.335655
30	N	A	B	M	B	M	N	A	B	8	4	shapes	B	2	True	7	(-1.7548053996014703, -4.5878041608555895)	(3.5368784351167566, -2.9323613430056756)	(8.3488997727855683, 3.2471044690567048)	(-5.9273316566340997, -2.5039359280361291)	1.0	slash	0.521036
31	N	B	B	M	N	A	M	A	N	8	4	shapes	N	2	True	7	(-5.2500045885261777, -8.2839440375549547)	(-7.9060390092766006, 2.3496366277106961)	(-0.22006433443124074, 5.1135765218257578)	(4.3639070545604675, 3.2973865921045338)	1.0	slash	0.373149
32	N	A	B	B					M	4	0	shapes	N	2	False	7	(-3.1724273683335413, -2.4764781387990427)	(4.8148891303634134, -0.91693522065246036)	(7.8103264784900333, 4.5542292806828879)	(-4.997994032418303, 7.0880058240709829)	1.0	slash	0.308859
1	M	A	N	A	M	B	B	N	A	8	3	shapes	A	3	True	7	(4.0564261267717221, -1.5353123090597993)	(-0.55341772877279816, 6.2096321102123717)	(-6.286494632934529, -2.2737263517391124)	(-0.98051476927779113, -5.1299319186125185)	1.0	slash	0.654617
2	M	A	N	M	A	B	N	B	N	8	6	shapes	N	3	True	7	(6.8876357404806292, -2.0610109972394666)	(0.13666952760084428, 1.458566268802052)	(-6.5688174327337157, 4.1400029057578056)	(-2.2940333743240684, -8.499794511937143)	1.0	slash	0.37574
3	M	A	A	N					N	4	2	shapes	A	3	False	7	(-5.2912938701018275, -7.6281691083693586)	(0.37630036113598031, -2.0095618438430796)	(2.2426408600205594, 3.8826181698916624)	(-6.8201666736858817, 3.6801553137484397)	1.0	slash	0.919792
4	M	B	B	M					A	4	0	shapes	M	3	False	7	(3.0396844648950925, -6.1132839166030175)	(-0.82062933210117617, 3.0394476114573887)	(-0.124309974190421, -1.708004492021078)	(5.4853932501480092, 4.6770474100812311)	1.0	slash	0.745465
5	M	A	B	A	M	B	N	N	B	8	2	shapes	B	3	True	7	(-4.4507893718823448, -6.9913960703029723)	(5.7392444408154848, 7.6135437542502693)	(5.9828274941129731, -3.785970034128165)	(-5.8474436671699692, -2.7119402703861102)	1.0	z	0.784977
6	M	B	A	N					N	4	3	shapes	N	3	True	7	(-2.5428875577749217, 1.0307154151889542)	(2.2889788881918509, 6.8971752584131902)	(-3.6862312399834565, -8.1742310504934412)	(1.6551969133512028, -3.0918100016347028)	1.0	z	0.902862
7	M	B	B	M	N	N	A	A	N	8	6	shapes	A	3	False	7	(2.0285507286076712, -5.5304976870794)	(6.7628115215292901, 3.0837016457891249)	(-5.3977575869823644, -4.1016429517590254)	(-1.5240727614855309, 6.6439615222491533)	1.0	slash	0.566354
8	M	B	N	M					M	4	3	shapes	M	3	True	7	(0.3157540322729151, -8.0626387992170621)	(8.3819753962529582, 7.003884365484911)	(-2.9366567825868382, -3.0562479297179124)	(-7.7203268462138954, 4.741317106672339)	1.0	slash	0.91995
9	N	B	B	N	M	M	A	A	B	8	2	shapes	B	3	True	7	(-0.51283069265147851, -6.5362966667560469)	(-7.8068952403160639, 8.6677773183812548)	(8.6655151048986347, -3.9633296280085455)	(4.0444184408134909, -7.8673703574410689)	1.0	z	0.157575
10	M	B	A	B	A	M	N	N	A	8	4	shapes	A	3	True	7	(5.7247585165207404, 7.2812454809785585)	(0.16028979662261555, -2.3709616976143009)	(0.21373291255282467, 6.2877923485289546)	(4.8075375978678547, -2.1324954387025619)	1.0	slash	0.539476
11	N	B	A	A	M	N	M	B	B	8	0	shapes	N	3	False	7	(4.9148913576503119, 2.0547900921471349)	(-0.52575378176101495, 0.1936223328724509)	(-2.1809029027284872, 4.3709775653472249)	(-4.5445467518111107, -0.55565323446376702)	1.0	slash	0.596904
12	M	B	N	M	A	B	N	A	A	8	4	shapes	A	3	True	7	(5.5260785958701888, 3.533984890501074)	(-3.8723919207559252, -5.0906334522138126)	(-1.3083678749568577, 5.1615425650429376)	(-7.2096742995444849, 1.9109137901838942)	1.0	slash	0.32289
13	N	A	M	M	A	N	B	B	N	8	3	shapes	M	3	False	7	(2.2570157855729249, 5.753519880876377)	(-1.7333440928108823, -5.5853749143055769)	(-3.0106301020176307, 6.8391989160452766)	(-6.5653105301735923, -8.1353834177975841)	1.0	slash	0.926388
14	M	A	M	B	N	A	N	B	B	8	5	shapes	A	3	False	7	(2.4277123572786383, 8.3400260981359544)	(-6.1242626274412704, -1.1937575056583372)	(-1.8955569142442661, 8.1033825211209844)	(-1.0853198761361078, -3.6316697131169464)	1.0	z	0.498164
15	N	A	A	M	B	M	N	B	A	8	6	shapes	N	3	False	7	(7.1476332460015364, 1.4687093676974907)	(0.1445497324017655, -7.4564119112042579)	(-4.8328775169007088, -7.181335283925705)	(-5.7540193165224043, -1.0542544722288367)	1.0	z	0.379764
16	M	A	A	M					B	4	2	shapes	A	3	False	7	(-7.0857403905117788, 0.60332739643240174)	(7.4983384178172763, -8.550521977256988)	(-3.1494428971845698, -5.1703104835614973)	(5.8143991823804448, 0.43368700101361668)	1.0	slash	0.249524
17	M	A	M	N	N	A	B	B	A	8	6	shapes	B	3	False	7	(0.9643768907331669, -8.0547342818542074)	(3.0789705480413119, 4.7882202704576109)	(5.6786620286800638, 8.3489546400659123)	(-4.8014894793452445, -4.0705511305733415)	1.0	z	0.845033
18	M	A	A	M					M	4	3	shapes	M	3	True	7	(-4.0153334816925188, 6.9535604952587811)	(5.5946608847667534, 4.5654953075628129)	(2.2535662651263699, -1.525798878017655)	(-5.723524112505344, -0.40963441060359607)	1.0	z	0.302768
19	M	B	A	M					B	4	1	shapes	B	3	True	7	(-0.89818010577573215, 2.4515382365882772)	(1.2542353739808956, -1.940491181124024)	(-1.0606941591488201, -5.8412106187695532)	(4.0703909062933636, 7.4250214543586495)	1.0	slash	3.50026
20	N	B	A	B	M	A	N	M	N	8	6	shapes	N	3	True	7	(6.0759141466905771, 2.4259270446827816)	(-4.520797216174083, -1.0029915511415268)	(-2.9094657595197866, 4.1034364979536804)	(-4.5333826894814813, -6.2276229149749938)	1.0	slash	0.41379
21	M	A	B	N					B	4	2	shapes	B	3	True	7	(-6.0903301372116641, -4.1642731467420697)	(1.0390735847590218, -5.3467795797786417)	(-1.8207228031480085, 6.4086081801963495)	(7.0916739843523704, 2.9227065126505156)	1.0	slash	0.861623
22	M	B	M	N	N	B	A	A	M	8	0	shapes	M	3	True	7	(-8.1139105474245312, 1.6152798065248319)	(-0.24880815636479703, -7.4047040179345602)	(-2.7836112267431625, -2.3159955302579611)	(2.9842479667800319, -0.54714450270436643)	1.0	slash	0.301322
23	M	B	M	B					B	4	2	shapes	M	3	False	7	(8.390107989188234, 8.5152392903911256)	(7.4867402324088062, -7.7505286878497968)	(-7.6196002418560802, -7.1942824355553263)	(-6.2254990440403084, 4.5031014018578617)	1.0	slash	1.35477
24	M	A	B	B					B	4	3	shapes	B	3	True	7	(-0.74930116179047879, 2.8406147490546054)	(1.3441661233044027, 6.9398550194807793)	(-5.7513757589138503, -8.6004314324428464)	(1.7086154856343949, -1.2493855272059378)	1.0	z	2.67845
25	M	B	A	M	B	A	N	N	A	8	7	shapes	N	3	False	7	(-2.2746505254317126, -2.5996753858816071)	(-6.9820966630692665, 7.6318519238063693)	(3.3767274129010989, -2.0645386699882433)	(-7.2655917117098943, -8.5866026648476019)	1.0	slash	0.43414
26	M	B	M	A					N	4	0	shapes	M	3	False	7	(5.6238073095196732, -1.6960118381700573)	(-2.2633943655748574, -1.758932890752491)	(-4.6666867762660367, 4.6531913488043894)	(0.41121310594401805, 7.1447971688812935)	1.0	slash	0.45367
27	N	B	M	B					N	4	3	shapes	B	3	False	7	(8.379050582417694, -3.3161773150478071)	(6.4036190753431654, 3.4245928099872955)	(-1.2281036481447778, 2.5759496173248362)	(-3.1431347336315616, -3.4149036132613189)	1.0	z	0.573394
28	N	B	M	M					B	4	1	shapes	B	3	True	7	(1.8256002047028286, 7.9735516195361029)	(0.83600553570994407, -3.2902290713800726)	(-3.3140586656957982, 2.7292711432099406)	(-4.9220377620370561, -0.97406530247627021)	1.0	slash	0.252987
29	N	A	A	M	N	M	B	B	A	8	6	shapes	B	3	False	7	(-4.2777195035401956, 6.9476574434925844)	(-0.042645868752753557, -0.28208758985591054)	(-4.6176774980577768, -0.16937380119243706)	(4.3553252857259501, -8.3142918592856532)	1.0	slash	0.262931
30	N	B	M	M					M	4	1	shapes	B	3	False	7	(-3.662316435978755, -5.5880518806617943)	(-7.8344976868350287, 6.9311373434030887)	(4.3956353439821783, 3.6632257635237693)	(3.7121205169259017, -8.2866026076304404)	1.0	z	0.299996
31	N	A	N	B					A	4	0	shapes	N	3	False	7	(0.63397275109771378, -5.9586150183621838)	(4.5510339213385507, 6.7290356502115305)	(-6.9441251508435435, -3.7414243773377791)	(-3.8345367488029893, 4.3933478712906258)	1.0	slash	0.346326
32	N	B	A	N					B	4	1	shapes	B	3	True	7	(-8.4876175865203702, -5.0919851668682679)	(-0.79210377780375119, 7.0042931375770543)	(6.2963244603586652, -3.1791038631901554)	(8.3271099955636139, 4.1174311675833266)	1.0	slash	0.207956
1	M	A	B	B	N	M	N	A	B	8	2	shapes	B	4	True	7	(2.5822791575556359, 7.5708329910214758)	(5.8165798633639909, 2.4367704356992945)	(-3.9589369233572311, -5.035782631294893)	(-1.3543443557404586, 2.5249082379518821)	1.0	z	2.59964
2	M	B	B	A					A	4	3	shapes	A	4	True	7	(2.592334956757778, -7.0080973468592855)	(-7.3891319541149345, -7.8160377692057956)	(-0.34186944816867282, 5.5906341588406114)	(1.2285535609579181, 0.1151380379215432)	1.0	z	0.785137
3	N	B	B	M	M	N	A	A	M	8	3	shapes	M	4	True	7	(7.5429132126420555, 2.5660011472356281)	(-4.130661941810847, 7.7540372491489933)	(-3.0223866073950578, -7.550150502021074)	(7.88628833961792, 8.0957261853627251)	1.0	slash	0.496794
4	M	A	A	N					N	4	3	shapes	N	4	True	7	(6.1751850124392327, -2.2390099929810603)	(5.2749953883198923, 6.422016675999485)	(-7.2536414965380693, 7.272923036858483)	(-8.0933125977004039, -1.5093020235940635)	1.0	z	0.776669
5	M	B	M	B					M	4	2	shapes	M	4	True	7	(-2.6217475256958558, -7.622397952688134)	(4.1061372312772235, -6.6910929531256897)	(0.058478362997917088, 1.6859185666835632)	(-6.1807265049718474, 6.10611240944481)	1.0	z	0.704038
6	M	A	A	N	B	N	M	B	N	8	4	shapes	B	4	False	7	(8.5197378076914774, -5.2116920397375592)	(8.2108046607273018, 0.98871641679780709)	(-4.9273605119009396, -5.6598568460534313)	(-5.7066160092033122, -0.55443858357708287)	1.0	slash	0.6877
7	N	A	B	B					B	4	3	shapes	B	4	True	7	(7.7226977052275245, -4.874680936137362)	(-8.0809343724562659, 1.493041465980248)	(3.0579056957665625, 4.8760629447142154)	(-2.7623138020444182, -1.6872107890417771)	1.0	z	0.927453
8	M	A	A	M	B	B	N	N	M	8	1	shapes	A	4	False	7	(6.4258964224945867, -3.8782826691852152)	(-2.8386654404506011, -5.9243643603093386)	(0.94337315352811935, 7.5794645115526293)	(-6.5541226886330275, 3.1748367299733786)	1.0	slash	1.01901
9	N	B	N	M	A	A	B	M	A	8	5	shapes	A	4	True	7	(-7.6503463211192244, -2.3184025409567948)	(3.8685651485629897, 4.4569963483781176)	(-7.4549550880278979, -8.2840149803727048)	(7.5848358597713172, -2.8671308616503)	1.0	z	0.732799
10	M	A	N	N					M	4	1	shapes	A	4	False	7	(-3.3477463038988917, -6.914973554063466)	(5.4256823837339052, 3.7422847597011799)	(4.3727796564906427, -7.2515700877904603)	(-0.30325554201530736, 1.3550795725258471)	1.0	slash	0.836414
11	M	B	N	A	N	B	M	A	B	8	1	shapes	B	4	True	7	(6.445352429806972, 3.9594644243791866)	(4.438667640152719, -0.77510725494294785)	(-0.71194872726628233, 3.3266410838329463)	(-8.1344905577336828, 5.0600168609725582)	1.0	slash	0.313976
12	M	B	M	N	N	B	A	A	A	8	5	shapes	B	4	False	7	(7.5500981601543558, -6.3001532591724825)	(8.6129281390978178, 0.99057870015869298)	(-5.3250654632411099, 6.5916862079203504)	(0.88103112364695768, 1.2295897581047228)	1.0	slash	0.663751
13	M	A	B	A					B	4	0	shapes	M	4	False	7	(4.2665385774238391, -3.5536013842372736)	(-5.1824333715699922, -7.1509185979876948)	(5.00788961506486, 6.3180213680831905)	(-5.8757762600260541, 5.4485082966166587)	1.0	slash	2.86909
14	N	A	A	B	N	B	M	M	N	8	7	shapes	M	4	False	7	(1.7499704853090723, 0.73176276221082937)	(3.5794556046245489, 6.2950790258420231)	(0.30376669094030184, -5.7575152723447314)	(-6.8723026514283259, -4.0660944636611278)	1.0	slash	3.62065
15	M	A	A	M	N	N	B	B	M	8	6	shapes	B	4	False	7	(-7.5549951024733177, -7.5203147855472015)	(-3.7196177356906253, -1.6793129004586227)	(4.2628618478818066, -8.1064968958940202)	(1.6365942458369176, -2.3887592594874656)	1.0	z	0.622267
16	M	B	M	N	A	A	B	N	B	8	7	shapes	N	4	False	7	(-0.15801079373230209, -2.3873914509627614)	(-4.7431183092085147, -7.0125304762460594)	(8.1900584753378105, -4.3571865709297093)	(-1.7016285789501771, 2.4311869810223801)	1.0	slash	2.44594
17	N	A	N	A					N	4	0	shapes	N	4	True	7	(-1.8007063908673642, 0.2696488879742418)	(-5.8357671436973906, -6.3990171928649442)	(2.0850173793005364, 5.8334152564911523)	(0.72114253667358774, -5.7352438355437254)	1.0	z	0.823408
18	N	A	A	B					B	4	3	shapes	B	4	True	7	(5.0907241378632353, -2.4976333343577233)	(3.0028947356210711, 2.1873254565399574)	(-7.9215502071439907, -5.1251346633448414)	(-6.585141280927866, 2.699594328500643)	1.0	slash	2.12513
19	M	B	M	A					A	4	0	shapes	M	4	False	7	(4.7184138015324812, -6.3167477393216256)	(-6.3899790490669162, -1.2560307764158045)	(0.5045724447440616, 5.5561901330573722)	(-7.5951897690319568, 2.8390758114556789)	1.0	slash	0.0785339
20	M	B	B	N					A	4	0	shapes	M	4	False	7	(-2.2062040194367443, 3.6229805588714772)	(-6.0489802955711029, -2.7548077098347079)	(7.8475645184626543, -8.7034718205431165)	(7.3989184879777845, 2.2672011354338384)	1.0	slash	0.656354
21	N	A	M	B					N	4	2	shapes	M	4	False	7	(4.5505897570568052, -3.0097595260950678)	(1.4707169865546597, 3.9019940235150514)	(-8.4157962927013141, -1.7108486948132651)	(-3.0411262802234322, 3.4305734684380162)	1.0	slash	0.256059
22	N	A	N	B	B	A	M	M	A	8	4	shapes	B	4	False	7	(1.7091497933300825, 0.5989062205756106)	(-7.0600951904817588, -0.2969612787639182)	(-5.8359764119153024, -7.0178829125293838)	(-2.689781351561062, 5.4055164909538362)	1.0	slash	0.777668
23	M	B	N	A	B	M	A	N	B	8	6	shapes	A	4	False	7	(-7.3387123187211181, -2.1586825291172165)	(0.038850283961545884, 0.6690107449914926)	(3.1236403843469933, -4.7260732518632329)	(3.4790635964707732, 3.7257955512891385)	1.0	slash	0.835569
24	N	A	N	M	B	B	A	M	N	8	0	shapes	N	4	True	7	(0.67457383770002721, -0.41871685004860559)	(2.2993528181985496, -6.6296513793155016)	(5.9218328907552493, 3.3089934374585948)	(2.9339208945940722, 8.6855591556401492)	1.0	z	1.08914
25	N	B	A	A					B	4	2	shapes	A	4	False	7	(-5.9350377449197111, -3.4596036543285837)	(4.2993603015917721, 7.3992118835754823)	(4.7252020604988232, -1.4256296825242769)	(-6.1792669293157516, 4.6350040298120412)	1.0	z	0.856886
26	N	B	B	A	N	A	M	M	N	8	0	shapes	N	4	True	7	(-8.2985144058039531, -0.73183785244610533)	(6.6992901077707998, 3.7640674681857735)	(4.4278678731149608, -7.6537880870919617)	(3.1008074387115805, 0.88749803280184381)	1.0	z	0.978386
27	M	B	B	N	M	A	N	A	N	8	6	shapes	N	4	True	7	(0.59030664682778244, 3.1068065174227542)	(7.4815550194284093, 5.3877082925057813)	(6.6955420703874378, -8.5508518706873584)	(3.258695301366334, -4.0471472005110787)	1.0	slash	1.27408
28	M	A	B	A					A	4	2	shapes	B	4	False	7	(-4.6481473592216984, 5.0309327717713561)	(4.4722857580861923, 1.0852374187741045)	(0.36623129985899538, -2.4157939338365457)	(-8.1757659269940177, -5.1125375880574708)	1.0	slash	1.37353
29	N	A	N	B					N	4	2	shapes	N	4	True	7	(-3.4100789532997666, 7.4258980915045569)	(4.3991422146340788, 4.9224194427116128)	(2.0392522241922126, -5.0472219789508763)	(-5.8900966688513314, -1.8356334240552927)	1.0	slash	0.821191
30	M	A	N	B					B	4	2	shapes	N	4	False	7	(-2.2782733792199918, -5.0640577898368608)	(6.4099217075128685, -0.10299432866991509)	(-3.3485040232997196, 7.9943830235292985)	(4.7499434963734544, 6.5921886633772875)	1.0	slash	1.08284
31	N	A	M	B					A	4	1	shapes	A	4	True	7	(5.2627759128026632, -5.4569912321475984)	(-3.5882967330777262, -5.9453375425317549)	(8.2600202310686299, 8.6893031477047735)	(-1.8298332981611996, 5.0878076382628858)	1.0	slash	0.604556
32	M	B	N	B	A	A	N	M	B	8	1	shapes	B	4	True	7	(-0.10699896416516808, -6.0003616802670754)	(-8.1023885393004083, -1.7069362159140962)	(-1.018154786640177, 3.1513973410214504)	(2.5773454779795006, 6.594106207074768)	1.0	slash	0.592149
1	M	A	B	A	B	N	M	N	M	8	5	shapes	N	5	False	7	(-2.6926475370820597, 6.2233578677577732)	(0.58750886804840441, 2.9814425733953431)	(-7.3718959232715369, 8.6826465080440229)	(1.1971310715293004, -1.1711773758921957)	1.0	slash	0.849893
2	M	A	N	B					M	4	1	shapes	A	5	False	7	(2.8907380632866726, 5.3852583108385854)	(4.0557708985629741, -1.7568356173001769)	(-5.6873859431728597, 4.6289546145994382)	(-2.2775570111854844, -0.73958785675794481)	1.0	slash	0.241536
3	M	B	N	A	B	A	M	N	N	8	1	shapes	B	5	False	7	(1.7401684006425207, -7.8154827186691955)	(4.3337044217487204, 3.541539865938276)	(7.4692302669621391, 7.5023751719107814)	(-0.78877050734067478, -3.265657813533644)	1.0	slash	0.709269
4	N	A	B	N	M	M	B	A	N	8	3	shapes	N	5	True	7	(-2.4301147184446279, -7.1921906281284542)	(0.95030734463723476, -2.8627751012661884)	(6.6981277915150716, -2.1419415520590466)	(6.7857779710398898, 3.6407495745854455)	1.0	slash	0.660844
5	M	A	A	N					N	4	3	shapes	N	5	True	7	(-3.0533977954683085, 1.6845754468250416)	(4.3509838342878719, 1.8478537881640982)	(-4.8858558529746974, -3.1569856489545147)	(0.17940881841974488, -0.83718916094945328)	1.0	slash	0.96278
6	N	B	B	A	M	A	N	M	N	8	6	shapes	N	5	True	7	(4.778093243193414, -3.7408574324494701)	(-4.606880561205986, 6.5061359641763534)	(-5.9303835377564109, 2.1011078128479159)	(-2.5406604085241824, -6.4517420744261411)	1.0	slash	0.301951
7	N	A	N	A	M	M	B	B	M	8	3	shapes	A	5	False	7	(-3.6851680258666217, 6.9377460263750237)	(-4.0745831612492829, -8.2118478810674862)	(4.2343491533099122, 6.3088210795081991)	(8.5738793954257488, 8.4547322548196178)	1.0	slash	2.20582
8	N	A	A	B					M	4	0	shapes	N	5	False	7	(5.0856692501404162, 6.2342616205673576)	(-1.7897116493002336, 7.887167467013299)	(5.6467301177412761, -6.1799344956109374)	(-8.0564010060816749, -2.880826961055611)	1.0	z	0.935498
9	M	A	B	B					B	4	2	shapes	B	5	True	7	(-5.7062874119577245, 3.5412902791499636)	(-2.1942929357707213, -0.21459174854163798)	(8.2594009694387616, 1.6553345060166027)	(1.0839547969371353, -3.3616056814897197)	1.0	z	1.05513
10	N	B	A	M					M	4	1	shapes	B	5	False	7	(4.2070017844656284, 2.6577688350606437)	(-7.0179338456056151, 2.409863584894838)	(4.3449645452369516, -4.3384285007989369)	(-0.66905809262405747, -3.4601097923784696)	1.0	z	1.43059
11	M	A	N	M					N	4	0	shapes	M	5	False	7	(7.188664606634374, -1.6837548726970226)	(1.7706825057785007, 3.2630486777339982)	(-1.2792411496054106, 7.5882550793879098)	(-6.8777670256117878, -1.8832199710602229)	1.0	slash	0.770284
12	N	B	M	N	B	M	A	A	A	8	6	shapes	A	5	True	7	(-2.3525923581886206, -8.4345259888580504)	(0.42833419066668377, 6.001044230503263)	(6.3548371285448972, -1.4746051011489163)	(-0.014448734975015753, -0.87530071362886641)	1.0	slash	0.805979
13	N	B	N	M					N	4	3	shapes	M	5	False	7	(-4.049002455077515, 1.2582230566141348)	(0.12693518656952918, -7.1120255160221495)	(3.3593362336539307, 3.8910270394645252)	(-3.6257466852384574, -3.5766016361879327)	1.0	slash	0.775712
14	M	A	N	M	N	B	B	A	B	8	6	shapes	B	5	True	7	(-4.5211378435516076, -0.60432500805499778)	(-6.5862171999180372, 7.19277988316707)	(2.7817551003134948, -1.7691637015928361)	(6.7038962519485956, -5.4291708550258369)	1.0	slash	0.847258
15	M	A	A	N	M	B	N	B	B	8	5	shapes	B	5	True	7	(-3.0366712634282447, -1.6059893033785588)	(1.6393221791384445, -2.2961458668302202)	(5.8496679390984614, -4.295275552922881)	(1.7029702350885589, 5.1676188080529357)	1.0	z	1.0269
16	M	B	M	B					M	4	2	shapes	M	5	True	7	(6.2406757436147942, -0.12454104395636634)	(-0.94613352330583034, -4.1923084497342415)	(-7.26309134807153, 3.3609451176020659)	(1.1164038068956881, 4.3567687128796067)	1.0	z	1.36064
17	N	B	B	M	M	N	A	A	A	8	6	shapes	A	5	True	7	(-6.9077127292999769, -1.895858037538602)	(7.7470287884845135, -5.0704253326492044)	(7.2721782782827162, 6.5060351056950552)	(2.8602785029999875, 6.5986583286546647)	1.0	slash	0.574166
18	M	B	M	B					B	4	3	shapes	B	5	True	7	(-5.1323531727625031, -0.84014471033015781)	(-2.730613289543804, 4.8181082132000608)	(7.8395368026294818, 4.7575163378433629)	(1.1231032145142077, -8.6526424160938511)	1.0	z	1.14185
19	M	A	M	N					M	4	2	shapes	M	5	True	7	(6.5109099307396523, -6.897562319985866)	(-8.1228604783234104, -3.2316504798137862)	(-0.54252891188026631, 1.3381828865870169)	(5.9595685510961705, 1.1613352246303954)	1.0	z	1.1314
20	N	B	A	M	M	N	B	A	A	8	6	shapes	B	5	False	7	(-0.92837740739378294, 7.0516694013077927)	(-6.3832499326510312, -0.70834234829952969)	(-4.1406465504287446, -7.1035791679364113)	(2.1921001287412523, 0.6015724551997419)	1.0	z	1.22113
21	M	B	A	A	M	N	B	N	A	8	5	shapes	N	5	False	7	(2.6626583985031615, -6.9049652407021052)	(4.742373855912124, 3.4605147005181909)	(-1.6259563037894109, -7.9948030955867093)	(-5.303120302029404, 0.61416859049355743)	1.0	slash	0.740687
22	M	B	A	N	A	M	N	B	A	8	2	shapes	A	5	True	7	(-0.60586941173000142, 2.449217630549068)	(7.1646104405348972, -4.438929662369465)	(-7.7585397464118726, -6.3835754506129589)	(6.3287482843639751, 4.6462087231042144)	1.0	z	1.04425
23	M	B	N	A					B	4	1	shapes	B	5	True	7	(-0.13385162486418345, -7.6845645629082293)	(3.6382964600917287, 1.7277621506643452)	(-0.97487298261596855, 3.5072040944765757)	(6.6213312809795646, -4.2295119406258159)	1.0	slash	0.63799
24	N	A	A	N	B	M	M	B	M	8	0	shapes	N	5	False	7	(4.207468271042119, 4.2922108643864565)	(-8.1532614528315275, -6.9068735374118901)	(-4.5719922515880915, 8.5289028660173685)	(1.5453391899336015, -4.2876631279857547)	1.0	slash	0.283593
25	N	B	N	M					N	4	0	shapes	N	5	True	7	(2.115227534321571, -5.5389287887497449)	(1.7539380123488009, 6.565267017297689)	(-8.488801776290483, -3.6363579528979715)	(-8.0530907992015219, 5.9209537089338813)	1.0	z	1.22915
26	N	B	A	N	B	A	M	M	B	8	4	shapes	B	5	True	7	(3.71262513041132, -2.228700797904791)	(3.6231400863506877, 3.5241193850664878)	(-6.4434859194914242, -6.9621231487292299)	(-1.0181380045155031, 7.2486779303320219)	1.0	slash	0.717003
27	N	A	A	N					M	4	0	shapes	N	5	False	7	(6.8769823626557525, -8.3892456687000045)	(-6.0021868113986061, -4.4365756506520171)	(-6.1574196702218948, 5.2162241517693637)	(7.936390727890192, 5.9504433668433432)	1.0	slash	0.256662
28	N	A	B	N	M	A	B	M	M	8	3	shapes	N	5	False	7	(8.2407323221572142, -4.4126518926423497)	(-8.2013850914171158, 5.8190981733944813)	(-2.855000861595693, 6.9106339691580239)	(2.4492673481950167, 7.8244285894544419)	1.0	slash	0.898163
29	N	B	A	B					B	4	0	shapes	N	5	False	7	(-8.3656783606476921, 1.380895040488209)	(2.2423286105872755, -8.5827770767120288)	(6.1061017446579555, 8.5741897582974609)	(-6.4026508538012692, -2.4099459281684572)	1.0	slash	0.592072
30	N	B	N	A					M	4	3	shapes	A	5	False	7	(-7.9161896434448877, -6.3796656632934736)	(0.12288414142994419, -3.2901042287146014)	(-8.2040176768171733, 0.46701670766859671)	(5.4240599307348418, 1.788016651239591)	1.0	slash	1.04363
31	N	A	N	M					N	4	2	shapes	N	5	True	7	(-2.3628473283914193, -3.8290720675322021)	(7.1608933915175008, 3.5999460520061248)	(8.6982436217598966, -0.94421222948250083)	(-2.8441677837160313, 2.4510194859842418)	1.0	slash	0.885538
32	N	A	N	M	A	B	B	M	M	8	6	shapes	B	5	False	7	(1.5871703274135438, -2.4917234353581952)	(3.584698974222972, 2.817371316194917)	(7.9484727231581083, 8.3622328030983653)	(-5.4642807486014275, 0.87520104918621477)	1.0	slash	0.599102
1	M	B	A	N					A	4	3	shapes	N	6	False	7	(1.4687266267551813, 2.2144087850724929)	(-6.6951387428399309, -3.8588771117018954)	(-2.5377533615601848, 3.1583382546945273)	(7.3134309245213487, -4.1066512354484903)	1.0	slash	0.634745
2	M	B	B	A					M	4	0	shapes	M	6	True	7	(7.5493069123307954, -3.64623899260258)	(-8.349373808072988, -3.5711884541981638)	(-6.9033640837327876, 3.4739138926828854)	(6.1846499350825201, 3.1532761459380687)	1.0	z	0.998323
3	M	A	N	N	B	B	A	M	M	8	0	shapes	M	6	True	7	(0.96953525477507796, 0.41122911184990407)	(7.4488370688812395, 0.53581665429023673)	(-6.6388567219776888, 4.061973077129446)	(-0.056062911442348096, -3.7567647059573321)	1.0	z	1.80393
4	N	A	B	M	N	M	B	A	M	8	2	shapes	B	6	False	7	(7.7104150982564157, -1.3789786533223536)	(3.1191947391961463, -4.2754159603590907)	(4.1886314083615215, 2.6203620036597375)	(-5.0031636807488242, 6.6782117781635275)	1.0	slash	0.567502
5	N	A	N	B					N	4	2	shapes	N	6	True	7	(6.8963731986892203, 7.4060546562711878)	(6.6556746577608354, -2.9340393209256108)	(-5.6531233784150245, 4.2054612359290751)	(-6.2194897813194352, -3.4347586092630138)	1.0	z	1.33724
6	M	B	B	A					A	4	1	shapes	B	6	False	7	(-4.6842081505172288, 7.6334661202788183)	(6.8607420049106658, -4.5380607377304081)	(2.0350001587097015, 1.1609905082629783)	(-5.7416301462170276, -7.0587316484189593)	1.0	z	1.06684
7	N	B	A	A	N	B	M	M	A	8	3	shapes	A	6	True	7	(3.9240479200323133, -0.96073787685411283)	(-0.47749704133362947, -3.1653876387022244)	(-1.2659081172376823, 5.3202993246424413)	(-5.0553848001239903, -5.6255676090414326)	1.0	z	1.05622
8	M	B	A	A	B	N	N	M	B	8	3	shapes	A	6	False	7	(6.2607715662931405, -3.3881361668934797)	(-8.5191828490160688, -6.7607645068760736)	(-2.8270075263523706, 1.7970480496217522)	(-2.8893625044168498, -4.0917266535546535)	1.0	z	1.25798
9	N	B	M	A					M	4	2	shapes	M	6	True	7	(-7.5100949851090757, 3.8205647772715192)	(6.7616491228327025, 1.0472753901422998)	(-7.4566061679787587, -3.1192473603038344)	(7.8215837254631282, -4.5948564698629539)	1.0	z	1.0235
10	M	A	M	B	B	N	A	N	M	8	3	shapes	B	6	False	7	(-7.6016106486346002, -1.7075083679084893)	(-6.6149217385541128, 3.4767037130163718)	(-2.0649276868803099, -4.6635442078666784)	(1.7172857582935492, 1.3694884399341216)	1.0	slash	0.767335
11	N	A	B	B	A	M	N	M	M	8	0	shapes	N	6	False	7	(-1.3790345970684008, 1.8759303681288149)	(6.4721736590789991, -1.0230768818199154)	(-1.2214854279610527, 7.9578323290583199)	(-1.2653498301104769, -7.8093776595942987)	1.0	z	1.22704
12	M	A	N	B					M	4	2	shapes	N	6	False	7	(-1.9097141054123892, -0.69983033154624508)	(3.7887645862858275, 3.3300100669158734)	(2.2090564619656394, -1.9905521708947864)	(-8.6233381581239925, 1.4537212485594395)	1.0	z	1.16041
13	M	B	B	A	A	N	N	M	N	8	6	shapes	N	6	True	7	(-3.3568910772531764, -7.0209884769298814)	(6.1965409935129827, 0.76095693259365405)	(-0.01411401258989109, 4.2627972452379215)	(5.2342652666612981, 7.0691093223629888)	1.0	z	1.30231
14	M	B	B	M					B	4	0	shapes	M	6	False	7	(1.9956292443354773, 5.5456223933526854)	(2.1882648755238332, -4.6590167257424513)	(-7.4150618669860631, -5.4829443971574321)	(-2.9513574491239183, 0.86115685790964314)	1.0	slash	0.617914
15	N	A	B	M					N	4	0	shapes	N	6	True	7	(6.1565909611796155, 3.5709534665940446)	(-8.3301597861544359, -2.5013212046209166)	(1.0523029982595364, -5.996009777251496)	(-0.14993032636827586, 4.4783310111382022)	1.0	z	1.14143
16	M	A	A	B	M	B	N	N	N	8	0	shapes	M	6	False	7	(-8.525742830246255, -1.2150045487026766)	(5.738849254794701, 5.7864936377079079)	(-7.0122585183401229, -5.3742636396147221)	(0.42677067634354593, 2.4041497497270949)	1.0	slash	0.725215
17	N	B	A	N	B	M	M	A	M	8	6	shapes	M	6	True	7	(-5.8458730451278571, -6.9721087610777799)	(-3.6116272359838479, 8.2739848732370618)	(6.1534165377877663, -4.7417606940400159)	(8.3915715564794766, 6.6991972057743396)	1.0	z	1.17682
18	M	A	B	M					A	4	0	shapes	M	6	False	7	(-3.3012035444478034, 7.0621296444272517)	(8.705510959498298, -3.4397253135165906)	(4.8583986778082799, 5.9889948303772869)	(-5.900840575280303, -0.53978067516893802)	1.0	slash	0.680358
19	M	B	B	A					B	4	1	shapes	B	6	True	7	(-7.9906114921625395, -4.5750763909828454)	(-2.4961812470563753, 7.0262044387607663)	(7.5943656048361987, -5.6754606055823578)	(0.88676509895293343, 1.3894672698742934)	1.0	z	1.25829
20	M	B	M	B					M	4	0	shapes	M	6	True	7	(-2.9879685626063228, 3.9446318992682023)	(-4.7311373114373456, -4.2300051079563925)	(8.6991268991921942, 3.15443510072412)	(5.1108044123724365, -8.6534040779045256)	1.0	z	1.21555
21	N	A	A	B	B	M	N	M	B	8	5	shapes	M	6	False	7	(-7.9430037064930445, -1.8373859104920989)	(7.4433387753872147, 7.593457533272538)	(3.012934282532731, -1.2265714634931673)	(5.2716530407521756, -5.4114481994874133)	1.0	slash	0.697144
22	N	B	A	A	M	M	N	B	A	8	3	shapes	A	6	True	7	(4.4978021592270299, -2.7568589979625004)	(0.5687402851129697, 1.8481924877184159)	(-0.76381981832989432, 8.5853203208221665)	(-2.3296253562442928, -2.0444427522853799)	1.0	slash	0.81087
23	M	A	A	B	B	N	M	N	B	8	6	shapes	M	6	False	7	(2.9374899744300915, 4.7616964296355313)	(-3.3061647520521573, -3.2415428641704551)	(7.2962494971978131, -5.5699873547270995)	(-4.8692503000785079, 1.0329773314207245)	1.0	slash	0.494753
24	N	A	M	A	M	B	N	B	N	8	0	shapes	N	6	True	7	(6.282500007756056, 3.9527024112104634)	(5.0717884878169084, -8.5337766296887079)	(7.0819461229117895, 8.7278374088667263)	(-0.87355394939163045, 6.6113821017132182)	1.0	slash	0.672344
25	N	B	N	M	A	M	A	B	M	8	5	shapes	M	6	True	7	(-3.4471225463488446, -6.4185799593064035)	(4.9067432611111244, 0.34982721163562935)	(-5.7591264514407463, 4.7973826819114738)	(8.4481586392557304, -5.8051909310057441)	1.0	z	1.4299
26	N	B	N	B					M	4	1	shapes	B	6	False	7	(-3.7886285116062339, 5.5211748675234862)	(7.1655605554458024, 0.68470133542171041)	(-0.73064120437868141, -6.5975584635448516)	(6.4864607333661706, -4.3196367925945705)	1.0	slash	0.745712
27	N	B	M	A					B	4	0	shapes	N	6	False	7	(-0.45334425856074922, 7.5377015658154534)	(7.3053458145173202, -7.3315942826881439)	(-6.904361565279272, -6.6796821624347231)	(7.1822521428770365, 2.1364489280294698)	1.0	slash	0.775096
28	N	B	M	M					N	4	3	shapes	M	6	False	7	(5.3896723117845333, -7.0319069097556453)	(-6.0689627823421892, 4.5638058744102601)	(-6.6358990814531387, -2.5435609296933368)	(8.1647602735768245, 0.81268064352176772)	1.0	slash	0.630914
29	N	A	B	M					N	4	0	shapes	N	6	True	7	(-0.41794032788440028, 8.6728447422234822)	(-3.0941909928096818, -6.9154741783010207)	(5.5421357587177233, -2.5316981231201812)	(0.91057605525154983, 4.1472267620680903)	1.0	z	1.33859
30	N	A	B	N	B	M	M	A	N	8	1	shapes	A	6	False	7	(-3.7320243965567359, 1.8914918558378613)	(-1.9485970017689045, 6.4346406665742375)	(-6.1614983070107723, -6.7454557321736042)	(-2.2908001041535293, -3.199918876429944)	1.0	slash	0.763966
31	M	A	B	A	M	N	B	N	N	8	7	shapes	N	6	True	7	(-5.9026147587479665, 6.3216080888429769)	(-6.5025085702976959, 1.8532876668296474)	(2.1141910210436574, 8.3649833456136662)	(3.2537666530051901, 3.3684938420648542)	1.0	slash	0.663833
32	N	A	N	B					A	4	1	shapes	A	6	True	7	(5.0768893520284131, -0.64230514835235475)	(1.1087298801728096, 4.4534933528096481)	(-1.000240600023651, -5.084874794274473)	(-4.5222792284092472, 7.6731494496073687)	1.0	slash	0.82953
1	M	A	M	A					N	4	3	shapes	A	7	False	7	(8.4617093409861575, 7.7312770972378502)	(5.7452874948777524, -8.5259971445777438)	(-0.84902983636747376, 5.6519431275126202)	(-0.74283754265526269, -7.317554771140891)	1.0	slash	0.685176
2	M	A	M	N					M	4	2	shapes	M	7	True	7	(-0.21743196683249799, 4.6096315240623547)	(2.5073347959872265, -3.9434510800963682)	(6.2297290869136557, 5.3808345281375587)	(-0.28908920861204557, -7.6154527069561819)	1.0	slash	0.622829
3	M	B	A	M					B	4	2	shapes	A	7	False	7	(2.4564980521136128, 6.5789780053418685)	(-0.029739727410538208, -3.4716119581397296)	(-5.8010319660000809, 1.1354938634732985)	(4.5847589240352402, -6.2694979860917908)	1.0	z	1.17252
4	N	A	B	A	M	M	N	B	A	8	1	shapes	A	7	True	7	(-5.5376338765752271, -2.5107303742743987)	(2.7359601127726876, 2.7982989187419722)	(-8.4879844647326923, 2.4505814780670736)	(7.75046474999899, -7.2141727183803015)	1.0	slash	0.660102
5	N	B	A	N	A	B	M	M	B	8	1	shapes	B	7	True	7	(6.4538732253919093, 4.7706053849122334)	(4.9077318521247406, -5.1372632404983714)	(-5.6262664047197113, -8.6777375367007874)	(-6.410978494359945, 5.2355523120229481)	1.0	slash	0.57357
6	M	B	N	N	A	A	M	B	A	8	4	shapes	A	7	True	7	(-1.4179479082926703, 7.9824812702795391)	(-6.9705955366054937, -5.5806799006201278)	(-0.68159408546393507, 0.25129012130828343)	(-5.5080733324855142, -0.81440863956602527)	1.0	z	1.24739
7	N	A	A	N	B	M	B	M	M	8	0	shapes	N	7	False	7	(-4.6448351412015594, 2.5772687868960258)	(5.8720064133229055, 6.4439047669655203)	(-7.768198103043007, -1.9083716371060451)	(-0.90254633571879594, -4.8378749355668988)	1.0	slash	0.579012
8	M	B	N	N	M	B	A	A	B	8	5	shapes	B	7	True	7	(6.9405772557274918, -5.7862790658284027)	(1.0696864330273907, -0.61555423503260442)	(-6.6604510421035066, -7.7218900361824385)	(-7.762253865093963, 1.0982325555871384)	1.0	z	1.40456
9	N	A	B	N					M	4	0	shapes	N	7	False	7	(0.54941540660080435, 5.9321765064694958)	(-5.4478484092107724, 5.2063198860232536)	(6.9492102154097264, -2.4185742652827029)	(-4.7738939710581683, -3.7570672150520696)	1.0	slash	0.334331
10	N	B	A	M	N	M	A	B	B	8	7	shapes	B	7	True	7	(0.75192799396070065, -1.7778004861421843)	(-4.7599072295186264, -5.6365765692638963)	(3.9518307680545277, 8.3546823183082815)	(-5.2838342745798119, 8.3323969384740479)	1.0	z	0.960041
11	M	A	M	B					A	4	3	shapes	B	7	False	7	(-0.61345794483231941, -0.92408473498861721)	(7.174856292662831, -7.2418069058055412)	(-2.6439641498925432, 6.8193072814769398)	(4.1819209546151885, 3.143574564297543)	1.0	slash	0.281692
12	M	B	N	N					M	4	0	shapes	M	7	True	7	(2.7376996583289408, -2.759000185831888)	(-5.6168041480484714, 0.1080393601279237)	(-0.59005199221670068, -7.5994383103244783)	(6.5203078426909649, 6.5653156073218639)	1.0	slash	2.01923
13	M	A	N	A					N	4	0	shapes	M	7	False	7	(0.71133869538414629, -3.4389879772234515)	(-7.5757027984914576, 3.2627348607528468)	(-0.95429626144896496, -7.2976353164294236)	(5.048710230424998, 6.7939826082778012)	1.0	slash	0.248996
14	N	B	B	A					A	4	3	shapes	A	7	True	7	(0.24407943868843418, 3.3298545304154405)	(7.3575321538468792, -3.3540898750848269)	(-7.8613303419797838, 7.5857256917230202)	(-1.5997758790723875, -8.5134220055868415)	1.0	z	1.08858
15	N	A	A	N	B	M	B	M	M	8	1	shapes	A	7	False	7	(5.5992456788392175, 2.1673734719489826)	(1.9538421169875591, 6.733755249145327)	(0.15886650986164952, -0.49074546188273871)	(-5.6813724595855808, -5.2191254645056198)	1.0	slash	0.508176
16	M	B	B	M					A	4	1	shapes	B	7	False	7	(-4.7169775555105176, -0.33869291864103701)	(3.0471865279490853, -4.0107769474906778)	(4.7158337343738186, 0.013158730799606388)	(-1.0827858572206379, 5.721547877680651)	1.0	slash	2.74405
17	M	B	N	B					B	4	3	shapes	B	7	True	7	(8.6741068387031106, -4.4898107667947675)	(8.3738912749026824, 1.7404099445093575)	(-7.120863426892865, 5.2678338650905285)	(-6.290592723891641, -7.642058566841742)	1.0	slash	0.893517
18	M	A	A	M	N	N	B	B	M	8	0	shapes	M	7	True	7	(1.4601324438024932, -3.5898583633569334)	(-2.4804712847039205, 8.4768176690848556)	(-8.6529969168899648, -3.1966763984964652)	(-4.8379914596015841, -1.4566797887125285)	1.0	z	1.20685
19	M	B	M	B	N	A	N	A	A	8	7	shapes	A	7	True	7	(-2.2534556263471694, 3.8976637988011245)	(-8.732897937256352, 6.4763058930123876)	(8.2322897753843982, -4.2064259961614647)	(6.8810564438487098, 4.8021184384306927)	1.0	slash	0.530605
20	N	A	N	A	B	M	M	B	B	8	3	shapes	A	7	False	7	(0.38517370735386081, -0.083300817704383689)	(3.5156534797738441, -5.4994183036491533)	(-7.503274964784941, -6.7512267778616302)	(-7.9699990958865845, 6.9608399886185346)	1.0	slash	0.566288
21	N	A	A	M					A	4	2	shapes	A	7	True	7	(-5.9494222685362672, -0.97933193678027397)	(6.4570143818514207, -8.668716715094817)	(3.0172992924217628, 2.8029019815399501)	(-5.6431781487396737, 4.977579572203144)	1.0	z	1.45515
22	M	A	A	M	B	B	N	N	B	8	6	shapes	N	7	False	7	(-2.798394032500104, -1.0977144232459812)	(2.7203063656365725, -4.4783033686687972)	(7.1841663594907299, 4.6804683075903135)	(-5.6594259035866186, -5.4796116714194127)	1.0	slash	0.544403
23	N	B	B	M	N	M	A	A	A	8	2	shapes	B	7	False	7	(0.67436603983333399, 0.82708783859984614)	(-7.9154462305779578, 4.4589604036140447)	(-2.2147427815452092, -7.7782184682785198)	(-7.761748974081911, -4.3680169278706407)	1.0	slash	0.679255
24	N	B	B	N					B	4	2	shapes	B	7	True	7	(-1.7846946094962446, 6.2294786361133045)	(-2.3811958613895809, -4.229311107274933)	(8.3743220988446652, -1.5998793197290881)	(5.9601622755357582, 2.1109399429182751)	1.0	z	1.30506
25	M	A	M	A	B	N	B	N	N	8	3	shapes	A	7	False	7	(-1.1687382837876523, -3.6879636323376657)	(-4.4507115323179391, 6.4752639896610624)	(0.59106064382017998, 1.5598720200796805)	(8.4640434623276093, -6.90620337442504)	1.0	slash	0.670045
26	M	B	A	N					N	4	3	shapes	N	7	True	7	(-1.0956947555208334, 7.4885264575959702)	(-7.4924319651083744, -8.469580135262289)	(4.9608744500116178, 8.3434330765105038)	(7.2579729886837647, -1.0847269410945284)	1.0	slash	0.858076
27	N	B	M	A					N	4	2	shapes	M	7	False	7	(-7.5124036714588343, -3.3322877856596786)	(7.256269526300148, -5.7450590853946366)	(3.2449637415358641, 2.8516056687757203)	(-0.59884365167044606, 7.031667229776648)	1.0	slash	0.710674
28	M	B	N	B	M	N	A	A	A	8	5	shapes	N	7	False	7	(-8.1065439000339037, -6.9192961501446737)	(-5.7630746021623773, -2.5496921294494825)	(5.796143907623037, -7.8683046738688205)	(7.4691032155972437, -2.3002699501485475)	1.0	slash	0.653603
29	M	A	A	B	N	N	B	M	A	8	1	shapes	A	7	True	7	(8.7085176740427102, 4.2910715164619511)	(-4.7387195285477812, -3.8368208078333801)	(-4.0309025576425377, 6.5800015852257854)	(5.3767819128989824, -1.2821090601267304)	1.0	slash	0.541152
30	M	A	B	N					N	4	3	shapes	N	7	True	7	(3.1380219448977744, 7.3251144842486653)	(-4.0980854339673369, -5.5949928090240029)	(2.0557131894658394, -6.5521874003348302)	(-0.95785734271986644, 7.7627983586109153)	1.0	z	1.40287
31	N	B	B	A	M	N	M	A	M	8	3	shapes	A	7	False	7	(3.85231490594985, -1.7941317511358248)	(-3.3486048935097843, 8.7400162233947931)	(6.2883576425789318, 8.5391762247361598)	(-6.3964067123417347, -1.1459282677063891)	1.0	slash	0.574534
32	N	B	N	B					B	4	2	shapes	N	7	False	7	(8.5994441774501738, 5.2392550004214833)	(8.2387596791368267, -7.6779125980752045)	(-5.337779926783826, -7.4196620111366993)	(-6.9415187167675798, 0.75477257729252756)	1.0	slash	0.510045
1	M	A	A	B	B	N	N	M	N	8	2	shapes	A	8	False	7	(-1.6680845548657759, -7.6326371194356062)	(-5.7207014414584654, -2.685500452580226)	(8.7165443508102491, -3.5913434807290274)	(3.0347807611730975, 6.7396825569974794)	1.0	slash	0.433956
2	M	B	M	B					M	4	0	shapes	M	8	True	7	(0.27913619760493447, -7.1641195159823763)	(-1.9984112958142601, 1.2857897519419481)	(2.2302683535510415, 4.6691933688117224)	(-4.5859346821275926, -2.1302015457906327)	1.0	z	1.15749
3	N	B	M	A					A	4	3	shapes	A	8	True	7	(0.66836858881458205, 8.3207497668752808)	(-6.0185505476279708, 2.7130001027718507)	(-1.2070329283283261, -5.724069179687044)	(0.35857131363601624, -1.1962594725373812)	1.0	z	1.13719
4	M	A	B	B	N	A	M	N	N	8	0	shapes	M	8	False	7	(4.4893698253137089, -1.9351120685967267)	(-5.4398394493593303, 5.1098519093282455)	(7.5990896596610646, 0.96616593963236141)	(2.3304732562282453, 5.77287525030839)	1.0	slash	0.73087
5	M	A	N	B	B	A	N	M	N	8	3	shapes	B	8	False	7	(-5.4628973024361596, -6.0721776050988456)	(0.83982136247980499, 6.6826737419809632)	(4.1538498061376465, -4.0498759848131733)	(-1.3805685680778206, -4.8314959807438118)	1.0	slash	0.710376
6	N	A	N	B	B	M	A	M	B	8	4	shapes	B	8	True	7	(1.7873931208679146, 2.3804277575261441)	(-2.412513298622347, 7.6675267221403303)	(-4.0993238601876607, -1.6750850726145652)	(8.2172425105296867, -4.7025923692979399)	1.0	slash	0.582143
7	M	B	A	N					B	4	1	shapes	B	8	True	7	(5.6961948800735236, -6.0272452414651179)	(3.2944134242496173, 7.2459737849937014)	(-2.9380628252917713, -6.0876849341139829)	(-5.6535946498229483, 7.2343614155835425)	1.0	z	1.20378
8	M	B	M	A					M	4	0	shapes	M	8	True	7	(-6.2776957013236672, -7.044140143755687)	(1.2711506476210133, 3.8199026786169465)	(5.3734302535390128, -5.2040616407048939)	(-7.129351398081643, 4.4707591957805874)	1.0	slash	0.573555
9	N	A	A	M	M	N	B	B	A	8	0	shapes	N	8	False	7	(0.92681055890052733, -6.6034546880764591)	(-3.7795424699695932, 1.2666984250094906)	(6.3189323761639837, 6.701345393757574)	(7.2186646121058953, -0.43155832726145782)	1.0	slash	0.535053
10	N	B	B	M					B	4	3	shapes	M	8	False	7	(4.1305572775749386, 0.33130709256600355)	(-0.79246535788131123, -7.1440508087354715)	(-0.68268216726174913, 7.5764569634360299)	(2.9971885344307445, -4.6293490049155599)	1.0	slash	0.590859
11	M	B	M	N					B	4	1	shapes	B	8	True	7	(4.8938755078560838, -7.7982857931124805)	(5.2295415055585437, 1.39514666140869)	(-6.9918187391636843, -3.1857183486621077)	(-2.5981946133428728, 3.1630341928655596)	1.0	z	1.13043
12	N	B	M	M					N	4	2	shapes	M	8	False	7	(0.16346525838446269, -0.77167426139832074)	(-2.8492129056808242, 5.1781783879310073)	(4.6342217840446196, 2.4534926541163227)	(-3.942806034517421, -7.7424110629794241)	1.0	slash	0.682017
13	N	B	M	M	N	A	A	B	M	8	2	shapes	M	8	True	7	(2.3879439383845558, -0.39246813639408451)	(-7.9101366229693166, -0.929363163858552)	(1.5394136804191945, -7.6129919368203609)	(0.032593632340931933, 8.0590243203342524)	1.0	slash	0.543825
14	M	B	M	A	B	A	N	N	A	8	5	shapes	A	8	True	7	(0.4210676742091497, 3.0822404635393141)	(1.762890950564417, -6.8958491218771449)	(-3.3250602806285254, 6.7549312736385403)	(-7.4926959822657775, -5.1348458841196365)	1.0	slash	2.51941
15	M	B	N	B					B	4	0	shapes	M	8	False	7	(-3.1260261703257806, -1.3491943826978519)	(-5.2582111781852721, 4.1707732338237058)	(2.6033525717582595, -8.5285869730769086)	(6.6260494684894713, 2.8540666319553214)	1.0	slash	0.680819
16	M	B	M	B	A	A	N	N	M	8	4	shapes	A	8	False	7	(7.7459189468098195, -8.5976524669812573)	(6.0434375001464034, 5.3836736090826456)	(-3.1547927705476155, -8.3695503107572833)	(3.6436551478374337, -3.5276307178167707)	1.0	slash	0.334675
17	M	A	M	B					M	4	1	shapes	A	8	False	7	(-2.0658572193499003, -3.9486796085623626)	(7.1612036815281801, 4.5036051144898597)	(-2.0698206121236602, 2.9154011915465965)	(2.7055738647704821, -1.7892948734220422)	1.0	slash	1.19826
18	N	A	B	B	M	N	A	M	M	8	6	shapes	A	8	False	7	(3.5567711985049435, 6.1719397056158591)	(3.070977425997679, -4.0320939525703308)	(6.9573667326443225, -1.7292336692368675)	(7.3214867976765028, 7.5540179629388327)	1.0	slash	0.6999
19	M	B	A	N					B	4	1	shapes	B	8	True	7	(0.25397104853224306, 0.94820839854699024)	(4.4594344236958428, -7.2399123748430263)	(-5.4511505155381812, 8.2255941893650402)	(-3.6689003062193493, -4.2125969845228388)	1.0	slash	0.569618
20	N	A	N	B					N	4	0	shapes	N	8	True	7	(2.5078663303551227, 4.8370623273514823)	(6.5012744601243604, -5.103627544049929)	(-1.928846535383749, -3.131425260911846)	(-3.7342680085148086, 4.0017373095315971)	1.0	z	0.7533
21	M	B	N	A					N	4	3	shapes	A	8	False	7	(-0.45289405102774261, -4.1665172565226376)	(7.6913657693765991, -7.8176277526750617)	(-7.8513116393335283, 5.8036011972972226)	(0.27059901792974905, 4.4777684939163418)	1.0	z	0.461063
22	N	B	A	A	N	M	B	M	M	8	7	shapes	M	8	True	7	(0.66283875099534484, 1.3460323513551273)	(3.1370838252010245, -2.0613455662688231)	(6.5292431729796778, -4.4608532866832027)	(6.6810394020230124, 5.4083223112625909)	1.0	z	0.742657
23	N	A	M	B	M	A	B	N	M	8	4	shapes	M	8	True	7	(5.9825021309576751, -3.2809845475356436)	(7.7078205346365358, 0.3411691019659866)	(3.0432534800478663, 2.1420694609798687)	(6.9600338898518928, -7.8818429210859513)	1.0	z	0.694296
24	M	B	A	M					M	4	1	shapes	B	8	False	7	(8.7158564564453265, -4.0952161144675276)	(5.916847217140937, 8.4743320349694713)	(-5.4994708233799363, -5.3767762895668794)	(-3.6834983610097289, 5.8226960472865876)	1.0	slash	0.57393
25	M	B	M	N					B	4	0	shapes	M	8	False	7	(-1.1234761716250992, -0.6842469442158734)	(3.6166378012081282, -1.9274574208402013)	(-0.26822235040856057, 8.0884581308984274)	(6.4805815078499194, 6.8158046228145608)	1.0	slash	0.701645
26	N	A	N	M					A	4	3	shapes	M	8	False	7	(8.268118480617435, -1.8753105765251492)	(-3.167987472938453, -0.16052839692143372)	(1.3840040323417782, 0.32207370742778529)	(-1.689409854462804, 6.6676685684222257)	1.0	slash	0.771293
27	M	A	B	B	A	N	M	N	A	8	4	shapes	A	8	True	7	(0.94307222475621622, -1.5120197887570148)	(-5.6786947253457498, -6.7329333008695063)	(0.27991534937725682, -6.0950772579454444)	(3.2512856063196036, 8.6933842810014994)	1.0	slash	0.604873
28	M	A	N	B	B	A	N	M	B	8	3	shapes	B	8	True	7	(-2.832987442494324, -6.8633290565664176)	(0.45982718121165256, 5.3760657509790715)	(-6.4264500950215959, -0.2839415386250348)	(3.8446019487504159, -4.7410724195294183)	1.0	slash	0.568614
29	M	A	A	M	N	B	B	N	B	8	5	shapes	B	8	True	7	(-6.7042943202352738, -7.1096289707494353)	(8.2215156996667034, 8.0857614864357359)	(2.6584916706065336, -3.5769004466516501)	(-7.6475772903648975, 2.8100806458538035)	1.0	z	1.5863
30	M	A	N	M					M	4	3	shapes	M	8	True	7	(-4.6158318610691635, 3.2338273726908877)	(8.6203114315314906, 2.4294570191903659)	(4.755003481800216, -1.6258201885061307)	(-7.0614510501745267, -5.3716880207025017)	1.0	slash	0.52785
31	N	B	B	A	N	A	M	M	N	8	7	shapes	M	8	False	7	(-8.018520170827637, -6.5713267095132686)	(-4.5427889063775506, 4.1650841767132167)	(-6.4730203752083337, -2.3698795920966758)	(0.24974436543732104, -1.2795697090783431)	1.0	slash	0.587554
32	N	B	B	A	N	A	M	M	A	8	7	shapes	M	8	False	7	(0.46753675964642838, -6.3333997871892542)	(-7.1783549231670989, -2.4240608203390179)	(6.066981562013801, -6.2487342042995841)	(6.3074766642764466, 2.1783139580891184)	1.0	slash	0.291121
