TrialNumber	stim0	stim1	stim2	stim3	stim4	stim5	stim6	stim7	stim.probe	ttl.stims	corr.num	trial.type	stim.corr	block	match	Subject	stim.pos0	stim.pos1	stim.pos2	stim.pos3	ran	resp	RT
1	M	A	A	M					M	4	3	shapes	M	Practice	True	70	(8.4549872325661077, 5.5098359493221132)	(-3.7768831274443189, -5.43740544073958)	(-5.7411664672610971, 3.6506964539741542)	(1.4835772756292922, -0.32325581111809143)	1.0	slash	2.79994
2	N	A	N	B	A	B	M	M	A	8	3	shapes	B	Practice	False	70	(-2.0905379428019248, -4.4852455160304707)	(-7.9329252850484426, -3.515087158376236)	(2.016954374265195, 6.168099153653019)	(-4.3433947697737567, 2.5688765946108436)	1.0	slash	3.27538
3	M	B	B	M					B	4	1	shapes	B	Practice	True	70	(-6.0139854315173373, 5.4391611903624053)	(-3.2476454730171742, -2.6304180334747898)	(5.9035560819433552, 5.0394341995087739)	(1.6090058928924318, -0.47398052754582842)	1.0	z	1.44681
4	M	A	M	A	N	N	B	B	N	8	4	shapes	N	Practice	True	70	(-4.3102859488209573, -8.7355471445384794)	(8.2917531653165284, 1.2622181386955944)	(5.1996716770297464, 4.9674433595119822)	(-2.674576433843181, 1.2406049145244733)	1.0	z	2.46605
5	N	B	B	M	M	A	A	N	M	8	7	shapes	N	Practice	False	70	(-8.7206024100800246, -4.6980309828694127)	(-0.99684766056635077, -3.9303203200071826)	(3.8683719221717148, -5.8807295665622226)	(-1.2049104510266604, 7.8938185463972701)	1.0	slash	4.08185
6	N	B	B	A	A	N	M	M	M	8	6	shapes	M	Practice	True	70	(-7.9371759545210852, 8.2350919931778144)	(-6.3981870480520513, 4.47879869961689)	(5.9545502457125021, -4.6193255553191106)	(8.1978553628012918, 7.6722404371604789)	1.0	z	1.54136
7	M	A	A	N					N	4	1	shapes	A	Practice	False	70	(2.0480241114752111, -4.2325635308503511)	(8.0644014960305057, 3.449425693335348)	(-0.78960320081513657, 3.1100080727257531)	(-7.7020776202915204, -2.4171275346755898)	1.0	slash	1.73901
8	N	B	A	M					A	4	1	shapes	B	Practice	False	70	(-8.3375643403153461, 7.3954189514892086)	(-5.4846953073731211, -1.605468681681959)	(8.3325542751000299, -8.3808033843500649)	(0.26697520695298671, 7.6979265268894217)	1.0	z	1.26453
1	N	A	M	M					N	4	2	shapes	M	0	False	70	(-0.55254385687311114, 8.68862698012396)	(6.5235318877071329, 1.3607934775611064)	(-8.5443845928593269, -8.0163172841670001)	(8.5540532886247895, -7.8903978012004599)	1.0	z	2.31691
2	N	B	B	A					M	4	0	shapes	N	0	False	70	(7.0273900339760651, -8.0122563045615198)	(-7.8019412768172041, 5.9202682633591976)	(-6.5633817457693038, -0.98096832141529511)	(0.8895444484790378, 1.7846750564788074)	1.0	z	1.60068
3	N	A	A	N					A	4	2	shapes	A	0	True	70	(7.0206240828546225, -2.5286265034038546)	(5.9276808569515822, 2.734751140662171)	(-0.25746927847156087, 8.2296834900850335)	(-1.0270335215488862, -1.0004595488001886)	1.0	z	1.65814
4	M	B	B	A					B	4	2	shapes	B	0	True	70	(-1.3325750109954653, -5.0052981296233252)	(6.8361372366303463, -4.7429617417010004)	(7.2912085801268525, 4.4065881683565173)	(-3.9755728367002598, 3.5798811497145664)	1.0	slash	1.73551
5	N	B	M	B	M	N	A	A	B	8	3	shapes	B	0	True	70	(2.4550471604619517, 8.236108004390065)	(6.4132906959898914, 6.0504728631392162)	(0.7008507083543698, -4.3463967687285239)	(0.91167617531883849, -8.3794688502484611)	1.0	slash	2.90543
6	N	B	M	M	A	N	B	A	M	8	1	shapes	B	0	False	70	(0.17647021211296909, 2.274569379814892)	(-6.0872325577323103, 2.2906303190089758)	(7.6240002744765327, 2.836738711979617)	(-3.8440652216579743, -8.2711584801384852)	1.0	z	1.68074
7	N	B	B	N					N	4	1	shapes	B	0	False	70	(-3.7946572990556913, -1.2023641969301089)	(3.8053621996288207, 4.7663669938626025)	(-7.0228029492636104, 8.5495704753159778)	(3.1774317074329552, -0.25968154986989411)	1.0	slash	1.47438
8	N	B	B	M	A	A	N	M	B	8	2	shapes	B	0	True	70	(7.0214291090791967, 0.59941833012203283)	(-4.1135768294584389, -7.1011654852341524)	(6.007319010923208, -3.9962021441208071)	(-5.635909979003892, 2.5292565709676804)	1.0	z	1.71997
9	N	B	N	M	B	A	A	M	N	8	2	shapes	N	0	True	70	(-4.9717298557084693, -2.1413360047310768)	(-2.6918069606163613, 8.7242217971004301)	(6.6320724535137554, -1.5598861384773617)	(-8.7125942689366251, 5.1646883906048338)	1.0	slash	1.49948
10	N	B	A	B					B	4	1	shapes	B	0	True	70	(-4.5468873778210357, -2.2839789830410249)	(-0.43488086698117101, 3.4396210858003826)	(3.6132500331576267, 7.3591989853576401)	(0.59571310252113818, -4.214689471383199)	1.0	z	1.30513
11	N	A	B	M					N	4	0	shapes	N	0	True	70	(-2.422064636143678, 0.20360429475518771)	(6.4343280422448679, -0.7245073450598003)	(1.6068016485794256, 6.1905877552521495)	(-4.7010070577900267, -7.5962796427384687)	1.0	z	1.11869
12	M	B	A	N	M	A	B	N	B	8	6	shapes	B	0	True	70	(-7.3022598855620222, 0.93437853350704358)	(2.6808231642470037, 5.1060435526425909)	(5.2637222829350989, 1.7382809243018453)	(1.2997312857230447, -8.4362736837876557)	1.0	z	1.98047
13	N	B	M	B	A	A	N	M	M	8	4	shapes	A	0	False	70	(1.1292091674370397, -2.2925843066659253)	(-2.6945749284571265, 0.78799157404853126)	(6.6566519778464315, -0.038406382473914036)	(-0.46050341474727752, -6.5597145560131827)	1.0	z	1.26194
14	M	A	A	B					N	4	3	shapes	B	0	False	70	(-8.6059678152434955, 0.44491934897557428)	(6.667811575153527, -8.1268225820995905)	(3.8576596130721601, 0.50673215035649477)	(-5.2680432898842762, -6.246735862091743)	1.0	slash	1.26754
15	N	A	M	M	A	B	N	B	M	8	0	shapes	N	0	False	70	(8.6554002149369751, 3.9955500442671603)	(-5.5333886349779728, 3.069868646781984)	(3.8973759736588978, -5.0706819777415806)	(-0.74636038197828647, -6.1925285702241339)	1.0	slash	1.22703
16	N	A	A	N					N	4	0	shapes	N	0	True	70	(-6.5375593374765373, -2.9516709737083744)	(3.4005948286775247, 8.670159337356349)	(-1.2820759799722827, 3.5393974034350926)	(1.5689194385228831, -6.6201382180239037)	1.0	slash	1.52871
17	M	B	A	A					M	4	1	shapes	B	0	False	70	(3.6471870195482268, 5.5361788878221976)	(7.506663141375455, -5.9184728285218684)	(-4.7086861628726444, 6.3806845621002548)	(-8.3604543695295632, -5.9595127277211635)	1.0	slash	1.14442
18	N	A	N	A	M	B	B	M	M	8	3	shapes	A	0	False	70	(7.8429132815104978, -1.2452186530303706)	(6.3328892057381196, -6.5203122584051245)	(-0.161954663916557, 4.2402386008827637)	(-7.7704332766823736, 2.6583781110412463)	1.0	slash	1.41607
19	N	A	M	B	M	N	A	B	B	8	7	shapes	B	0	True	70	(3.0253104703637455, 3.0813606827015771)	(0.14427412047398391, 6.1462246652528769)	(-3.6284228120883331, 4.8106522981607132)	(0.58757806795567546, -4.962733655165545)	1.0	z	1.24961
20	M	A	N	M					N	4	2	shapes	N	0	True	70	(-6.0342324368605791, 7.7118425623530946)	(-5.3501121363427764, -0.50120845985802376)	(2.3890476476640963, 8.7462848766146202)	(0.56755358351737861, -4.53300744135991)	1.0	z	1.14519
21	N	A	A	N					A	4	1	shapes	A	0	True	70	(-0.44311189397403261, -7.6820561352583354)	(3.6455938437821001, 1.5094065738405718)	(-1.2660047548959454, 3.7932137647463762)	(5.7759287763734335, -3.1844727858252444)	1.0	z	3.78266
22	M	B	A	M					B	4	2	shapes	A	0	False	70	(5.2827679548224626, -0.70596214062156193)	(-6.7277538633079779, 2.8096699859828007)	(-1.5852048175835671, -8.6737598110170708)	(2.8917789289604077, 7.8248793565032067)	1.0	z	1.21229
23	N	A	M	B					M	4	2	shapes	M	0	True	70	(3.4700039376072471, 7.863549724618089)	(3.0152795784679007, -5.8359333227819938)	(-7.0614636401830841, 8.3476069382713831)	(-0.49484184217958216, -8.4684237066874335)	1.0	z	1.57191
24	N	A	A	M	N	B	B	M	A	8	2	shapes	A	0	True	70	(-3.6336644285770099, 0.22333894027181778)	(4.9857513268404663, 3.0047199919393854)	(-6.5437321842247016, -7.4528871520076052)	(-7.2081078403974779, 8.499388847047598)	1.0	z	1.63732
25	N	B	A	M	N	A	B	M	M	8	5	shapes	A	0	False	70	(0.23101556859497663, -8.2539732437831521)	(-2.2452856930552763, 3.9264222476485884)	(-2.2657653253611318, -2.2245343513073355)	(8.1627541814703832, -3.7203111827471176)	1.0	slash	1.12306
26	M	A	N	N	M	A	B	B	M	8	7	shapes	B	0	False	70	(6.5783923515828118, 8.3793670009957246)	(-6.8680382875262698, 3.9005622822044081)	(-0.20521937688166858, -7.8015726429497469)	(7.0659768361182422, 1.2295187241171384)	1.0	slash	1.43072
27	M	A	B	N	B	A	N	M	B	8	1	shapes	A	0	False	70	(-6.6644076262731824, -8.4773390253275114)	(-1.4302560824256823, -8.112239723383448)	(8.6175758942086063, 8.715147239816126)	(3.0925997284441884, -6.0082620540972016)	1.0	z	1.10231
28	N	B	N	A	M	A	B	M	M	8	5	shapes	A	0	False	70	(1.7807874565721455, -7.2360365106267599)	(2.7052176865316593, 0.90766305159785077)	(-8.0848334592204338, -5.661742708067746)	(6.411987228673004, -6.633390376578733)	1.0	z	1.28597
29	M	A	A	N					B	4	1	shapes	A	0	False	70	(-7.159845154445601, 6.6597486909643635)	(4.9206701894789795, 1.4458224851032586)	(-3.5885486641692763, -4.6762633015966317)	(7.1409584854323107, -7.934022983419748)	1.0	z	1.35162
30	N	A	A	B	B	N	M	M	N	8	0	shapes	N	0	True	70	(4.0873179525937662, -1.2093043854033558)	(-4.5115382963128488, 7.0515540485842561)	(0.17773822183877108, -3.1508162246484472)	(5.0543098906035766, 4.0432564090984968)	1.0	slash	1.2372
31	M	B	B	A					N	4	3	shapes	A	0	False	70	(8.5608291327150461, -3.9755107551650379)	(0.34807176962798003, 6.3506558702080476)	(-6.0048696841151443, 1.0610190711734884)	(-2.302759553257939, -6.2093883852727201)	1.0	slash	1.40682
32	N	A	A	B	N	B	M	M	A	8	1	shapes	A	0	True	70	(0.15697715609186247, -2.1778955276918932)	(-6.1653130172096686, -0.7364434585647377)	(-4.8739974715737731, -6.0789587680903043)	(5.8992204212597628, 3.6744509789868527)	1.0	z	1.45832
1	M	B	M	N	N	A	B	A	M	8	0	shapes	M	1	True	70	(3.6455633572920405, 6.7664154858314003)	(-8.2457911326209601, -6.9172720958461493)	(8.5570102493833105, 3.8590894437901824)	(-8.5422790215237772, 8.316557336376647)	1.0	z	1.42603
2	M	A	N	M					M	4	2	shapes	N	1	False	70	(7.9445248366484584, -4.5419415337515083)	(5.0877460420596581, 8.0140913129687732)	(-4.8344451490020077, -7.3793255159929902)	(-4.5293521409681086, 7.6321058793748371)	1.0	slash	2.04772
3	N	A	B	N					A	4	3	shapes	N	1	False	70	(3.7442682076437848, 7.643098491635552)	(-0.68994799638317694, 0.74666553845891492)	(7.7754769615888542, -0.011644289057118229)	(-7.4790232791716917, -3.6733826661526185)	1.0	slash	1.079
4	N	B	A	A					A	4	3	shapes	A	1	True	70	(-5.2064555411660978, -8.1315837244390572)	(-6.615708491001751, 2.2287575336982695)	(5.7194749034482921, -4.4831812516104526)	(3.2034052812608422, 6.5342947339734962)	1.0	z	1.40087
5	M	B	N	N					B	4	1	shapes	B	1	True	70	(-3.3583445455235807, 1.8360020339567402)	(8.5296396574118063, 5.9073410153488517)	(0.89441625680399639, -5.2893996141934521)	(-5.1515661658768241, -4.700805887690124)	1.0	z	1.41802
6	M	A	N	N	A	M	B	B	N	8	1	shapes	A	1	False	70	(2.6922858472420383, 6.9711771324661278)	(-1.9020348865382504, -3.211725533842344)	(-6.8704334319181211, 0.4182846101987554)	(5.1912441270994503, -8.7425913025991289)	1.0	slash	1.03588
7	N	B	B	M	M	A	N	A	A	8	7	shapes	A	1	True	70	(6.7292179043354832, -2.7274324222582189)	(-0.39998563299299406, 3.1181065944348543)	(-7.6543947955273879, -1.7704578812355622)	(-1.6686634882640252, 7.7175285718898508)	1.0	z	1.21967
8	M	A	A	M	N	N	B	B	B	8	1	shapes	A	1	False	70	(3.0923526883251746, -7.0483404697537733)	(4.8511873871036197, 7.8038856322342909)	(7.4831793919657308, -1.4287293379005197)	(-6.3872524777064914, 1.6823770018230739)	1.0	slash	1.49307
9	N	B	A	A	B	N	M	M	B	8	4	shapes	B	1	True	70	(-4.6319064723039931, 6.5605980235458254)	(1.2956824942681067, -5.2894578766066074)	(-6.2417573772364863, -2.7189209826617962)	(4.696483337535831, 0.89338854387811573)	1.0	z	1.31082
10	N	A	B	A	N	B	M	M	M	8	6	shapes	M	1	True	70	(6.86600027131494, 0.54982704568396379)	(-5.032900105540163, -3.8357715742575706)	(0.51518841543392035, -1.4734407943773506)	(4.4938697598588497, 6.0344776737041954)	1.0	slash	1.2465
11	M	B	M	B	N	N	A	A	M	8	2	shapes	M	1	True	70	(1.3262878266209963, 4.6158633178053332)	(-4.2418165382938549, 3.3756136689472367)	(2.6197152968463513, 0.30330060699348316)	(-6.2795597507633234, -0.090075323569909216)	1.0	z	1.22572
12	N	B	M	M					M	4	2	shapes	M	1	True	70	(-1.3119818614669576, -4.6055906530902)	(-1.8622017257915804, 6.3034554829209739)	(8.6561115572297567, -4.3336762140518861)	(8.1585792575663874, 4.9990646471857954)	1.0	z	1.59978
13	M	B	B	N					A	4	2	shapes	B	1	False	70	(-6.1580109400038578, 1.3577019280946008)	(1.9045206724035282, 6.5276298352235624)	(-4.9575156114464516, -5.6680833139146483)	(5.2895611295230083, -5.2195232518189689)	1.0	slash	1.46527
14	M	B	N	A					N	4	2	shapes	N	1	True	70	(-3.4742502712000602, 8.2782281236371489)	(7.3572521383310132, 3.1824807074864161)	(0.10027696394101149, -7.1578869755086583)	(-6.9380014950987903, -5.5664888634077254)	1.0	slash	1.47896
15	N	B	B	M					B	4	2	shapes	B	1	True	70	(-3.9612854371209512, 8.114226480439509)	(1.9366030063228319, 4.5149089640654658)	(-5.5291665227584037, -8.4426959442169345)	(0.40051313260760502, -0.13228861219149302)	1.0	z	1.27274
16	N	B	A	M					A	4	1	shapes	B	1	False	70	(-3.8465378339969734, 7.9189465800303651)	(8.1410223060267519, 7.7031804481086823)	(-6.7067262949286546, -3.4247357503584688)	(0.86441418729102182, -3.270740765038008)	1.0	slash	1.18806
17	M	B	M	B	A	N	A	N	B	8	7	shapes	N	1	False	70	(3.1453263232754018, -8.5282945121243436)	(-0.15062785020014147, -5.9773232271979992)	(-8.4736167710653767, 5.8271951146201015)	(-0.15929283458583221, 5.1584747649775604)	1.0	z	1.61986
18	N	B	A	M	A	B	N	M	A	8	5	shapes	B	1	False	70	(5.4814940160078329, -4.6281992582150142)	(-7.8865339573930919, 7.4490692394543707)	(6.2971411238522315, -0.31679006133055054)	(6.7424850986698903, 4.4604004926976444)	1.0	z	1.21341
19	M	B	M	A					M	4	0	shapes	M	1	True	70	(-5.0483749405230034, 4.4749342673987957)	(8.0243699924645817, -4.8521463658875241)	(-6.8627163232638155, -5.0883364883668456)	(1.9784437703145965, 4.7887405722017498)	1.0	z	1.26102
20	N	A	N	A					N	4	0	shapes	N	1	True	70	(-0.86906607003127867, 6.5593405505365237)	(-5.088944185723923, -1.3158155745137368)	(7.0452021743102904, -7.0093186067015871)	(8.2097984945843976, 6.344995206711717)	1.0	z	1.15458
21	M	B	N	M	N	A	B	A	M	8	2	shapes	N	1	False	70	(3.4353839357047331, -3.2367427050359705)	(-5.758281419447588, -1.7883030581348249)	(6.1224732989822765, 1.1289980408420437)	(6.1992894000999978, -7.4000357940896055)	1.0	slash	1.30423
22	M	A	A	M					B	4	0	shapes	M	1	False	70	(4.8197390353372001, 2.3395923187419143)	(8.4382241468715797, -1.1237958033366251)	(-3.3136231075120293, -5.7190196173245127)	(-4.9214686213997751, 2.170454299947254)	1.0	slash	1.18187
23	M	B	B	N	M	N	A	A	A	8	3	shapes	N	1	False	70	(-0.78509170625029689, 4.3903726641967626)	(4.6052431560774156, 1.4279277251652136)	(-6.7651312808324127, -6.9343202385031031)	(4.8067823256217501, -8.0863924315935503)	1.0	z	1.30349
24	M	A	M	N					B	4	3	shapes	N	1	False	70	(-8.4885887218716558, 1.1808463391315804)	(-3.3161075634330919, -8.1554657650536022)	(4.3660350650478659, 2.0914387634707587)	(8.5079130466009723, -7.4954916542374006)	1.0	slash	1.11713
25	M	B	N	B					A	4	0	shapes	M	1	False	70	(-7.0550862916707411, 6.0227427692328064)	(2.5310660107762146, 2.11748083351514)	(-0.01404897383344661, -7.65552959259501)	(7.6949730857830509, -4.9978917812464125)	1.0	slash	1.21677
26	N	B	M	M					B	4	3	shapes	M	1	False	70	(-3.3589570788806622, 3.6944131535001929)	(-2.6550519909003771, -1.6024251525268838)	(7.7660047388072471, 0.17435267840596502)	(7.3428100170482651, -5.5972551752625384)	1.0	slash	1.37634
27	M	B	B	N					M	4	0	shapes	M	1	True	70	(-6.4124177630189116, 1.6342732014811787)	(0.88113711166275976, -5.9008521791180844)	(-8.3223531448722525, -4.6513141921724728)	(7.3595664275374837, 6.3703583996196222)	1.0	z	1.35988
28	N	A	A	B	B	N	M	M	A	8	1	shapes	A	1	True	70	(-5.3454023069459975, -5.3002456607001829)	(8.2739122350960663, 0.36671747217876849)	(-0.57056439209945609, -4.8999874695456311)	(5.9998373246312475, -4.2095938767441137)	1.0	z	1.52556
29	M	B	B	N	M	N	A	A	B	8	5	shapes	N	1	False	70	(-2.4824077470362926, -5.5203788848893049)	(-3.1263836726895011, -1.5223279724927696)	(6.1614914737777493, -1.9689256340822316)	(2.172975169801278, 0.48251011389806742)	1.0	slash	1.61717
30	N	A	M	A	M	B	B	N	M	8	0	shapes	N	1	False	70	(3.919011347965121, -0.73782196110813558)	(1.8917313123877406, -8.6675361244300522)	(-7.8493321009984269, -3.7402095381757317)	(-4.2503261564322896, -0.18048270892990814)	1.0	slash	1.27463
31	N	A	M	M	A	N	B	B	B	8	7	shapes	B	1	True	70	(-6.4486526035486831, -3.8495207739794424)	(-3.5337020108350563, 3.5253357146135507)	(4.5279481619618149, -2.2281300001214221)	(-1.8510340966031427, -2.1425583027798494)	1.0	z	1.36839
32	M	A	M	N	B	B	A	N	N	8	7	shapes	N	1	True	70	(4.1055382955028126, 5.9667708526931023)	(1.6215596037680946, -5.6018584122865143)	(-2.1430159173482703, -3.7773594287750969)	(-0.14299969978462279, 5.9584363188007092)	1.0	z	1.16411
1	M	B	M	B					N	4	1	shapes	B	2	False	70	(-3.7727951411688982, -0.13621830465821105)	(2.2938247457688732, 5.7204050645107056)	(2.5216110389038562, -5.9413687641688053)	(-3.860951135927813, 5.6911676343866429)	1.0	slash	1.5216
2	M	B	M	A	A	B	N	N	A	8	4	shapes	A	2	True	70	(0.54236771586560195, 5.926160737681446)	(-7.8704601718795661, 1.046106194804759)	(2.5432733083388364, -3.0768264736930213)	(7.2149135659986694, 4.5224225854091262)	1.0	z	1.32517
3	N	A	B	A	M	M	N	B	N	8	6	shapes	N	2	True	70	(7.0536119757557021, -0.29849020657241709)	(5.0530622176657669, -4.7081909498733587)	(-5.25394534678939, -3.6525841945104034)	(-8.7367018868058803, 1.0852984936826431)	1.0	z	1.36881
4	M	A	A	N					A	4	0	shapes	M	2	False	70	(-6.147901183021184, -3.6772598709182009)	(-0.40660301453030456, 5.7866469843730997)	(4.3395830281892955, 8.3633303109165702)	(1.6644820794133963, -4.8291506268391551)	1.0	slash	1.0805
5	N	A	A	B	M	N	M	B	N	8	4	shapes	M	2	False	70	(2.1502845157010206, -2.6111323180128583)	(-4.4611482981963704, -6.8497340156948798)	(1.3841028371938382, 6.7145101811900219)	(-3.7215196716237395, 1.2926238037340667)	1.0	slash	1.33406
6	N	A	B	N	B	M	A	M	N	8	0	shapes	N	2	True	70	(-0.75503807741518614, -2.7188046342234653)	(-5.1421937910273607, -4.2026119470171235)	(1.4549402723120402, -8.18066019119237)	(6.2161738115146274, 1.7567575671485827)	1.0	z	1.5994
7	N	B	A	N	A	M	B	M	A	8	6	shapes	B	2	False	70	(-4.3499601163029569, -1.6291558997044806)	(8.1957652584468903, -1.0456168977676672)	(-6.659328827661005, 8.634622172567731)	(-2.2225983093506185, 4.3945063455473434)	1.0	z	1.87733
8	M	A	N	M					N	4	0	shapes	M	2	False	70	(8.4302139140376333, -2.0574073883848287)	(-0.034461565105086578, -0.93725582864304524)	(3.8998427498563633, 5.197831229385212)	(-4.1138796162569466, 6.1084126992763146)	1.0	z	1.63274
9	M	B	N	N					A	4	0	shapes	M	2	False	70	(-4.6831146809312187, -3.0368991640973482)	(5.0330352153905391, 4.5546547248557747)	(1.786723548459392, -3.6210282581737872)	(-1.8701207296320463, 3.2996801336902948)	1.0	slash	0.892484
10	N	B	B	M					A	4	3	shapes	M	2	False	70	(-0.21562085633668637, -0.74300660770573046)	(8.1154631363945882, 2.683039075382819)	(5.4432756575281402, -4.3889027212997149)	(-6.751052380133812, 1.9113586914989877)	1.0	slash	1.08422
11	N	A	A	N	M	B	M	B	A	8	1	shapes	A	2	True	70	(6.357421746580405, 3.8333894778813384)	(1.3208102275861204, -3.059269385098081)	(-0.64960906411041819, 2.2835735761035618)	(7.6031809948554709, -8.2908340890851502)	1.0	slash	1.11165
12	M	B	A	B	M	N	N	A	B	8	2	shapes	A	2	False	70	(-3.6065268293802992, 8.4394580816636697)	(4.9860202127266522, -2.7844820607835024)	(-6.0341069090618866, 1.9775091498267869)	(5.1433674998537189, 6.9976408875230387)	1.0	z	1.6291
13	N	A	A	N					N	4	3	shapes	N	2	True	70	(-4.6804037558894809, -3.3462018250769932)	(6.3398063956756072, 6.0034760586512927)	(5.5514055189189424, -1.5435585439066877)	(-8.3626701518871762, 4.7845047378728225)	1.0	z	1.69685
14	N	A	M	N	M	A	B	B	N	8	7	shapes	B	2	False	70	(3.6666138966236392, 1.5307642675036757)	(1.094092444271288, -3.8668628321622709)	(-5.4411618146410037, 2.105141658721406)	(7.6239879092486333, 7.9614431391961666)	1.0	slash	1.22664
15	M	B	M	A	N	N	B	A	A	8	2	shapes	M	2	False	70	(2.6247568716449479, -8.0216003497462811)	(7.9788102862545749, 5.7639283616616233)	(6.6664683582831898, -0.73919568618662446)	(-8.4064081250827325, 0.1690470832571922)	1.0	slash	2.17338
16	N	B	N	M	B	M	A	A	A	8	6	shapes	A	2	True	70	(-2.8479387724550982, 8.1002395568683667)	(-8.2532327424714111, 7.4150440936221713)	(-2.0440551096951065, -8.3917467102792589)	(6.5513971446853763, -5.0371197110780974)	1.0	z	2.93951
17	N	A	B	N					B	4	0	shapes	N	2	False	70	(2.5784811713029505, 3.3497437899199465)	(6.8824835017399071, -4.5359931604298636)	(-7.6256544042191354, -5.7091242640464737)	(-6.886640245009886, 8.2128288786346531)	1.0	slash	1.36908
18	N	B	N	M					A	4	2	shapes	N	2	False	70	(7.9696265544657159, 2.5559009664995234)	(1.0535938412683485, -7.2591299221571202)	(-8.2852533704408415, -6.9717841286725362)	(-0.97466084773572437, 2.9703808250999817)	1.0	slash	1.22487
19	M	A	B	A					M	4	0	shapes	M	2	True	70	(6.8206050984829645, 2.0054683692446336)	(3.0997446058732834, -5.5895556573220286)	(-4.6154324424690474, -3.6644963072834473)	(-4.8279148194963231, 5.2830146928287114)	1.0	z	3.22219
20	M	B	N	A					A	4	3	shapes	A	2	True	70	(7.4219432850391414, -1.7550809333685606)	(-1.2860604282545332, 3.9036302089457173)	(6.2008092701156521, 6.0899923525306843)	(-7.7150692515327135, -1.2932801922231496)	1.0	z	1.3159
21	M	B	B	N					B	4	2	shapes	B	2	True	70	(-0.2501905738525263, 3.6029263789575818)	(-4.8782655215449813, -6.8294684874680573)	(5.6365176606963274, 0.11409026187547333)	(8.0507267721448024, -8.639992524344688)	1.0	z	1.37552
22	N	A	A	B					A	4	2	shapes	A	2	True	70	(7.7686582741590726, -0.2629441865550266)	(-6.4945253928657145, -6.5757187554441749)	(-6.2800734843902388, 3.4072360765194123)	(5.3600937891380944, 4.1671986127153708)	1.0	z	1.07105
23	M	B	M	N	N	A	B	A	N	8	3	shapes	N	2	True	70	(-5.9196986616640466, 8.4915886379841581)	(1.1926436916633865, -0.56361598919831835)	(-5.5890645041886273, -6.7013074902004908)	(6.4301996909777976, -7.2044989331797495)	1.0	z	1.33267
24	M	A	N	N	A	B	B	M	B	8	0	shapes	M	2	False	70	(-7.7372782714580444, -7.902019572051274)	(3.2372727603940525, 2.3861529001835624)	(-0.49867713506668743, -6.8305861157374768)	(-2.2340715246264748, 6.6105477151823226)	1.0	slash	0.966295
25	M	A	M	N	A	N	B	B	A	8	4	shapes	A	2	True	70	(0.60132723216241324, 8.4660040349459145)	(-3.2150475332483985, 6.393892147550762)	(8.0417532884506784, -4.3828111130321581)	(0.62479878158962343, -4.0775275651452851)	1.0	z	1.186
26	M	A	A	N					M	4	0	shapes	M	2	True	70	(6.7089757051089531, 3.7793960739311956)	(-0.17116678881194503, -0.23018906382212556)	(-4.3294365924660205, 1.9935364711207395)	(2.0006323835078827, -6.5624223482100268)	1.0	z	1.12753
27	M	A	M	A	B	B	N	N	N	8	0	shapes	M	2	False	70	(5.379844235230955, 2.7199363132682421)	(-0.36175292976147588, 7.7928820912950485)	(4.3599261280074035, -4.2120825422406938)	(-0.48926310187924216, -1.1740662959768144)	1.0	z	1.42727
28	N	A	B	N					N	4	0	shapes	N	2	True	70	(-7.411986685588996, -1.7539910374450658)	(7.2563567140308969, 1.509009754140191)	(1.1021516666130839, -3.1556915903708305)	(-3.4481189754054062, 0.39085068772028997)	1.0	z	1.08083
29	N	A	B	M					B	4	2	shapes	B	2	True	70	(-6.4767919278738768, -7.6355676423082564)	(-0.61989082468324597, 4.209915317461661)	(5.4888420238784228, -5.1808493513767466)	(2.920919826251545, 6.9038977892641462)	1.0	z	1.01824
30	N	B	A	A	N	M	B	M	A	8	2	shapes	A	2	True	70	(-5.3356034334065363, 6.7406247627632414)	(7.7454106600867263, -6.8346957662231311)	(-2.3621409728446352, -5.5855935202140259)	(3.8731790358530827, -2.9240952622764613)	1.0	z	1.1239
31	M	B	M	B					N	4	0	shapes	M	2	False	70	(-3.9027263434827404, -7.2075652602857776)	(8.4769816711945509, 7.5228753286887269)	(-1.172643050269774, 2.8026590048769737)	(8.6787190558160177, -2.6162639063792472)	1.0	slash	1.20556
32	M	A	A	N	N	B	M	B	B	8	1	shapes	A	2	False	70	(2.5750599955431923, -7.7675921688941765)	(7.3610287705387805, -2.7124560340401223)	(-4.8453947206141876, 4.9196617024475113)	(1.5132395008689929, 5.4095963187716691)	1.0	z	3.31314
1	N	B	B	M	M	N	A	A	B	8	6	shapes	A	3	False	70	(7.0469626971818169, -3.564718366508516)	(-4.9370799070724445, -4.8984567551777412)	(4.3923045594763828, 7.6234547807495758)	(2.7193203028698498, 3.3491800064431345)	1.0	slash	1.09081
2	M	B	M	B					M	4	2	shapes	M	3	True	70	(-4.76526856425565, 8.0941091799422118)	(5.3635679109171051, 4.9903699910848296)	(2.9077024797667832, -1.9204896798016131)	(-6.2567342678262641, -6.4410059410117526)	1.0	z	1.54633
3	N	A	M	B					B	4	0	shapes	N	3	False	70	(3.2684082511105288, 7.2557622737027998)	(-6.2417529517819101, 7.009967775253882)	(-8.6372732300174651, -8.1346438652190152)	(1.2742576685965457, -0.96098491746871506)	1.0	slash	0.920112
4	N	B	N	M					N	4	3	shapes	M	3	False	70	(-5.0272370853742174, 6.5964115922628697)	(6.5067979473741939, -3.7512863166682147)	(-7.8173761317980457, -0.88389149174666493)	(6.1996274770544275, 8.0764622377808486)	1.0	slash	1.13775
5	M	B	N	M					M	4	3	shapes	M	3	True	70	(6.061332313643133, -3.1486158954920738)	(6.4419035792445722, 5.0161314468198146)	(-5.9822145644196869, -7.5264339018966808)	(-1.2813784458562827, 1.1942732694363443)	1.0	z	1.24719
6	M	B	B	M	N	A	A	N	B	8	6	shapes	A	3	False	70	(-6.2471738142187787, 2.3558258429714964)	(-5.7120564795792959, -5.0015696126669482)	(1.1463758926173728, 3.7873645068673181)	(8.2991272044116648, 4.1590640579841391)	1.0	slash	1.08303
7	M	B	M	N					A	4	3	shapes	N	3	False	70	(-6.3958977069857532, -8.3758000908297507)	(-3.9793542325604552, 0.5285702984153815)	(3.5391965709817903, 2.5245449504135067)	(0.62667584898001749, -1.2686293468287619)	1.0	slash	0.916581
8	M	A	B	A	M	N	B	N	M	8	1	shapes	A	3	False	70	(-5.7318435347292382, 5.4503122124850254)	(4.8964239030761405, -6.2529389869442866)	(-1.6342854089439367, 7.3915936286907886)	(5.8644238311884269, 1.0641902075696894)	1.0	z	1.2662
9	N	A	B	N					M	4	0	shapes	N	3	False	70	(-7.3453514000961313, 2.7573567760382769)	(8.0371072270137489, -8.4358564390888464)	(4.8747858829878545, 7.5027302431560123)	(-4.360373807697699, -2.8087091700112996)	1.0	slash	1.40777
10	M	B	M	A	B	A	N	N	M	8	6	shapes	N	3	False	70	(7.1365946494798465, 1.5511797421658517)	(2.9638770016155185, -3.0482877529390446)	(-3.0412004245755426, -7.2786541010909733)	(4.9688416272466185, 8.0622916529307567)	1.0	z	1.61152
11	N	A	N	A					N	4	0	shapes	N	3	True	70	(4.96140057369416, 1.142805115640547)	(-0.59704170006702206, 5.5701843310567192)	(6.7837533287563758, -5.163413677076937)	(-8.2858297585080205, -2.5306214644777825)	1.0	z	1.56288
12	M	B	B	M					M	4	2	shapes	B	3	False	70	(-4.8011501689419269, 0.064194322955815508)	(1.910675314267019, -8.6429465893011646)	(0.10650990442667307, 6.4923319070576841)	(-1.6380805889949048, -4.5092595003859417)	1.0	slash	1.03657
13	M	B	M	B	N	A	A	N	M	8	2	shapes	M	3	True	70	(2.6029997891033165, 2.2721851624440692)	(7.1612901546067835, -0.0011329738814040979)	(6.2563894295513318, 7.1226894355437675)	(-7.0086650461959232, -6.3848700986191425)	1.0	z	1.15425
14	M	B	A	A	N	N	M	B	A	8	3	shapes	A	3	True	70	(6.945335906019654, 2.7991844462968842)	(4.5589501332320275, -3.0957368789716577)	(0.92179187835595755, 4.6676900602280096)	(-0.40028175210078132, -6.2264203433856231)	1.0	z	1.21565
15	M	B	N	N					N	4	2	shapes	N	3	True	70	(7.8103399397496176, -1.6703775697337884)	(-7.9788924275398188, -3.9991285128616942)	(-5.8119398381335685, 6.434542998579948)	(7.4325184999661857, 2.4764256459615908)	1.0	z	1.07168
16	M	B	B	M					B	4	2	shapes	B	3	True	70	(1.0792424082380787, 1.3119036787088181)	(1.4511755842201257, -3.0403690852039169)	(-3.9656167096846175, -5.4540728180009177)	(-6.6454944428792384, 3.3378031193959927)	1.0	z	1.08317
17	N	A	A	M	M	B	B	N	N	8	7	shapes	N	3	True	70	(-0.81997023039295325, 2.8231847238003009)	(-7.5062520144233815, -3.8143036128468788)	(-2.1617481758537647, -5.2711196477892699)	(6.3135189691293263, -1.6643115733508074)	1.0	z	0.934781
18	M	A	B	A	M	B	N	N	B	8	4	shapes	M	3	False	70	(1.5327653272950741, 7.5522265497272301)	(-3.3316816404493075, -1.8932211888277495)	(8.5088744760271631, 1.4929486732396846)	(1.2510106755603054, -8.3745074214419564)	1.0	slash	0.944439
19	M	B	N	A	A	M	N	B	M	8	5	shapes	M	3	True	70	(3.6701830317770341, -7.382357859581175)	(6.4329743771774641, -3.4015513331740177)	(1.4905237880299698, 4.0924074254464404)	(-7.8408505056272633, -4.113476266335657)	1.0	z	1.12
20	M	A	M	B	B	N	N	A	A	8	5	shapes	N	3	False	70	(-6.7190277909481502, 3.5177721923138794)	(-4.5724868460289834, -7.3588884657542257)	(-5.0208093087045729, 8.6356755426684089)	(6.8416023270512376, 7.8663869251914811)	1.0	slash	0.973751
21	N	A	M	N					A	4	1	shapes	A	3	True	70	(3.2889270661777914, 7.8210992174357621)	(8.189786986475692, -2.6052478237338352)	(-3.4451560721474683, 5.5561448505986561)	(-7.9119337027202734, -4.9629904721727236)	1.0	z	1.27737
22	N	B	A	B	N	A	M	M	N	8	0	shapes	N	3	True	70	(5.5821572879954413, 1.4075090075863521)	(5.8171573967646353, -2.8019966584632252)	(4.730464729647764, 6.8442477997218312)	(-5.0116986453703127, -1.9291300407240533)	1.0	z	1.02699
23	N	B	B	A	M	A	N	M	A	8	3	shapes	A	3	True	70	(0.98695871496343024, -5.2434675626174583)	(-6.1426594403535626, -8.1697209554474242)	(2.6058289732919846, 1.825844907538352)	(-4.9502514076686586, -3.0261471312502106)	1.0	z	1.08248
24	M	B	B	A	N	M	A	N	B	8	2	shapes	B	3	True	70	(6.6758336833628427, -1.3794687452735346)	(3.5518544407396835, 3.8904870837897967)	(-3.1717902440541925, 0.63322851640557332)	(2.5466263967439176, -6.3528118345920728)	1.0	z	0.934157
25	M	B	B	M	N	N	A	A	N	8	5	shapes	N	3	True	70	(6.6578083605325293, -4.1174155333272093)	(-0.97817091184151828, -7.3479533974312075)	(3.3665409315648489, 0.045182682964881593)	(-1.8762049262158813, 6.5398489446619728)	1.0	z	1.00789
26	N	A	A	M					B	4	0	shapes	N	3	False	70	(-7.8338318402714755, 4.5950002561397021)	(6.7125221328270293, -7.3373244007571952)	(-6.6107017967641255, -6.4005612396810641)	(6.9330838847365097, 8.3907305919689037)	1.0	slash	1.15151
27	N	A	M	M					M	4	3	shapes	M	3	True	70	(0.054351411985720688, -0.30809421858755393)	(6.9040443005146397, 0.053234513866266653)	(-6.560763562272502, -5.4685426214761712)	(-6.7279560188344067, 2.862467737643227)	1.0	z	1.17107
28	M	A	B	M	B	N	A	N	B	8	6	shapes	A	3	False	70	(3.6096997285735064, 2.0482834439937179)	(-6.8126426820089172, -0.22751777845761367)	(-3.6879774062445385, -7.6693465747233391)	(5.965858170537766, -3.0263533000643115)	1.0	z	1.31675
29	M	A	B	M					N	4	3	shapes	M	3	False	70	(4.6469075391069694, 5.5432844177835037)	(-6.5861295268860491, 8.289217846352436)	(3.2716988535868055, -3.3890662609619078)	(-5.2291405756727585, -6.73881837387143)	1.0	slash	0.952394
30	M	B	A	A	N	B	M	N	B	8	2	shapes	A	3	False	70	(4.1818400501695905, 1.107876919100665)	(2.0576910527549561, -6.0231278818511109)	(-2.7685158160715044, -2.7173906249783011)	(2.8122094942901317, 7.572680310481239)	1.0	slash	1.25395
31	N	A	N	A					A	4	3	shapes	A	3	True	70	(-0.88408821596963616, -4.2887847082740951)	(-1.272035160356964, 8.2708384627372951)	(7.2380723859505149, 0.70578776946584831)	(7.2904984724194364, -7.5627064955592687)	1.0	z	1.08357
32	N	B	B	M					A	4	3	shapes	M	3	False	70	(8.549519272880012, 3.044855540727113)	(-2.3429264660917184, 2.4025274699347197)	(-8.6063514184106946, -3.049163217513609)	(1.2606891360229255, -3.0704785384513418)	1.0	slash	1.0531
1	N	A	N	A	M	M	B	B	B	8	4	shapes	M	4	False	70	(5.3969428825920271, 8.5156662660303475)	(2.0358691806016775, -8.2063125758972006)	(1.4557320810391143, 3.2006468294372699)	(-6.6264874178280273, 5.8997915796455356)	1.0	slash	1.04114
2	N	A	N	B					B	4	1	shapes	A	4	False	70	(7.3816123859858145, 1.0917727656564153)	(2.6780732851367084, -0.81907074749109565)	(-4.8710494244251858, -8.3809451547095666)	(-3.772995306360122, 5.110405841928964)	1.0	slash	1.57835
3	N	A	N	A	B	B	M	M	A	8	3	shapes	A	4	True	70	(-3.628991950895962, -0.97271686808965452)	(3.5912234370672831, -6.0007530413470178)	(1.7694082735742587, 3.4712903034503597)	(-3.7811901754568176, 4.9535784537716125)	1.0	z	1.50811
4	N	A	B	M	M	B	N	A	B	8	4	shapes	M	4	False	70	(3.3268913060946961, 1.8435121810764485)	(-0.097960526713386287, -6.7897169958105934)	(-6.9768867129416527, -0.27849828746598959)	(6.9764774432496317, 6.81499769990854)	1.0	slash	1.26773
5	N	A	B	M	M	N	B	A	M	8	4	shapes	M	4	True	70	(5.669005876081572, 0.23891483872174923)	(-7.0539022337661716, -5.0874924938005632)	(-0.42765675821154758, 0.28447805775048529)	(4.2551231207239315, -4.7731044174728456)	1.0	slash	1.57954
6	N	B	B	M					B	4	1	shapes	B	4	True	70	(3.2961254118031729, -6.2028298272557461)	(3.4702104945002858, 5.7902058398173484)	(-4.4592508950940779, 7.8830427800806007)	(-8.5601915387496206, -4.0179561780383102)	1.0	z	1.16086
7	M	B	A	A					A	4	2	shapes	A	4	True	70	(0.12891173713030391, 0.63087347624414747)	(3.9623848466308083, -5.0663088633588718)	(-5.3222786316131279, -3.1996079153737416)	(-2.3093383020268821, 5.1996509896343976)	1.0	z	0.890394
8	N	A	B	B					B	4	2	shapes	B	4	True	70	(4.4542379459658079, 6.586237508399714)	(-6.7164818309079637, -4.1235963748891491)	(-2.3106677442986019, 0.11092590269078961)	(1.5294747719884398, -2.0158739040779441)	1.0	z	0.930059
9	N	A	M	M					M	4	0	shapes	N	4	False	70	(-0.17767250723811401, -8.465667786714155)	(5.7631479035140938, -1.5046770097299698)	(-8.1530558404498166, 4.2322055518870378)	(5.4399143831016605, 6.2370217093668039)	1.0	slash	1.31384
10	N	B	M	M	A	A	N	B	A	8	5	shapes	A	4	True	70	(-6.7213899473599401, -4.2888794417168201)	(0.30838298109251561, 4.9590552785358586)	(-8.4792325847288765, 5.1055554271421286)	(5.3344988435534599, 4.817865418863331)	1.0	z	1.01539
11	N	A	A	M					B	4	2	shapes	A	4	False	70	(-3.6314604395163332, 4.7028024369281827)	(-2.785062006192911, -1.3220711106446545)	(6.1578960824041236, -1.8960951149737397)	(8.0087637339521542, 5.2441711830787607)	1.0	slash	1.07097
12	M	B	M	N					M	4	0	shapes	M	4	True	70	(4.0476718067934634, -2.8765591136178719)	(7.4434151046277641, 5.8883694042365065)	(-1.3571336054376575, -0.37583893590667294)	(-2.6660881420738507, 8.2220462403240226)	1.0	z	1.13058
13	M	B	M	B					N	4	0	shapes	M	4	False	70	(5.31055183292683, 3.7053577578473949)	(-7.7836115644599859, -2.036771693595183)	(-3.387016545918744, 7.6505550066731765)	(0.28954079318343773, -6.7780371172783571)	1.0	slash	1.08235
14	N	B	N	M	M	A	B	A	B	8	5	shapes	A	4	False	70	(4.8544751183849346, -6.2477401013065119)	(-5.5133310541424194, -7.5937977174803128)	(-6.8848578157305544, -2.9481673780162811)	(-2.9921386115761957, 1.4656811513773356)	1.0	z	1.08602
15	N	A	M	B					M	4	2	shapes	M	4	True	70	(-6.2614392288351048, -8.2580282688939928)	(7.0338660357140199, 0.48181575350973205)	(-5.4537595046669258, 7.1228871590271385)	(2.4083891514981808, -4.0467285705548122)	1.0	z	2.15163
16	N	B	A	A	M	N	B	M	B	8	2	shapes	A	4	False	70	(-6.6913577828358903, 4.5097239239976119)	(7.3679089991507318, 1.7394774043624679)	(2.3539433091148521, -6.3766807250881108)	(-7.8301761900412181, -2.4239031644462656)	1.0	z	1.389
17	M	B	N	M	B	A	N	A	M	8	1	shapes	B	4	False	70	(-6.3605905445994644, -3.3234555854817076)	(-3.5968573909402028, 0.3407862390866736)	(2.9770848468836402, -6.5943275637539269)	(7.0200582845275736, -6.1591792260542251)	1.0	z	1.17282
18	M	B	B	A	A	M	N	N	A	8	1	shapes	B	4	False	70	(5.7525552126804165, 8.5814635359175639)	(3.0303977654096013, -3.6462652456527778)	(8.55743904993858, -1.5123776927062496)	(0.24499041908830677, 6.0858421515531056)	1.0	slash	1.16641
19	M	B	A	B	A	M	N	N	M	8	0	shapes	M	4	True	70	(-1.4494589734706596, 8.4463369034568885)	(1.4899649732483979, 3.75481943533714)	(4.8631454489826513, -2.9211990263525109)	(-8.2191504409345679, 1.9941798400008448)	1.0	z	1.07413
20	N	A	B	A	B	M	M	N	A	8	5	shapes	M	4	False	70	(-3.1056055795748225, -4.8100368748624671)	(6.3520867214604575, 6.0037819871168612)	(-7.5242736535673238, 8.6632302865214008)	(-7.1742274897451077, -4.8224524686975601)	1.0	slash	0.991292
21	M	A	B	B					B	4	3	shapes	B	4	True	70	(-6.5559522954036318, 3.7433228942220751)	(7.0671318772243517, -0.43049569810804833)	(-7.0869526868610597, -2.5900441794531464)	(4.8112587908770372, 4.3413413112614982)	1.0	slash	1.42719
22	N	B	M	A	N	B	M	A	A	8	7	shapes	A	4	True	70	(-3.3670537991166194, -0.24935807100687768)	(-7.4503310149424742, 2.8963139430918439)	(2.1947354112405293, 5.488690022576078)	(-1.6859990786893624, 7.2397716182276)	1.0	z	1.18682
23	N	A	A	N					N	4	2	shapes	A	4	False	70	(4.9644916531484142, 7.3852764503433548)	(3.5062314753577652, -6.179228704115717)	(-7.5650634502794762, -4.8188506368281665)	(-3.7833330884755245, 5.9586153952778993)	1.0	slash	1.06422
24	M	B	A	M	N	A	N	B	A	8	5	shapes	A	4	True	70	(-5.7601450515071368, 3.8216339493492733)	(-1.9686738884649939, -8.5068327686864791)	(0.35337590910840611, 5.908878128016628)	(6.5692446718998259, -2.3131198162601576)	1.0	z	1.00797
25	N	B	N	M					M	4	0	shapes	N	4	False	70	(2.321811318969381, 1.3080109704860075)	(-2.0980721649586664, -0.59926311571750901)	(2.2654920468607553, -5.1281922384771139)	(-3.635421945407483, 4.1070017701225936)	1.0	slash	1.04783
26	M	A	N	N					B	4	2	shapes	N	4	False	70	(-8.5454150947434737, 7.8554120489246806)	(0.14073449052382259, -1.4982095624191514)	(-7.9732706497987218, -5.1442043949294485)	(2.0192441878695409, 5.8209816523351936)	1.0	z	1.89539
27	M	B	M	N					M	4	1	shapes	B	4	False	70	(-4.3893985861505982, 7.3122853735515925)	(-1.5509318396303655, -3.8122580686958401)	(4.5399988030304286, -8.6876513057072327)	(1.7300981092154704, 7.0743497439807115)	1.0	slash	1.04489
28	N	A	M	M					A	4	1	shapes	A	4	True	70	(7.3992401894869175, -8.6720354565244868)	(-4.6156724405273613, -5.6113364895809248)	(3.258019148558807, 0.8693191719945137)	(-5.3627565637093255, 2.2028098396494435)	1.0	z	1.11051
29	M	B	B	A					A	4	3	shapes	A	4	True	70	(-4.4114782490587929, 3.7751959086356308)	(0.96843485875484703, -4.0253218497951977)	(0.81006574128757869, 6.272333595907801)	(-8.1054997482838917, -0.19809437600367907)	1.0	z	0.85832
30	M	B	A	M	A	B	N	N	A	8	2	shapes	A	4	True	70	(-0.16879583373973084, 0.94067258127943987)	(8.5828158601742217, -8.6765276631375361)	(-7.580190751500977, 7.6761287423214277)	(-5.1437710399281489, -6.4642621009181092)	1.0	z	1.06003
31	M	A	M	B	N	A	N	B	A	8	6	shapes	N	4	False	70	(-5.3554403756494846, 4.4501106758121445)	(4.9268737353821912, 5.9279353393363294)	(-0.56002538778377264, -0.90305163406036826)	(1.0012313498973686, -7.2373188899213385)	1.0	z	1.15764
32	M	B	A	A	N	N	M	B	M	8	0	shapes	M	4	True	70	(4.2845485141832462, 4.4902966747346937)	(0.69664090224555864, 2.5462327378506266)	(-5.8598902034957137, 0.48419109956080675)	(-8.0162144135621531, 6.4863723876664512)	1.0	z	1.2192
1	N	A	B	A					B	4	2	shapes	B	5	True	70	(5.3828985228930595, 7.6634555710234409)	(-2.8364517700244711, -0.9994007574268835)	(-0.17539515992085342, 7.823234662997919)	(5.3435093600603967, -1.4770556449782841)	1.0	z	0.972789
2	N	A	N	B					B	4	3	shapes	B	5	True	70	(-2.1406799503112399, -4.0910892038768321)	(-1.0504726154892543, 6.8380692675305799)	(8.6341218350401796, -3.8934005026821525)	(4.6024926437433731, 0.45315846149945571)	1.0	slash	1.06851
3	N	B	B	N					M	4	3	shapes	N	5	False	70	(2.4135397006258135, 1.8835825087454072)	(-8.232370077500855, 1.0287950461624913)	(7.8076262373281011, -6.9017956692480222)	(-6.272705611901146, -8.4086930196580063)	1.0	z	1.08018
4	N	A	M	A	B	B	N	M	B	8	2	shapes	M	5	False	70	(-3.7468935695893038, -5.6297243550017626)	(4.8400724709715046, 8.0086627027844379)	(-7.9877907918175604, -7.352367979235793)	(-1.2000709942673842, 3.6983251683863756)	1.0	slash	1.08575
5	N	B	A	N					B	4	1	shapes	B	5	True	70	(1.0783240855285889, -4.0684965148621473)	(-1.839560577967398, 0.97486370646289622)	(6.8504670326770576, 5.7187106623656661)	(-6.5255452402916232, -1.1417886093439984)	1.0	z	0.951386
6	N	A	M	B	B	N	A	M	M	8	0	shapes	N	5	False	70	(-4.0366678943124619, 7.339495787472643)	(6.8939363162391043, 5.5138574179407627)	(3.439967772665101, -6.9316734016097445)	(2.0204221339212509, 8.3396429039995468)	1.0	z	1.08505
7	M	B	B	N	N	M	A	A	A	8	5	shapes	M	5	False	70	(3.1024596428782356, 7.1159221684016565)	(6.710968119615579, -1.3314946479650489)	(-5.4350313928960858, -7.9822278066946382)	(7.6633821097743429, -7.9887715640910724)	1.0	slash	1.83232
8	M	A	M	N					N	4	0	shapes	M	5	False	70	(-0.92141441086792408, -8.1526630130095441)	(1.2001805055768688, 3.849602842754793)	(-4.5174852393755467, 5.6386845821618081)	(6.0778563113015949, -7.2054230500588812)	1.0	slash	1.06816
9	N	A	B	A	N	M	B	M	M	8	7	shapes	M	5	True	70	(-4.8220231484155214, -7.0754230110415408)	(6.3597082222912853, 3.5050952868283414)	(-7.5226924345194206, 1.1199060600422914)	(0.1631777728087549, 1.337251903850186)	1.0	z	0.96188
10	N	B	M	M					M	4	2	shapes	M	5	True	70	(-3.1898006148546587, -1.6271438553853486)	(1.5159597149661188, -5.4505428190007184)	(-8.2372717750414779, 8.2794779860177421)	(7.0399897064387673, 3.9553328165025636)	1.0	z	0.947437
11	N	A	A	M	B	B	M	N	N	8	3	shapes	M	5	False	70	(-3.9566301539285575, -3.1525929593896738)	(-4.0186113475793892, 2.2869537191043694)	(-7.9495498830084337, 6.0700710974625913)	(7.4763363596511354, -3.0762088514578059)	1.0	slash	1.1872
12	N	B	M	M					M	4	2	shapes	M	5	True	70	(4.2367424624266441, 1.3942122449167123)	(-6.2405598601255905, 2.0724249183858454)	(1.4454759312272945, -2.5160695544006462)	(-5.8811209927109305, -6.8661184075836594)	1.0	slash	1.57667
13	N	A	N	B	B	A	M	M	B	8	6	shapes	M	5	False	70	(2.9375586935043554, -7.2446167223794289)	(-3.526340630581986, -1.974064969969068)	(-0.65756716413950755, 6.7977841769698131)	(-5.4251789164940369, 5.0360373584902653)	1.0	slash	1.25838
14	M	B	A	M	A	B	N	N	B	8	1	shapes	B	5	True	70	(-4.7416068885348785, -3.7969687192776602)	(2.7676149633593568, 5.4275633181815515)	(-7.2566480928813215, 2.3294726893929045)	(-3.2008897414651836, 5.7043528008598479)	1.0	z	0.836004
15	M	B	B	M	A	A	N	N	B	8	2	shapes	B	5	True	70	(5.7688261326168977, -3.6732557298318005)	(-1.100728518778741, 8.5474952298428875)	(-7.1000228820735689, 6.2436400651944819)	(8.7143634242497505, -6.9848295314602069)	1.0	z	1.06567
16	M	B	N	A	M	B	N	A	B	8	5	shapes	B	5	True	70	(6.764019473548311, 0.6821320217303537)	(-5.2515925135879709, -6.5242256711366728)	(-0.75030967000453419, 1.2565056216113071)	(-7.9888578301166762, 2.0671455633093068)	1.0	z	1.16121
17	M	B	B	N					B	4	3	shapes	N	5	False	70	(2.2194385047416763, -1.4093276116159927)	(-8.0508904920657969, 7.9163494805163523)	(-2.1168483745781561, -3.8626070967014021)	(8.4787752318675338, 1.4730424970273592)	1.0	slash	1.11486
18	N	B	B	N	A	A	M	M	A	8	2	shapes	B	5	False	70	(0.77103870043944411, 1.9930054900542533)	(2.1844164415418401, -1.8544329048372754)	(-2.1498439950174433, -3.9790737329604591)	(-1.3086590088513601, 8.5133377326043913)	1.0	z	0.960398
19	M	B	M	N					M	4	1	shapes	B	5	False	70	(6.5062259918116201, 5.7475932850875537)	(-3.3160512817293784, 6.7091714383884344)	(5.0932325890252059, -6.8609725004774509)	(-7.4156862335214146, -4.704691100103628)	1.0	slash	1.18617
20	N	B	N	M					B	4	1	shapes	B	5	True	70	(4.545023206339998, -2.9992744294585458)	(4.5845351521458948, 3.1683266745404151)	(-1.1382764291234793, 3.7755647208644056)	(-7.0360151897763172, -5.1537955662194141)	1.0	z	0.895748
21	N	A	A	N					A	4	2	shapes	A	5	True	70	(8.3174195658919814, 0.096296015526668555)	(4.2124218345449052, -6.0179125008299152)	(-7.3896658679744265, 4.980848355263209)	(-5.6066168118622235, -0.66692166980769407)	1.0	z	0.935322
22	N	A	N	B					B	4	1	shapes	A	5	False	70	(-3.736150960512659, 3.2406630941591335)	(3.2431775436607584, 5.9031266620711271)	(-6.0817923224992239, -1.630806440283501)	(5.8676854507788221, -0.75961631300462784)	1.0	slash	1.05506
23	M	A	A	B	B	M	N	N	A	8	1	shapes	A	5	True	70	(1.7390693071642698, 4.6534096617787561)	(7.7541469516498758, 0.85088456706081494)	(-0.31311525354547065, -8.6540790341244733)	(-6.4440047021335651, 0.032947060434496578)	1.0	slash	0.872656
24	M	A	N	N	B	B	A	M	N	8	3	shapes	N	5	True	70	(-3.7685286672337392, 0.68187562599992368)	(-7.6984569231754492, -0.18873232166543197)	(3.2745075288913572, -2.9882817228073346)	(-6.7422783388520049, 8.1509300239687228)	1.0	z	1.16621
25	N	B	B	N	A	M	M	A	B	8	1	shapes	B	5	True	70	(-6.5849343171125785, -0.14994990066756486)	(8.4020235328721888, 7.7983687710395699)	(4.3502873614028754, 7.7385891167266649)	(-3.5196084786979576, 5.8826286742086431)	1.0	z	0.889987
26	N	A	B	N	B	M	M	A	N	8	7	shapes	A	5	False	70	(3.810476692073177, 7.6714106315507706)	(-1.9769392553632201, -0.10722644947759186)	(6.530686886196694, -4.0980342293073377)	(2.1024452711491044, 2.8508061124851825)	1.0	slash	1.36557
27	M	A	B	A	B	M	N	N	N	8	6	shapes	N	5	True	70	(7.6624563590232384, 3.3352934301614319)	(-5.6912019228347521, -1.9651180610125145)	(1.3777168993196742, -5.1340614280626973)	(-8.5768440343670598, 0.96045115630652589)	1.0	z	1.40915
28	N	B	B	N					A	4	1	shapes	B	5	False	70	(1.7956670931260152, 5.4557612750239812)	(5.4525778618595862, -7.4676311270292075)	(-5.0041080467475663, 6.5809609832995051)	(-8.135158823165094, -3.9567502745216583)	1.0	z	1.11264
29	N	B	N	A					N	4	0	shapes	N	5	True	70	(5.3621704016148044, 2.5334209174670157)	(2.4023428180481119, -7.2948658460663269)	(-6.102388025181031, -1.7660249585084573)	(-2.6276267505760451, 8.1241318123989714)	1.0	z	0.996295
30	M	A	B	N	B	M	N	A	A	8	0	shapes	M	5	False	70	(6.3914133824845969, 0.66180782963697737)	(-2.2534460061056558, -3.7961975820768652)	(-5.1443069554136081, 0.08921955230934131)	(-5.2120369845238361, -6.9919614161894188)	1.0	slash	1.10607
31	N	A	M	A					N	4	1	shapes	A	5	False	70	(-5.7350974018158496, 1.8611028940916992)	(7.1549586663705345, 5.0771598057056266)	(0.28178007301136354, -1.0073906445439267)	(-4.9331228111594623, -5.9521912780105275)	1.0	slash	0.983696
32	N	B	A	A					M	4	1	shapes	B	5	False	70	(4.9493291085488345, 2.0376173279236465)	(0.72986053862656597, -3.3853769922615102)	(-4.9128586656141557, 8.527051105746196)	(-4.198240302482974, -1.3786038266484564)	1.0	z	1.16545
1	N	B	B	N					N	4	2	shapes	B	6	False	70	(3.761615241349185, 4.1132545411120915)	(6.1339570963189196, -5.4773450743027272)	(-1.0406974946839602, -0.65324892104849752)	(-5.0396912564838017, 2.7741308521122967)	1.0	slash	0.842815
2	N	A	M	N					N	4	0	shapes	N	6	True	70	(4.5137787141978372, 0.6123445731005539)	(-3.5022469590065244, -2.0046248337463597)	(2.0686578283401964, -3.9828700785715299)	(-3.700179976812902, 2.2512786367529767)	1.0	z	1.38863
3	M	B	M	N	N	A	B	A	B	8	3	shapes	N	6	False	70	(5.4178914420601423, 7.2367263495925656)	(-3.1191171961263118, -8.3320994352171009)	(-7.6781175726977962, -0.60851355312246014)	(0.78415283352949494, -1.3359381484286796)	1.0	slash	1.10033
4	N	A	N	B					A	4	1	shapes	A	6	True	70	(4.6219633829022051, 1.0963283047838424)	(-3.4419511614524012, -6.2011300531286544)	(2.9227756735343782, -2.6884763537361733)	(-2.7938879514114223, 2.9414520063092997)	1.0	z	0.793894
5	N	B	A	B	N	M	M	A	B	8	3	shapes	B	6	True	70	(-6.316567152048119, -8.6490656469058607)	(6.2300398153118692, 2.8800377916633604)	(0.091747259526787417, -5.8138580192428329)	(-3.6999994063932826, 5.3578253427528733)	1.0	z	1.36759
6	M	A	B	A	M	B	N	N	A	8	3	shapes	A	6	True	70	(6.2888191982175066, -1.4506966409823843)	(-3.8824954277100012, 4.0150375921552417)	(-4.8223384808257439, -0.094225997913319759)	(-3.5407307548109772, -8.4042443006667433)	1.0	z	1.09096
7	N	A	N	M	B	B	M	A	A	8	0	shapes	N	6	False	70	(-4.3189153953954413, -6.6853768784683245)	(-1.2718573526521118, 1.0827592688633185)	(7.0857856130412387, -5.0576798087407617)	(-6.4914485574388667, 3.7524857788241484)	1.0	z	1.14065
8	M	B	N	B					N	4	3	shapes	B	6	False	70	(-6.8003336236083411, 1.6719483617785436)	(2.0652973206538103, -1.7085896309259727)	(1.3710219437938758, 6.3844267574296474)	(-2.2839793890369027, -7.27803535490286)	1.0	slash	0.922373
9	N	B	M	A					M	4	1	shapes	B	6	False	70	(-4.9603505981334326, -0.3499314247608325)	(8.2871031341082038, 5.9769366768239323)	(-0.40810665811486224, 5.9607352542302969)	(2.633710966267742, -0.64121146650509964)	1.0	slash	1.05197
10	N	B	N	A					M	4	1	shapes	B	6	False	70	(-3.1903003997273185, -0.8156447378134315)	(1.767514453833801, -2.3761804663013502)	(2.8110886807724729, 3.210067932151567)	(-6.8459487244710022, 4.5582007656094135)	1.0	slash	0.899686
11	N	B	M	A	N	B	M	A	A	8	4	shapes	N	6	False	70	(-3.7300187705234658, 8.5444094321017232)	(3.3791407979390193, 7.7469083232255613)	(1.8387133198787335, 3.0284267773413518)	(-2.4567503327540399, 1.2285312608685128)	1.0	z	1.10118
12	N	B	N	A	B	A	M	M	A	8	1	shapes	B	6	False	70	(0.51124789966499407, 1.6264880087082609)	(-8.5401522034319708, -0.32896501473852169)	(8.6725618345482758, -1.4756530446178582)	(3.1412856738126234, -6.7123427960763102)	1.0	z	1.05284
13	N	B	N	B	A	A	M	M	A	8	5	shapes	A	6	True	70	(0.35203835335279443, 5.689777905326098)	(-3.6703098190891525, -1.7932656450406705)	(0.64984186501896524, -8.3408016023769473)	(5.9296402068916496, 5.3787822884349623)	1.0	z	1.21438
14	M	B	M	A					N	4	0	shapes	M	6	False	70	(6.8486779027302784, -2.8248397530017959)	(4.5764767573556888, 8.2169145514086885)	(-7.1662132251713846, -2.2416909753860743)	(-1.1277444921435835, 5.4662702481106642)	1.0	z	1.4061
15	N	B	M	B					B	4	3	shapes	B	6	True	70	(-4.9533829299620225, -4.3378465097854475)	(-2.1215653232121294, 6.282378168824204)	(2.2509025278431931, -7.387029189470633)	(5.0611385776514446, 2.8349661518777545)	1.0	z	1.0957
16	M	B	B	A	M	A	N	N	B	8	1	shapes	B	6	True	70	(-7.6969894077622865, 0.59198728687976221)	(6.6947065784050483, -2.0393596233835982)	(-0.45315384545820336, 1.0504320884827614)	(4.6609626614365336, 4.5687413857489307)	1.0	z	1.02547
17	M	B	B	N	A	M	A	N	N	8	1	shapes	B	6	False	70	(4.2661425524809609, -6.8093554262231253)	(-4.7510202174044478, 1.6872403848818998)	(0.17131860947761446, -8.3710597467392756)	(6.136205231789118, 6.7559928417637067)	1.0	slash	1.1449
18	M	B	M	N					A	4	3	shapes	N	6	False	70	(0.48171235649533983, -3.986296897484225)	(4.0425356276289346, 8.1966979205458195)	(-8.6931100604747193, -7.0588696052351079)	(-0.74204088102024279, 2.5160298187654071)	1.0	slash	1.06261
19	N	B	M	A					A	4	3	shapes	A	6	True	70	(0.45747501081253361, 7.5613924481346189)	(6.3300759772156443, -2.03553656505549)	(-8.1491156912055285, 4.2859775548639085)	(-5.1067623696388491, -0.26716517424018171)	1.0	z	0.988287
20	M	A	N	A	N	B	M	B	M	8	4	shapes	N	6	False	70	(7.1602288697991074, 0.73985445140429285)	(-1.2967129722361044, 8.1158054402281223)	(4.3059428045291828, 4.3340068883630778)	(1.3947439934547745, -0.93923975983323782)	1.0	slash	0.851919
21	M	B	M	A	B	A	N	N	N	8	1	shapes	B	6	False	70	(8.5884962893626735, -3.7532078620829674)	(-3.4087996503547231, 1.8568746634379583)	(-2.3350449418142869, 5.8120688281089858)	(6.3327308472849797, 2.5957570585752165)	1.0	slash	1.51767
22	N	A	A	B					N	4	1	shapes	A	6	False	70	(-7.5019242726652067, -2.0393484584705144)	(7.0062770739496809, 2.6628473559716319)	(0.7777034963117746, -5.8685599552002214)	(-2.2713301530110277, 3.0924501613037521)	1.0	slash	1.35929
23	M	B	A	N	A	B	M	N	A	8	4	shapes	A	6	True	70	(6.4009176452846575, -4.9968431945003555)	(-0.43037022311044915, -1.8706027058992074)	(-8.0766815095885445, 7.0961942299816307)	(-2.4570022491905705, 7.0853893585275198)	1.0	z	1.16443
24	M	B	M	N					B	4	1	shapes	B	6	True	70	(-6.1137363558244688, 1.675370309680952)	(2.7906548543392375, -3.8868087847604889)	(-7.5935952628440724, -6.8383592718250075)	(0.26133704485853571, 6.2507894461687332)	1.0	z	1.19845
25	M	A	A	M	N	B	B	N	A	8	0	shapes	M	6	False	70	(-6.1362195136246349, -8.5779609064004436)	(7.8935654479465569, -0.31710127087313822)	(-4.5535862141316734, 0.75286208861280457)	(-5.4677293976828869, 6.6191370758916097)	1.0	z	1.10804
26	N	A	N	M					B	4	3	shapes	M	6	False	70	(3.4958441385948955, 3.0818956365107741)	(-0.080696644754775448, 5.6066737968026956)	(7.2879977439597816, -0.93069558202120017)	(-4.1351669973063228, -8.6144519560048476)	1.0	slash	0.935807
27	N	A	B	A					A	4	3	shapes	A	6	True	70	(8.2518572150329454, 6.2186786823904523)	(-7.6365655310625957, -7.0944170137298492)	(-0.36120032314593864, 3.7890935617800672)	(5.7603098469905039, -3.4917358322872802)	1.0	z	0.919446
28	M	A	B	A	M	N	B	N	A	8	3	shapes	A	6	True	70	(7.1971408798549579, -1.0752675889110899)	(-6.1243492207295436, 6.164162973466464)	(5.1427452028164424, 4.0249604937837145)	(-4.578803671560995, -0.085173858357610044)	1.0	z	0.874823
29	M	B	N	B	M	A	A	N	A	8	6	shapes	A	6	True	70	(-0.47816034738846547, 1.6022201560004508)	(5.2026411551007143, 5.0113827385255103)	(-5.3950448561939712, -6.0925442854400549)	(-6.5189621051324416, 4.5775052728245829)	1.0	z	1.04051
30	M	B	B	A					B	4	1	shapes	B	6	True	70	(3.9885204131067642, 7.1514208852488164)	(2.0281130630816726, -3.1274321859612799)	(-3.8919126476858157, 1.113508736120254)	(-4.8180297341805112, -6.4564722486995425)	1.0	z	0.898205
31	N	B	M	A					B	4	1	shapes	B	6	True	70	(-0.86396051895391679, 4.4758735685707958)	(8.5373607899230386, -6.8872068105496602)	(4.0528099596394345, 3.3751100509141665)	(-3.3059063925924885, -5.2447171137627251)	1.0	z	0.872005
32	M	A	B	A	N	M	B	N	M	8	5	shapes	M	6	True	70	(7.9369841597456094, 2.5641199726472692)	(2.0899681158018435, 7.0943272086108671)	(6.4006127509692554, -1.4600399181559078)	(-8.3424477656326026, 2.7406062747098492)	1.0	z	0.83549
1	M	B	N	N	A	M	B	A	N	8	5	shapes	M	7	False	70	(-1.4895654550901147, -7.5669863694493742)	(-4.0770762660362347, 2.1102623880852303)	(2.148891093974644, 6.3112779720739773)	(-3.0044934198547457, 6.857870836584306)	1.0	slash	1.0933
2	M	B	N	A	A	B	N	M	B	8	2	shapes	N	7	False	70	(3.9108332090928464, -3.1974131612043113)	(-2.1200475881261367, -5.3999642268985006)	(-6.9260524912772707, -4.6786464788072459)	(3.9907908616904955, 6.3338249439195362)	1.0	slash	1.07885
3	M	B	N	M	B	A	A	N	A	8	6	shapes	A	7	True	70	(2.5455345900338227, -7.4375483108590341)	(-3.625830599932085, 4.075023594501868)	(1.010156625340219, 1.676870628327821)	(-7.6049633513036259, 8.1881150375252574)	1.0	z	1.06033
4	N	A	N	A					B	4	3	shapes	A	7	False	70	(2.8254160951774239, 4.9257598581962885)	(-0.061781299996951589, 0.41404002302583365)	(6.2136714886556064, -4.2190188776113455)	(-3.8355692300920232, -6.2169862896255088)	1.0	slash	1.08217
5	M	B	A	B					B	4	2	shapes	A	7	False	70	(8.4146643589825594, 4.8888929184867553)	(-4.1591478183223112, -2.1058667673079086)	(3.0561162598178075, -0.37836232963418936)	(-4.6256282851054111, 3.4125141532941594)	1.0	slash	1.0358
6	N	A	A	M	M	B	N	B	A	8	5	shapes	B	7	False	70	(0.036783028295687359, 6.7165802154475394)	(-5.6635920916328697, -3.258377182906429)	(-8.4179108186645717, -8.4959702318846553)	(0.63576645266268095, -0.90677618872526899)	1.0	z	0.99935
7	M	B	N	N					M	4	3	shapes	N	7	False	70	(1.238928408946494, -5.824867220665686)	(1.9345819481555235, 7.7521572491379906)	(-1.9994817049149445, 0.31326576533830419)	(-6.6950286994751202, -2.9409200252433187)	1.0	z	1.21697
8	M	B	B	N					B	4	3	shapes	N	7	False	70	(-8.1463752855171645, 4.8618015169175841)	(6.1409978773940495, -1.0691444656761924)	(5.862246361092307, 4.4181549745726247)	(-4.8603355258184413, -2.5858162621623491)	1.0	z	0.984593
9	N	A	B	N	M	A	M	B	N	8	0	shapes	N	7	True	70	(6.1085349830058036, 0.55517208327360024)	(2.1290208113343709, -7.2001597563894588)	(4.1618080088760792, 8.3918378732750689)	(-6.6418452433383468, -5.7439854946726667)	1.0	z	0.992299
10	M	A	N	M					N	4	2	shapes	N	7	True	70	(1.0408310703211381, 8.5779477315015846)	(-3.5351252007816685, 6.0004698713239719)	(7.4268639696501459, -2.5840009799640944)	(-8.6537991031441344, -6.6797499401400247)	1.0	z	0.91582
11	M	B	A	A	N	N	M	B	A	8	4	shapes	N	7	False	70	(-7.9490917573317512, 1.4100960831027756)	(1.7549187279354186, -4.450225157969836)	(-4.4174336181709055, -5.8430586867361436)	(-4.1643963578350167, -0.4354349182941597)	1.0	slash	1.03367
12	N	B	B	M	A	M	N	A	B	8	3	shapes	M	7	False	70	(-2.2883951193815939, 6.050002693791944)	(0.66931515607045178, 1.1220345985013971)	(-1.7291624578395277, -5.567426751479247)	(5.5342345380413818, -5.1410186911783082)	1.0	z	1.42303
13	M	B	N	M					A	4	3	shapes	M	7	False	70	(-7.6012188834316428, 5.5598744304367553)	(1.5321030114603289, -1.478012349477984)	(6.0500945607621084, 1.6056993758258731)	(-3.3353942679978097, -1.2108757367225227)	1.0	slash	1.07682
14	N	A	M	N					B	4	1	shapes	A	7	False	70	(-2.3517475366180829, -2.9140877659990121)	(-1.9189148940872611, 1.3779796347714708)	(6.2202617110482787, -6.2986068172114962)	(6.7572309591765052, 8.2501299510123474)	1.0	z	1.08813
15	M	A	N	B	N	A	B	M	B	8	2	shapes	N	7	False	70	(1.6900483488876681, -3.0795563564433071)	(-1.3994417357804814, -5.7085739765696673)	(5.460678652547843, -7.9869886326596173)	(2.190690325731163, 7.7061731289537398)	1.0	z	0.916114
16	M	A	N	N					N	4	3	shapes	N	7	True	70	(-1.0914037265284469, -8.5654221023909454)	(-7.9460351690332178, 0.59415238597894771)	(0.9516596363071681, 2.9649313253098111)	(7.728488421235177, -3.6018251121882301)	1.0	z	0.895613
17	N	A	B	B					B	4	3	shapes	B	7	True	70	(-1.4911102000844414, -8.3256697549473238)	(1.0342917047496201, 2.5937782055548695)	(5.1519165144642862, -7.4330066019430667)	(-7.8786248907018139, 2.9087280615199038)	1.0	z	0.887373
18	M	B	M	A					M	4	0	shapes	M	7	True	70	(-6.3614193457957962, -7.9864922016552997)	(3.0746989589286038, -0.044251280047182817)	(-0.47233757768694495, 5.9677548010411403)	(5.7037290844272075, 3.348665802213425)	1.0	slash	1.32101
19	M	A	B	A					B	4	1	shapes	A	7	False	70	(8.7439458125441227, 3.670258488163892)	(7.3606611696357369, -2.9325422925596296)	(-0.79807999902591487, 2.099637444363772)	(-6.7648775335165112, -7.1317513242826935)	1.0	slash	1.23431
20	N	B	N	B	M	A	M	A	A	8	7	shapes	A	7	True	70	(-5.2637969016886998, 6.6891506194959565)	(5.6091873813448156, -1.7295584593163937)	(-3.3228619472322283, -3.7129750247410076)	(2.9268555714767022, 8.5443257219133457)	1.0	z	0.952503
21	M	B	N	N	M	A	B	A	A	8	3	shapes	N	7	False	70	(2.5366091001329529, 6.2784637264156515)	(8.2549608765129676, -3.0503076224020296)	(-4.7846645788295259, -2.5367393775734648)	(-5.4380495462030991, -6.9081243914734021)	1.0	z	0.757731
22	M	A	B	N					B	4	2	shapes	B	7	True	70	(-0.19367187780970951, -6.2829970370849697)	(5.2208181338702637, 8.6500290943711207)	(1.4599306998307782, -0.82670214381345453)	(-6.1105454874030443, 3.1426365551502311)	1.0	z	0.695618
23	N	A	M	M					N	4	3	shapes	M	7	False	70	(1.7313047654184963, -5.0131852776248707)	(-5.2895647471832961, -2.7165362218398217)	(0.018811664514590376, 8.2368539738416935)	(-7.724567650902431, 5.3127440435014535)	1.0	slash	1.00715
24	N	B	N	M					M	4	3	shapes	M	7	True	70	(3.4692594018827343, -4.4311749207356392)	(-6.523620042445236, 1.6483671781620224)	(3.212079395660032, 6.7539013243436319)	(-5.0099790956148373, -4.9136208989865615)	1.0	z	0.99273
25	M	A	B	A	M	N	N	B	B	8	7	shapes	B	7	True	70	(-5.6709642624163621, -6.7851915230090611)	(5.8092101408564716, -5.964134586097682)	(8.7046953385879604, 5.5385137623174625)	(-7.5444726400192481, 7.2774183583891094)	1.0	z	1.35043
26	N	B	N	M					N	4	2	shapes	N	7	True	70	(3.5498663217015629, -0.91368930086851297)	(4.0592028084135521, 5.2145011220962889)	(-1.0127688510729689, 0.66602949761290731)	(-8.6147310059056448, -3.7086575299652385)	1.0	z	1.02613
27	N	B	A	B	N	A	M	M	N	8	0	shapes	N	7	True	70	(2.1929913462112136, -0.39604696668561523)	(4.2125599043761799, -5.1160796452554003)	(6.3386528074547712, 4.481414284003856)	(-2.6600028521165484, -8.2224074456420784)	1.0	z	0.873839
28	N	B	A	M	M	A	N	B	A	8	7	shapes	B	7	False	70	(-1.1136605823822148, -5.9813928078632577)	(6.1289895247572659, -7.2159800051818541)	(-6.3406965947133989, -3.1911708323393304)	(-5.2566392157248369, 5.607398939250988)	1.0	slash	1.23147
29	M	B	B	M	N	A	A	N	B	8	1	shapes	B	7	True	70	(7.7985711462530425, -2.7012692251507362)	(6.2722409211287751, 2.8815034241705639)	(-5.7139214468402573, 6.7054890284579685)	(-1.6118036917674532, 2.9532370443507858)	1.0	z	1.25886
30	N	B	A	B					A	4	2	shapes	A	7	True	70	(-3.9355586937853699, -5.2452586368475806)	(3.4838660227648663, -8.4824750158340176)	(-1.7556331981246922, 4.6222758383383447)	(6.6856620845327921, 2.3302481014717245)	1.0	z	1.08854
31	N	A	N	A	B	B	M	M	B	8	4	shapes	B	7	True	70	(2.1773416245082942, 1.6046449420778952)	(0.85390458860536, 7.7224822146590917)	(0.95701542867143807, -3.7845200325212733)	(-5.2542377112546514, -8.2604466566099664)	1.0	z	1.22812
32	N	B	M	B	N	A	M	A	B	8	1	shapes	B	7	True	70	(8.2528977651751987, -2.6224492532446426)	(-1.9346633568096907, 3.0926295990265125)	(6.658474021214893, 8.1693492094398863)	(2.9120214976658403, -2.9579417515433475)	1.0	z	1.12383
1	M	B	B	M					A	4	2	shapes	B	8	False	70	(0.43124679437749336, 4.1693893896365726)	(3.4361531238345577, -5.5545334395135413)	(-2.4009870012535366, 1.2936660586945319)	(-8.1772650366048456, -6.3393650171040701)	1.0	slash	1.28942
2	N	B	B	A	M	A	M	N	A	8	5	shapes	A	8	True	70	(-8.071962349226153, -0.45557189111250906)	(3.9151386502996708, -8.4853848909665839)	(-1.2448139646447425, 5.8981524337043165)	(-0.48708309657646964, -2.4937231330024838)	1.0	z	1.1492
3	N	A	M	M					M	4	3	shapes	M	8	True	70	(-1.4605897345336825, -8.7040788738177977)	(7.086435829065266, -2.2361436304837969)	(-3.7142869092134951, 6.101261205931511)	(7.1936221799333708, 2.2806686710306412)	1.0	slash	1.36068
4	N	A	M	M	A	N	B	B	N	8	5	shapes	N	8	True	70	(-7.8336308012673497, -2.7581111350055201)	(-5.6051931287427532, 2.9950075713648108)	(-7.4860905242544451, 8.6223831317201025)	(3.458206817967783, -4.4682691897231637)	1.0	z	1.23632
5	N	B	N	M	A	M	B	A	A	8	7	shapes	A	8	True	70	(-0.54161372874034441, 8.6450375622299305)	(-3.8480882617331842, -0.26976034069200949)	(7.8233379404506813, -5.542189873882136)	(2.1888119488596018, 5.3461584478556521)	1.0	z	0.889946
6	M	A	B	M					M	4	3	shapes	M	8	True	70	(-4.814265149648838, -3.3618969299170436)	(2.5389591790744923, -3.6330879200861927)	(1.6763691656729698, 2.9525928841660125)	(-8.1000702100706743, 0.8675309752339242)	1.0	z	0.91353
7	N	B	M	B					M	4	3	shapes	B	8	False	70	(1.365542925953843, 7.6160744873879551)	(-8.3799381236587269, 8.6851403244114067)	(7.9756003257048818, -0.41804912895416813)	(-7.490408807077813, -1.0520818231081943)	1.0	slash	1.13327
8	M	A	N	B					M	4	0	shapes	M	8	True	70	(-8.6508672083413227, 4.9967969107667045)	(-3.3003509656157171, -6.2320583037743909)	(6.4773901703775341, -2.3060939533406621)	(1.2572730905122054, 3.9251141727035588)	1.0	z	1.04498
9	N	A	A	N	B	M	B	M	M	8	3	shapes	N	8	False	70	(7.0679419821840614, 2.2663719844943131)	(4.2133409664871966, -7.6686430781372339)	(-5.5446990688619859, 1.2035980469294341)	(4.1669279672487018, 8.0396114360777666)	1.0	slash	1.32865
10	M	B	A	N	A	M	N	B	M	8	2	shapes	A	8	False	70	(-5.6346247641544327, -2.3791908414424743)	(-3.8578764311051232, 5.5431775113226998)	(-2.6537176909501046, 1.5950023499001222)	(5.5253128999085703, -0.15089825398459311)	1.0	slash	1.49226
11	N	A	N	A	M	M	B	B	B	8	7	shapes	B	8	True	70	(-6.9836766102251042, 4.5441546648685875)	(-3.2566425902613583, -3.7456193654778414)	(7.4718028088488992, -6.7953763474859166)	(-7.3884131946359517, -8.0757498174941382)	1.0	slash	1.34767
12	M	B	N	M					M	4	3	shapes	M	8	True	70	(-4.1500610357089167, 5.5102033851438339)	(-7.6222613585833479, -0.50573596817158339)	(0.033959818370377093, 0.17141744749042864)	(7.9487380510132333, -4.0272854376848128)	1.0	z	1.1854
13	M	B	A	M					N	4	3	shapes	M	8	False	70	(-6.9197846196120736, 0.69025687603360275)	(5.900061037322029, 2.1176564504523601)	(-3.6917311696287101, -3.4517367359252811)	(2.4518746223108714, -5.2228088336096139)	1.0	slash	1.58288
14	N	A	M	A					A	4	3	shapes	A	8	True	70	(-3.199344462542955, 6.6853344452943873)	(6.6926422245074981, 2.8501032809289217)	(2.2938841968432779, -6.2624147795027696)	(-3.1452652591328674, -5.5372421823331077)	1.0	z	0.860524
15	M	A	N	A	B	B	N	M	B	8	3	shapes	A	8	False	70	(2.8160339390721845, -3.1475378526559652)	(-3.847420533872131, 2.5082873442638363)	(-7.6077741312621008, -6.1866568789879581)	(-0.36013812910133502, 4.9044284488795302)	1.0	z	1.05411
16	N	B	B	M	N	A	A	M	B	8	3	shapes	M	8	False	70	(7.0418339311297782, 3.208070138186617)	(-3.7585454743033448, -2.0908562606524459)	(-6.7484898916666207, 5.0618062308686884)	(5.6160588962951454, -1.0659618475101649)	1.0	slash	1.19189
17	M	B	A	M	N	N	A	B	N	8	4	shapes	N	8	True	70	(3.4313788555552129, 7.4662216967294164)	(4.0073762456267197, -1.8246645281633533)	(7.6662030214295811, 8.6766017258088546)	(-3.7101572377319147, -0.92568099112155533)	1.0	slash	1.38743
18	M	B	A	N					M	4	0	shapes	M	8	True	70	(0.67073451374876747, -4.7979953826861017)	(-1.4716222222201507, 5.9030919363395267)	(8.7316112434063982, 5.1162008530074274)	(-5.8984254113876995, -7.825025092692921)	1.0	z	1.01517
19	N	A	A	B					N	4	3	shapes	B	8	False	70	(8.5377897862894407, 3.590706838146259)	(-4.6798406634271776, -6.394040496207511)	(-2.1441656288361211, 8.324630099070994)	(0.067147912306227298, -4.8349111275959604)	1.0	slash	1.1089
20	M	A	A	M	N	B	B	N	B	8	3	shapes	M	8	False	70	(-3.5760385891963891, 0.13878911845015907)	(1.5450655321406987, -0.80490681151040455)	(-7.5007436500993752, 3.1304891671983235)	(-1.8113371714875015, -4.6933772137622638)	1.0	slash	1.40419
21	M	B	B	M					A	4	0	shapes	M	8	False	70	(-0.71062867144304853, 5.0084989940617284)	(-8.5716439781937037, -0.17214382002100237)	(2.0413052011323654, 8.076307760765161)	(3.9678179614401046, -6.903680759611901)	1.0	slash	1.09396
22	M	B	M	B					A	4	0	shapes	M	8	False	70	(-3.3864339385578646, -0.80562235081784728)	(-8.5876211312045552, 4.1407473213146133)	(4.2538034822342592, -8.7065046176551864)	(5.1706355489397833, 7.2505773736171086)	1.0	slash	1.40561
23	M	A	A	B					M	4	1	shapes	A	8	False	70	(-2.2765275995975367, -1.2956942085846208)	(3.8365721511916266, -7.7669895070381596)	(-4.425996348776283, 4.6648237409221363)	(6.503565817214108, 4.7801136532445128)	1.0	slash	1.18107
24	N	A	M	B	M	N	A	B	N	8	2	shapes	M	8	False	70	(-6.0055477729658397, 8.1778300704319768)	(0.11882932713160521, 1.623000656515206)	(-5.0633518635740282, -4.0241136813351499)	(-6.716035886704228, -7.8950805609907686)	1.0	slash	1.15685
25	N	B	M	M	N	A	A	B	A	8	5	shapes	A	8	True	70	(6.1694035276693047, -5.8961077537348467)	(0.4213948843972144, -5.1310861348892463)	(-0.61503790038080908, 5.8838131494046007)	(3.2359949557096108, 2.5700381256943086)	1.0	z	0.986444
26	N	A	B	N					N	4	3	shapes	N	8	True	70	(-7.2058340488477066, 3.3386863214038094)	(-6.9506164869247584, -8.2370803309884479)	(1.447638491662488, 8.3062332040617832)	(6.3369135588918564, -2.5539897046651925)	1.0	z	1.00606
27	N	A	B	B	M	A	N	M	A	8	1	shapes	A	8	True	70	(-4.4843339389775982, 4.4295057193531662)	(-0.84225105557325719, -0.079195130213014053)	(4.5639354246651127, 0.95363194093362047)	(-4.749448902948596, -8.3610265321825867)	1.0	z	1.08964
28	N	A	B	N					B	4	2	shapes	B	8	True	70	(5.6908979100657238, 3.1588649154056103)	(-7.3139886230424969, 2.06051954132408)	(-3.3272966971893148, -6.1514271470077473)	(0.24372892267161461, -1.0761688280563115)	1.0	z	1.09739
29	N	A	N	A	M	M	B	B	N	8	2	shapes	N	8	True	70	(8.6288567932183717, -1.9007872592808068)	(-5.5584831972543558, -5.2959113115727998)	(5.8189130203295623, 2.5631818179002419)	(1.3573196612886704, -4.475283086795284)	1.0	z	1.01894
30	M	A	A	M	B	B	N	N	N	8	0	shapes	M	8	False	70	(-3.7310746972406905, 3.8251843961888543)	(7.2004113624094668, 3.3188840954605929)	(1.2575903279200773, -6.537369538956451)	(-4.5420557966824955, 8.0266763928504155)	1.0	slash	1.0341
31	N	A	N	A					B	4	2	shapes	N	8	False	70	(5.3401034660000484, -6.82615865862451)	(-7.1877359518332122, -6.1894663381323598)	(-3.1297087759972664, 7.0345089117124573)	(5.4808378311342523, 4.1766544201191476)	1.0	slash	1.21409
32	N	B	B	A	A	N	M	M	B	8	3	shapes	A	8	False	70	(-8.1747804617070816, -2.6074859932396413)	(-2.9411911842494387, -3.4432794989437028)	(-2.450920826578125, 1.3048571262030499)	(8.5498800180568502, -2.8236273439609807)	1.0	slash	1.65581
