TrialNumber	stim0	stim1	stim2	stim3	stim4	stim5	stim6	stim7	stim.probe	ttl.stims	corr.num	trial.type	stim.corr	block	match	Subject	stim.pos0	stim.pos1	stim.pos2	stim.pos3	ran	resp	RT
1	M	A	N	A					A	4	0	shapes	M	Practice	False	71	(-8.3512092164296092, 4.0647607522398026)	(4.8250841293611177, -6.0102810644153966)	(-4.9071546700244335, -2.1113023848801067)	(8.0127306947162076, 2.8631379942918631)	1.0	slash	3.2935
2	N	A	A	B					B	4	3	shapes	B	Practice	True	71	(7.9588471351311334, -5.2179566921871725)	(6.1089220461119407, 3.4754680149981674)	(-2.1046244207896319, 0.43450665082953854)	(-6.9606992683278097, -4.0733877643024279)	1.0	z	2.10887
3	M	A	B	N	N	A	B	M	N	8	7	shapes	M	Practice	False	71	(-1.7354583996922388, -4.8949930927856595)	(-2.3381844752495491, 6.5708243229934329)	(7.2086318230314728, 5.2032629655021871)	(-8.3688469768668163, 3.1123819044279752)	1.0	z	1.92446
4	M	A	B	M	A	N	B	N	N	8	7	shapes	N	Practice	True	71	(3.8387444646706115, -0.32228976800808695)	(8.2945883132170017, -4.6136645302701886)	(-4.9071630601331204, -2.1382873430293596)	(-7.1545825215599868, -6.284356480169035)	1.0	z	1.56805
5	M	A	N	B					A	4	2	shapes	N	Practice	False	71	(4.1303376717648455, -8.3589286180339126)	(3.4219258635372718, 7.6099045883538459)	(-7.7642665624071121, -3.2019706066829476)	(-6.701256913523288, 8.7206379448543636)	1.0	slash	1.82366
6	N	A	A	N					N	4	3	shapes	N	Practice	True	71	(0.33173729742145852, 6.9429340196438325)	(-3.391950558841355, 1.1264819351148283)	(7.6105072746106401, -1.553481854857079)	(-0.99673350845549535, -7.2584163006440612)	1.0	z	0.933256
7	M	A	B	M	A	B	N	N	N	8	1	shapes	A	Practice	False	71	(0.50210611873390576, 2.9184317876155674)	(6.3648066645836163, 8.3482876300981417)	(5.9020797378336933, -7.7980711580265201)	(-2.7966230663383609, 6.3785014335364032)	1.0	slash	1.84681
8	M	A	N	M	A	N	B	B	N	8	5	shapes	N	Practice	True	71	(0.15285525578492809, -5.9908697468753518)	(5.8751619414167155, -3.5425365334740659)	(-3.3938064893968241, 8.4597549239108787)	(-7.7928392679753804, -1.3907029673320332)	1.0	z	1.0505
1	M	B	B	N					B	4	1	shapes	B	0	True	71	(3.1678218245722967, -8.7221084300041198)	(-7.7710005848573669, 3.9607609900150305)	(-1.7085011725445192, -0.2739766059741946)	(8.6532915133042394, 1.8150879633751451)	1.0	z	1.03575
2	N	A	B	B	M	A	M	N	N	8	0	shapes	N	0	True	71	(4.0299144091751096, 4.0983297136475549)	(6.3330468364969636, 8.7331724299070146)	(-0.15186466886861005, 4.260535606731942)	(-5.9296206135798872, 7.0775458137081984)	1.0	z	1.43928
3	N	B	M	A	A	M	B	N	M	8	1	shapes	B	0	False	71	(-5.0658637277319141, 3.8549343186509972)	(3.6379728786849412, 0.68239532022171012)	(-4.8142433871878172, 8.2661988992586295)	(-6.599605444251428, -1.0346835406932442)	1.0	z	1.29287
4	M	A	B	B					M	4	3	shapes	B	0	False	71	(-7.663145060848402, 4.0399517927550406)	(5.4782973045145713, 6.4536194174969594)	(-8.0232558748714826, -6.6350139641920132)	(3.2825616898250765, -8.4351078938927682)	1.0	slash	1.38073
5	N	A	B	A	M	M	B	N	A	8	7	shapes	N	0	False	71	(-2.7936121291228666, 5.6266193963879605)	(7.5693269075437613, 1.637007893255392)	(-4.3814744726970947, 0.62258987395072474)	(-1.6933946843322349, -4.5994915214845999)	1.0	z	1.07018
6	N	A	A	B					A	4	2	shapes	A	0	True	71	(3.5938600084541132, 5.9226547820047077)	(-2.6820448832600263, 7.8652333349456356)	(-6.7850517837043682, -6.0604616895723682)	(6.1663220384692128, -2.6826325653439795)	1.0	z	0.681744
7	N	A	B	A	N	B	M	M	B	8	3	shapes	A	0	False	71	(-7.253358279698376, 0.66330098460252707)	(-7.2588654223817617, -7.684506293684839)	(0.56573716190127854, 2.2753079184355958)	(7.1294823765530335, 7.1657211889214913)	1.0	z	4.86135
8	M	B	N	B	A	A	M	N	B	8	5	shapes	A	0	False	71	(1.424946337203771, -7.5767978276219754)	(5.8412766540322778, -4.2204344558980802)	(7.3171705635743578, 4.4329928221908279)	(-7.761300314183603, 8.5614811051702162)	1.0	slash	1.90275
9	N	B	B	N	A	A	M	M	A	8	4	shapes	A	0	True	71	(-1.7098832453457478, -2.3017811119729368)	(4.3500415926286866, 5.6126030901704578)	(-7.1464485396457125, -3.2409436976779302)	(6.2761557253118205, -8.7130358234190872)	1.0	z	0.894493
10	N	B	A	B					A	4	1	shapes	B	0	False	71	(-2.4071977791933294, -6.4476613130811797)	(7.7109081189964499, -2.5800649260343622)	(-0.46363782399603082, 1.5505805796540084)	(3.9216153333979502, 2.1969125806079628)	1.0	slash	1.19013
11	N	B	M	N					M	4	2	shapes	M	0	True	71	(4.2235315920581407, 1.7279660718421503)	(-4.4904790629321596, -5.6094296531331356)	(-6.3202872692780137, 1.3811586324860272)	(0.42911741476839538, -0.83123490534889921)	1.0	z	1.36971
12	N	B	N	A					M	4	2	shapes	N	0	False	71	(-1.8771406834630282, -1.0769267612666669)	(-1.9094283379991834, 6.3609833678835823)	(5.04673586545338, -0.30066420280801864)	(1.9977927206204562, 3.591050469314041)	1.0	slash	1.51329
13	M	B	A	N	B	M	A	N	A	8	6	shapes	A	0	True	71	(-2.7867920682609277, -3.8353347173825671)	(8.6427182455009373, 2.9128348558920614)	(-2.7083149894147001, 1.6171493729971456)	(-8.0937985672945629, 7.9868111693121939)	1.0	z	1.06888
14	N	A	A	B					N	4	0	shapes	N	0	True	71	(3.0418533434620709, 5.2839119221806516)	(-5.7259368930508536, 0.81568250721535662)	(-7.7231904268475668, -4.594720185461993)	(7.8703960331109855, -2.9733912259515591)	1.0	z	1.28063
15	N	B	M	M	A	B	N	A	A	8	7	shapes	A	0	True	71	(-4.5738540945464985, 2.9358970923522882)	(-7.4617581415709964, -7.8807652434439177)	(7.0873343642619648, 4.5574056152998814)	(-1.0814183143390039, 0.47005800392181918)	1.0	slash	2.10211
16	M	A	N	B	N	B	A	M	A	8	6	shapes	A	0	True	71	(-6.7841472018450224, 7.7403369028623139)	(5.8040324930111247, 5.0167059740675786)	(8.7185854578250392, -8.2256426118786656)	(-2.0103238574834856, 7.7992442209851163)	1.0	z	1.55772
17	N	A	A	N					M	4	3	shapes	N	0	False	71	(3.8572031798862945, 3.3334363726419625)	(0.36789783635722095, -3.7944613828480458)	(-6.4334293560582116, 5.3383839886795084)	(-8.1735882772196842, -0.9422345683916804)	1.0	z	1.96734
18	N	B	A	M					B	4	1	shapes	B	0	True	71	(-4.4853929925699081, 2.9911814730915651)	(-5.584775852538133, -3.7798432651839677)	(4.3719513893494995, 6.4683628400213227)	(4.0580466611668307, -7.1001579110361028)	1.0	z	1.10482
19	N	A	A	M					N	4	0	shapes	N	0	True	71	(4.9122554866872203, 0.56341032069488683)	(-6.1996496792063063, 8.4835780602189885)	(-8.6270112653416398, -7.4315163736516627)	(3.44596124604465, -4.2575479242131449)	1.0	slash	3.91835
20	M	A	B	N	B	A	M	N	M	8	6	shapes	M	0	True	71	(6.6722677977642135, 0.66751993195112824)	(-5.7848419705932965, -6.6074997129956996)	(-6.1305987634419585, -0.46112570371920114)	(-3.0940880006088971, 3.789090469937161)	1.0	z	1.53794
21	M	A	A	M					N	4	2	shapes	A	0	False	71	(1.7486361160470878, -5.3371569039595332)	(-8.6900545621240255, 1.2907226456090761)	(6.4043597727313823, 3.3287740209523324)	(-6.0205868085079768, -6.2595884686761263)	1.0	slash	1.60746
22	N	A	A	M	B	M	B	N	N	8	0	shapes	N	0	True	71	(7.8859979289669262, 0.13973103151797162)	(-7.0114335664293632, 5.6618287754259562)	(-3.2077668660115952, -3.5553277148903648)	(7.4873848882003955, -4.4390165331406299)	1.0	z	1.52313
23	N	A	A	N	M	B	B	M	A	8	5	shapes	B	0	False	71	(1.8172327874283454, 0.79721632163723655)	(6.0134641315406832, 3.9378625038709885)	(-5.759977537929803, 2.681864080097343)	(-5.5299835368633259, -2.1734883808869698)	1.0	slash	1.38867
24	N	B	A	A					N	4	2	shapes	A	0	False	71	(-7.753290694438963, 2.2483401801015326)	(4.1558457220865677, -4.7634315214437954)	(6.4110130486957484, 1.0767076260426105)	(-8.255767672093981, -5.2812890446131142)	1.0	slash	1.20015
25	N	A	M	N					N	4	1	shapes	A	0	False	71	(-3.4120321393609201, -4.3635940712320389)	(8.1396569152111482, -4.1693950687232144)	(-2.1389800240459111, 2.7408683765691961)	(5.1468743286342864, 8.7020373251600383)	1.0	slash	1.01824
26	N	A	M	M	B	N	A	B	M	8	1	shapes	A	0	False	71	(-7.7053232861923417, 7.4306806467293463)	(-3.7029581170838375, -3.2982365757770173)	(-1.604490559124975, -7.5213951343951582)	(-5.3794357903072862, 3.8117198405813291)	1.0	slash	1.67355
27	N	A	N	B	A	M	M	B	M	8	6	shapes	M	0	True	71	(7.2041479900963523, -2.0001656639548182)	(-0.19476954320744433, 2.0598523642496716)	(6.8342640524487113, -7.8639693064337939)	(2.5649787199967164, 7.519036998855352)	1.0	z	1.14304
28	N	B	B	N					M	4	3	shapes	N	0	False	71	(5.0365669791441654, 3.3625776699539482)	(2.1051402637414984, -5.3618129010646802)	(-7.1371679965765251, -5.2460421242497883)	(-2.938120474712413, 8.5949966881798296)	1.0	z	1.40476
29	N	B	M	M					M	4	2	shapes	M	0	True	71	(-0.75675500273578145, -3.7634928928888716)	(1.383778557394475, 3.2592709118092955)	(4.2206250528060973, -0.91117312063326494)	(-6.1266241748934966, 8.1162196231017738)	1.0	z	1.30231
30	N	B	B	A	N	A	M	M	B	8	5	shapes	A	0	False	71	(-8.1432984102754862, -0.088952037086775348)	(-5.9563520796605491, -4.309116426240025)	(-4.8369589328768914, 3.2723503717857714)	(0.56081286387314577, 0.96598560770463671)	1.0	slash	1.03588
31	M	A	M	A	B	B	N	N	B	8	1	shapes	A	0	False	71	(8.3702537944356976, -6.9195930457167867)	(2.4526847274247583, -7.0546291808011006)	(2.800662395510841, 0.40846173574934852)	(-6.0225742399928315, 1.6146296827690598)	1.0	z	1.78353
32	M	B	B	N					M	4	0	shapes	M	0	True	71	(-7.4673514437446302, -0.60620986913680674)	(7.9959102469726062, -5.6461201875865221)	(-3.5217925116149749, 7.554025150675848)	(6.1044217970194818, 6.1091860646073677)	1.0	z	1.45309
1	N	B	A	B					N	4	3	shapes	B	1	False	71	(-2.419232467381101, 0.69718115090419275)	(-8.5928134585375631, -4.5648580237752574)	(2.6873784742571676, -8.0949094271360025)	(3.5990164061720193, 1.1823218706920997)	1.0	slash	1.37674
2	M	A	A	M					M	4	3	shapes	M	1	True	71	(-0.90295681847323905, -0.5485092384348409)	(2.6975008433481129, -4.1968786078936109)	(-1.5244380381434857, 4.4521864995264124)	(5.9618312254980506, 1.4027428846771599)	1.0	z	1.17634
3	N	A	N	M	M	B	A	B	N	8	5	shapes	B	1	False	71	(-6.2273199306469262, -7.9465558997500514)	(0.47276881634332568, 2.3690821505537372)	(-3.1181016197923075, -4.1601983009440247)	(-3.7262147372296015, 8.0451974868487959)	1.0	slash	1.53803
4	N	B	B	N					N	4	0	shapes	N	1	True	71	(-2.2912447450119284, -1.8504743972602178)	(3.3747665391928869, 2.3141182886027121)	(-1.8878841791521968, 8.5940924756221371)	(8.5725843191379916, -3.1667632898519242)	1.0	z	1.31965
5	M	B	M	A	A	N	N	B	A	8	3	shapes	A	1	True	71	(-8.1998823102351075, 5.2783726511130986)	(4.3140490286998023, -3.5544942187798307)	(0.0075927923478573689, 1.4115568705484094)	(5.3241439027196229, 6.2325319505496761)	1.0	z	1.53326
6	N	B	B	N	A	M	A	M	N	8	3	shapes	N	1	True	71	(-1.4740756347481527, 7.6297347030305822)	(6.7304270487743025, -2.3762240190537094)	(-4.4219939952898502, -7.0526766338590976)	(-0.97911543925262112, -4.0286974987976345)	1.0	slash	1.41269
7	M	B	M	N					B	4	0	shapes	M	1	False	71	(-7.9484696453106256, 4.5359651813895265)	(2.516105526691863, 8.4959380447491455)	(6.0325228877884989, -0.9929962364938909)	(-1.9160120967454564, -0.5489098390011371)	1.0	slash	1.25237
8	M	B	A	B	M	A	N	N	A	8	6	shapes	N	1	False	71	(-6.7801475476576094, 1.794926525861932)	(0.78309211373772669, 0.44918131999969546)	(-8.0327448427599695, 7.1700051017356259)	(-4.1823380895103526, -2.1631980125779489)	1.0	slash	1.54203
9	M	A	M	A					M	4	0	shapes	M	1	True	71	(6.9131622772896382, -4.6908757971125246)	(4.1853041482604603, 7.9800435981259099)	(-6.673857680483966, 4.4669382073642261)	(-5.6900882596949556, -5.7421778322607633)	1.0	z	2.21968
10	M	B	A	A	N	N	B	M	A	8	3	shapes	A	1	True	71	(5.3669474486049182, -1.1199987809366885)	(1.8064272303422708, 4.3770137582577107)	(-7.0558910640111154, 6.7891295038091517)	(-0.3167711183254891, -1.1849682846521841)	1.0	z	1.11723
11	M	A	A	M	N	B	N	B	B	8	5	shapes	B	1	True	71	(3.6332059670585988, 1.1816169344273462)	(-4.5809936730328777, 2.8695785782714633)	(0.85050000295220407, -1.7542498806624431)	(-0.23821184454606126, 7.2672418959761309)	1.0	z	1.69885
12	M	B	N	A					B	4	3	shapes	A	1	False	71	(6.2123737960830407, -5.5305975410679444)	(-1.1141034812813633, 4.4400529389996475)	(4.2059220974606273, 0.11815843927364966)	(-8.4897539165937239, -4.2748890096077314)	1.0	slash	1.48046
13	M	B	M	A					M	4	1	shapes	B	1	False	71	(0.94478509018805745, 5.9320161674129288)	(-5.9927155917785075, 8.5234547508217098)	(-0.32088107710441882, -8.1941918025639726)	(2.0910083936949828, -1.3326567103456828)	1.0	slash	1.36193
14	N	B	B	N					A	4	2	shapes	B	1	False	71	(-5.0531472110786293, 4.3809681081191769)	(8.2819179833987171, 3.5872702042730094)	(-3.5039332441060322, -1.6959464309487302)	(3.5159372649215879, -2.5135372265455098)	1.0	slash	1.35565
15	N	A	N	B	M	A	M	B	B	8	3	shapes	B	1	True	71	(7.3511473942701073, 8.5365158977865434)	(2.2047348369476882, 2.8357446224141682)	(-7.7617517775836511, 8.2195363044598402)	(-6.6673206199229735, -6.8259526188629218)	1.0	z	1.16922
16	M	B	N	M	A	N	A	B	B	8	5	shapes	N	1	False	71	(-6.3001147892563871, 4.6538519329241286)	(-1.317529982453606, -6.5735629958916864)	(6.188802813493961, -1.2637640260821579)	(6.1904151274394259, 7.3847565494736926)	1.0	z	1.77282
17	N	A	N	B	M	A	B	M	M	8	4	shapes	M	1	True	71	(3.3283058813573785, -8.7190028660105376)	(-1.7147908408219541, 0.78052315495184743)	(-1.5630115284826287, 7.637055007489824)	(5.3906752811333138, 0.27800239036760566)	1.0	slash	1.70035
18	M	B	M	N	A	N	A	B	A	8	5	shapes	N	1	False	71	(-3.805957260474564, -0.83190429274453415)	(6.0806619860500728, 1.6503029326686356)	(4.172352390847001, -6.7140980218473434)	(-8.2688164501758568, 6.611896454109166)	1.0	slash	1.60607
19	N	A	B	A	B	M	M	N	M	8	4	shapes	B	1	False	71	(-0.53744026014270396, 6.9279386487587473)	(4.342873960759178, 6.0971052140834061)	(1.1256320589709663, -7.721747483651658)	(-6.052678004502174, -4.3463911851741255)	1.0	slash	1.45767
20	M	A	N	N					M	4	1	shapes	A	1	False	71	(-4.178064753268016, 3.5776284689089763)	(7.1877797739687956, 2.2948396342018977)	(-0.1439169450643849, -8.6772148844965589)	(6.8230199695034734, -3.2032635066226849)	1.0	slash	1.409
21	M	A	N	B					B	4	2	shapes	N	1	False	71	(-4.0330718241721843, -1.6047165140411987)	(4.7453107304081286, -8.4806370046629951)	(-1.1439207562126112, 6.2827097079081025)	(5.8973953640380223, 6.5211576015926145)	1.0	slash	1.21676
22	N	B	N	B	M	A	M	A	B	8	2	shapes	N	1	False	71	(1.8412488579706405, 7.0681258174059298)	(-1.6030509405351214, 1.95221813010604)	(-8.5692103179310184, -1.1063490863409893)	(7.0557429436016577, 3.376801577455316)	1.0	slash	1.25053
23	M	B	N	A					A	4	3	shapes	A	1	True	71	(0.32459945273392954, 7.0192669742007077)	(-4.5173009809034781, -7.2821557691615695)	(-3.8622052365877213, 8.0946245238103316)	(0.62448434921923734, -3.762786942342589)	1.0	z	1.09007
24	M	B	N	M					B	4	1	shapes	B	1	True	71	(-0.96160990509682431, -8.0738542996997698)	(2.1212342148700696, -3.8410724359644872)	(-3.7267547873616378, 5.537991825405097)	(7.6634878250620098, 1.4033567824792357)	1.0	z	1.23364
25	M	B	B	M					B	4	1	shapes	B	1	True	71	(-2.2424527133606169, -5.5904994060929454)	(8.0187376358225677, -8.5039087536472007)	(-2.1879899876003792, 6.3390922440377739)	(6.4051183599118335, 1.5878056302193304)	1.0	z	1.19741
26	N	B	A	M	A	B	N	M	M	8	7	shapes	M	1	True	71	(-1.7567769095555148, 6.6424701222821092)	(4.5525554108119817, 0.13946284984472257)	(-0.14878581560247994, -2.9951748474542246)	(4.9402065224016045, -5.0271534341556876)	1.0	z	0.984938
27	N	B	B	A					N	4	0	shapes	N	1	True	71	(3.0189076578090841, 1.6444588477714532)	(-3.6828174855889202, 3.0862450353616193)	(3.8833078996906565, -6.7789291805446474)	(-5.8472671997520429, -4.2539132063865175)	1.0	slash	1.19848
28	M	A	M	N					A	4	1	shapes	A	1	True	71	(4.4318041968525712, -7.673340727982918)	(-1.9671679808222216, -4.1930089920922811)	(5.5599590028070622, 6.6888245437899432)	(-6.8458784499277474, 4.410121302727843)	1.0	z	1.66414
29	M	A	M	N	N	B	A	B	A	8	0	shapes	M	1	False	71	(5.9471863799479721, -8.5648874682266349)	(8.499985068189293, 7.8576300433862301)	(1.6668329118891183, -1.536067966684671)	(0.55279130086183947, 3.2571717322709475)	1.0	slash	1.39784
30	M	B	A	A					N	4	2	shapes	A	1	False	71	(1.7823722610441735, -7.4738362602402137)	(-1.3417795652314313, -0.72965758274519033)	(0.29517861316377036, 5.6062452478760516)	(-7.4454485090226896, 6.0718252585798158)	1.0	slash	1.98338
31	M	A	B	B	A	N	M	N	M	8	0	shapes	M	1	True	71	(2.1588321672833111, 3.8263299159790005)	(6.71603164167899, -8.4485427217386757)	(0.039214359378402008, 7.8800890989260211)	(-3.7804923680182405, -2.3373668934371166)	1.0	z	1.25499
32	M	A	N	A	M	N	B	B	M	8	5	shapes	N	1	False	71	(2.5703121624360623, -8.3848029236400059)	(0.72232396828449552, 0.87273734831345351)	(-8.5527025888365014, 0.87326295581168267)	(4.9208688896471582, -1.087653818422087)	1.0	z	2.17655
1	N	B	M	A	M	B	A	N	N	8	7	shapes	N	2	True	71	(-0.19889844457391348, 5.9553300839909298)	(0.15623566497330366, -8.1431440212101478)	(-5.0183878290169481, -3.4419056369737309)	(6.6207598637229097, 4.8107539461291271)	1.0	slash	3.4539
2	N	B	N	B					N	4	0	shapes	N	2	True	71	(-4.5829141467493075, -2.7610278925994072)	(-6.5772941114045391, 6.0697117261930558)	(5.0557090560205005, 8.3464086592170048)	(1.6983365059792721, -2.8170554182507646)	1.0	z	1.14151
3	N	B	M	M	A	B	A	N	B	8	6	shapes	A	2	False	71	(-7.3944624355395936, 1.0379145793420896)	(3.9455438471478814, 4.5849225597071097)	(-3.7192599360133753, 3.2033970737322814)	(8.6339774525835331, 3.7182129372278201)	1.0	slash	1.8771
4	N	B	M	A					B	4	2	shapes	M	2	False	71	(2.3691009518860398, 7.4969603231670341)	(1.2167213670084891, -6.2542872600196837)	(-5.8711732834168346, 5.2127324284641006)	(-3.0248920870060001, -3.8389987800936414)	1.0	slash	1.8967
5	N	A	N	M	B	A	M	B	N	8	5	shapes	A	2	False	71	(6.1917193012162812, -7.6708863675711729)	(2.1824314098044137, -6.4370145742368932)	(-0.025733286443450964, 2.4712207641722301)	(-6.2120343594847238, 0.8685385984260936)	1.0	z	1.32236
6	N	A	B	A					B	4	2	shapes	B	2	True	71	(-7.1468214063790088, 5.0777590140284019)	(7.7311932683339784, -7.9252160706258232)	(7.7742555564676969, 2.6595267446983826)	(-8.2462981815525396, -5.4446388171284434)	1.0	z	1.05206
7	N	B	M	N	B	A	M	A	B	8	5	shapes	A	2	False	71	(7.2092638771254975, 6.3353587952845238)	(-7.6082746301275535, -7.170970673123847)	(-2.656525619131469, -2.9443430071513994)	(8.1976003486432774, -3.140712194569943)	1.0	slash	1.38951
8	M	B	B	N					N	4	3	shapes	N	2	True	71	(3.5693245871628836, -4.2794429901150517)	(1.4659869752706491, 6.5857044838340464)	(-0.83122695050924555, 1.8217566107678618)	(-1.0754586751124888, -8.6716238908865257)	1.0	z	1.52128
9	N	B	B	A	N	M	M	A	M	8	6	shapes	M	2	True	71	(-3.5743952841369939, 0.90506124841441604)	(4.7572149685257052, -5.5463133147576968)	(0.8304231801111257, -8.0222640535173984)	(-1.4264895745014075, -3.607745696368112)	1.0	z	1.12074
10	M	B	N	B					M	4	1	shapes	B	2	False	71	(-4.8319437570583599, 6.8162283668083905)	(1.7169522902291767, -3.9935808310237864)	(-4.0397141581372127, -0.49137933082500851)	(4.9097872333653232, 0.10328270682743224)	1.0	slash	1.51444
11	N	B	M	M					N	4	0	shapes	N	2	True	71	(0.51497556212629902, 2.0019997448304192)	(-3.5047989902477257, 3.2787732509781833)	(-2.6338321483970857, -7.8899010325568275)	(4.1074044612503684, -1.0460559031450325)	1.0	z	1.24622
12	M	A	B	A					N	4	0	shapes	M	2	False	71	(-5.7363203677660195, 3.4273049385461931)	(2.589490316205147, -2.2052550188299973)	(-8.6770844427832081, -0.85573025823002435)	(0.80365949741011455, 3.7328944708930525)	1.0	slash	1.41558
13	N	A	B	B					B	4	2	shapes	B	2	True	71	(4.0790802862557793, 4.2335598600406126)	(5.80531090139994, -5.8930049326323202)	(-2.4210157205399847, -7.9715159313491508)	(-5.512723350449857, 2.5184142838855514)	1.0	z	1.14307
14	N	B	M	B	A	A	N	M	M	8	7	shapes	M	2	True	71	(-2.8494777895346584, 8.0863605012111357)	(-7.6994231343650954, -8.038695683407834)	(-8.3254840427098404, 0.04534007364559578)	(5.4414602403695032, 3.6071362292747029)	1.0	z	1.07076
15	N	A	A	M					B	4	1	shapes	A	2	False	71	(8.7275027599244233, 2.1027449143207768)	(-7.5097475738072834, 4.1333713526603404)	(1.1749319114988754, -7.552500510370467)	(-6.5458354774342169, -5.0119418777231592)	1.0	z	1.29059
16	N	B	B	A	A	M	N	M	B	8	7	shapes	M	2	False	71	(-1.440501425743915, -0.72496623574548025)	(-3.3631451745280989, 4.1008121378165789)	(-8.2254688204275173, -6.3447926992490675)	(-7.8647135147372023, 6.6920597498397392)	1.0	slash	1.93202
17	M	A	N	M					M	4	3	shapes	M	2	True	71	(2.1609895418763934, 0.63120889752820375)	(-5.9596399512172233, 2.2424292390099403)	(0.89808234517483321, -8.3358347145333642)	(-6.6174211613284477, -1.8124755878864507)	1.0	z	1.17164
18	N	B	N	M					N	4	0	shapes	N	2	True	71	(8.5701308080399201, -5.9562810941093041)	(-4.2389032024234092, -6.9487902839399336)	(-1.4020095829334185, 4.9897810206026492)	(6.2196374800380294, 2.1664181864360597)	1.0	z	1.11528
19	N	A	M	N					N	4	0	shapes	N	2	True	71	(3.7690931966058514, 0.16067046263564322)	(-7.5356291650293379, 7.4856989988531666)	(5.1181974047370247, -6.3694811308804997)	(-4.2668045661389655, -5.7315546060274665)	1.0	z	1.17508
20	M	A	B	A	B	N	N	M	M	8	7	shapes	M	2	True	71	(-3.2808767118342246, 2.1723530801254185)	(2.5325570157980373, -7.8368152133581761)	(-2.107259169298227, -4.6365905928738176)	(1.5779531475900175, -3.059630037587155)	1.0	z	1.29664
21	M	A	B	B	M	N	A	N	N	8	4	shapes	M	2	False	71	(-2.7872538747539135, -0.51928129830189107)	(3.0216540033026238, 0.37277583801185976)	(7.5121451809169244, -7.1690313553289835)	(5.8061516515035176, 5.9899913482713476)	1.0	slash	2.2821
22	M	A	N	M	B	N	B	A	M	8	0	shapes	M	2	True	71	(-4.2812510082870059, 4.606464218776166)	(-8.4815705332118192, 6.0762112761467471)	(5.4936731484799779, -1.6216620823129375)	(6.9614124974557701, 8.1547589427078222)	1.0	z	1.4617
23	M	B	B	A					B	4	3	shapes	A	2	False	71	(1.8003305586383629, 5.9542407468217604)	(7.4255542821204088, -7.2454113697175853)	(-2.3450424126388869, 3.6921186617695732)	(-8.7462927067001512, -3.653959158132519)	1.0	z	1.1634
24	N	A	M	M					A	4	3	shapes	M	2	False	71	(-2.5136171171986286, 7.7523078486677619)	(3.5038078583732393, 4.0588458739423618)	(3.3590735437987167, -6.035621156099352)	(-5.1879625387659329, -0.91899839725760746)	1.0	slash	1.31698
25	N	A	B	B	M	N	M	A	B	8	2	shapes	B	2	True	71	(6.9377200906488135, 2.2160217120312389)	(2.7392856389936959, 1.3673559036479315)	(-7.9546441052499768, 8.145099867849396)	(-3.569165552765865, -7.4783031898624319)	1.0	z	1.50457
26	M	A	N	A	N	B	M	B	M	8	0	shapes	M	2	True	71	(-3.3670497190603985, 2.4977608306506873)	(5.0017080439377857, 4.8982547992555396)	(-0.94758383800785673, -3.4611727765690894)	(-7.4645319974620277, 2.2467321447911797)	1.0	slash	2.72802
27	N	A	M	M					A	4	3	shapes	M	2	False	71	(3.9575296665570132, -5.7157243676998064)	(-0.11806168801078165, -8.0563569941395308)	(2.070064342800146, 1.521609031683953)	(-3.1594970989315341, 2.6780648051447002)	1.0	slash	1.31144
28	M	A	N	M					A	4	3	shapes	M	2	False	71	(-8.6325773421899861, -7.8831123588449437)	(7.2822807094961206, -7.1618137462455795)	(4.0565463769920616, 0.28928218490793434)	(-7.0790939211077495, 0.51163018822155593)	1.0	slash	1.20323
29	N	A	B	B	A	N	M	M	M	8	4	shapes	A	2	False	71	(0.85836427234411161, -3.6337943600780926)	(3.4365494882467917, 5.2334035753317956)	(6.2523985451697897, -3.4874288627237524)	(8.7022882800673393, 6.6670179419925848)	1.0	z	2.02287
30	M	A	M	A	N	B	N	B	M	8	5	shapes	B	2	False	71	(-2.4640599936155478, -1.7516123611757539)	(-8.4996705904268754, -6.7629817239627457)	(-2.1854755037419613, 5.1103938802316069)	(2.112506031124239, -1.6649136134622751)	1.0	slash	1.42246
31	M	B	N	M	B	A	A	N	B	8	7	shapes	N	2	False	71	(-0.29957436792199488, -1.6045294130074348)	(1.3803240473854466, 3.1092428405681449)	(-7.7477085340337002, 2.3097530672014237)	(8.558697158842012, 4.7510224156966494)	1.0	slash	1.18993
32	M	B	N	N	M	B	A	A	A	8	6	shapes	A	2	True	71	(-2.429125729865846, -8.1120953020325288)	(5.6529197155164539, 0.19394514662369033)	(-7.5155647931361909, -2.7067168040269118)	(3.3192452213144517, -6.212974338828321)	1.0	z	1.10971
1	M	B	A	N	B	N	M	A	B	8	1	shapes	B	3	True	71	(2.7197588628114318, -3.1373760614647752)	(-1.6611533222677934, 1.6590296843726904)	(-3.195328496701169, -3.3836243819083229)	(6.9139082473346374, 5.7948929450087778)	1.0	z	1.42547
2	N	B	A	A	N	M	B	M	M	8	4	shapes	N	3	False	71	(-4.6041029024708822, 5.0054166610240376)	(8.2206177141312082, 5.266421163995215)	(1.0614031253440039, 6.533191860742269)	(-6.6649893365524679, 1.2161052611766578)	1.0	slash	1.48685
3	M	A	A	M	N	N	B	B	B	8	5	shapes	N	3	False	71	(8.3586929300884663, -1.4311720354277879)	(-2.0315887234399366, -2.1468997201742255)	(-1.6540919283813693, 4.7936888915004747)	(3.8111001628646974, -4.4261614516347203)	1.0	slash	1.36061
4	M	A	M	B					B	4	1	shapes	A	3	False	71	(0.48154584226045571, 2.9057493406714752)	(0.057271621875491618, -8.5438926679375822)	(-6.0536542624670924, 6.0155209993986105)	(-6.000942142851704, -3.9171541144978317)	1.0	z	1.17013
5	N	A	N	M					A	4	0	shapes	N	3	False	71	(-2.1775333093868419, 0.34074818105302462)	(-8.5474956649351785, -0.96773538144337934)	(5.8736880197634953, -4.455339853755321)	(1.5311813678054467, 5.8989695619070552)	1.0	slash	1.52975
6	M	B	M	N					M	4	2	shapes	M	3	True	71	(-7.4764960095535216, -7.4392104075530563)	(0.71886355490480902, 8.6170565666144334)	(-5.862263524510956, 0.69439228099198758)	(0.39060962470386507, -4.6038139691833218)	1.0	z	2.28935
7	M	B	B	N					M	4	1	shapes	B	3	False	71	(5.8135131544785352, 3.475511493095615)	(4.8466686910320629, -4.1792378452870569)	(-1.7868452923670466, 0.78490682828524605)	(-1.90302426637707, -7.8247363903670504)	1.0	z	1.929
8	N	B	N	B	M	M	A	A	B	8	3	shapes	B	3	True	71	(0.41036730787653752, -2.6448432105105617)	(-2.4795963709473048, -8.5851824196587199)	(-0.12628463343620666, 3.9650076214768823)	(-4.1047881996458191, 7.906296521772525)	1.0	z	1.44426
9	N	B	B	N					A	4	0	shapes	N	3	False	71	(5.5466157505159419, -1.2855740757190279)	(-0.083549585813814886, 2.5105995508373837)	(-5.8863679673489333, -7.8843473477659485)	(2.2091742269140564, 8.0512524847412692)	1.0	slash	1.34971
10	M	B	N	A	M	B	A	N	N	8	2	shapes	N	3	True	71	(5.2012016488000974, -6.3268390567442498)	(-1.2717982612173628, 6.078528223215983)	(-6.1767689638797867, 7.2176664104152888)	(-7.8051969295611228, -1.5467505039892684)	1.0	z	1.81358
11	M	B	M	B					B	4	0	shapes	M	3	False	71	(6.8854231038622995, 7.3896664155617984)	(1.5535753229570659, -3.391929455625605)	(-8.0699875484129322, 5.2000930091808275)	(-1.8042844164979215, -6.4931424446317472)	1.0	slash	1.36528
12	N	A	A	B					N	4	0	shapes	N	3	True	71	(-6.2236777980720479, -1.5525410502415911)	(-1.155079826079616, 6.6424274112918891)	(4.4592871655915598, -7.3533445775830177)	(7.727000556778723, 1.631595436296605)	1.0	z	1.51084
13	N	B	M	N					B	4	1	shapes	B	3	True	71	(-8.4979147088940152, -4.2343201147720499)	(-2.9385059045488138, 1.0618986842178142)	(3.324303724631374, -8.500296517945177)	(7.5019256743978033, 1.1041728411162772)	1.0	slash	1.73635
14	N	B	M	A	B	A	N	M	A	8	3	shapes	A	3	True	71	(3.7220004302046714, 4.4043246426840366)	(-6.4721170537717967, -1.1426077716176559)	(-0.58959759051839633, 3.5525681719221875)	(-2.6981235632626603, -3.7407500203048043)	1.0	z	2.11604
15	N	A	B	A					N	4	0	shapes	N	3	True	71	(-6.4103158105140263, 6.6386144369031701)	(4.3395034087832247, -5.5059508143631444)	(-8.1957593918307232, -7.4939396258849857)	(2.7387121702178856, 7.0771786668897398)	1.0	slash	4.70361
16	M	A	N	M	B	B	A	N	M	8	6	shapes	A	3	False	71	(-3.6689560275514337, -2.2961834869203033)	(2.5395465744660282, 6.7300666206162543)	(-4.929882800109862, 3.8196139712174713)	(5.5356866267957496, 3.8616361523810276)	1.0	z	1.04675
17	M	A	N	A	M	B	N	B	N	8	1	shapes	A	3	False	71	(-4.1740472061250511, 8.3088101957974736)	(-2.3235912891367816, 0.052923639000276523)	(-0.61753153895954505, -5.3389063341842657)	(2.481098075333227, -1.7101940173292229)	1.0	slash	1.21068
18	N	A	B	N					A	4	1	shapes	A	3	True	71	(1.8271598933213014, -8.2729193811138835)	(3.212967749045843, 8.6233555345252419)	(-1.3018717952433461, -4.347590800031484)	(-6.4073649386805194, 3.2498229139239339)	1.0	z	1.16216
19	N	A	M	A	N	B	M	B	A	8	4	shapes	N	3	False	71	(-6.7573125235517324, 4.5853788165434981)	(6.7229620309599198, 0.19983551637311869)	(5.8698178035254109, 6.6999894785861258)	(0.97255171786870065, -5.8089031077672786)	1.0	slash	2.42967
20	M	A	A	N	N	B	M	B	A	8	1	shapes	A	3	True	71	(-0.49356017399713359, 5.6059021626285652)	(7.0647626957537195, 8.2636934882396851)	(-3.7760808951179392, -5.0486991810539177)	(-6.991116807029476, 7.9292615144036169)	1.0	z	1.21341
21	M	B	A	A					M	4	0	shapes	M	3	True	71	(-3.7871571205987635, -8.5085323714658188)	(0.7283551801134962, -4.1651070474647884)	(3.3790645232028904, 1.1065280752845723)	(-0.69189873711445138, 5.7389237122001955)	1.0	z	1.15699
22	M	B	M	N	B	A	N	A	B	8	0	shapes	M	3	False	71	(0.56103847720241795, 0.74876432280839111)	(-5.8648114958141351, 4.2049644786666853)	(8.1501197785988246, -4.0117409113799569)	(-8.0589417701291826, -3.0235965149393689)	1.0	slash	1.48858
23	N	B	A	A					A	4	3	shapes	A	3	True	71	(1.139345086552332, 2.7624185894151019)	(-6.1294389873795465, 6.1449604121522672)	(0.39927791733200735, -7.9269014229014747)	(-8.5434494047447629, -1.58000696179875)	1.0	z	1.02415
24	M	A	A	M	N	B	N	B	M	8	0	shapes	M	3	True	71	(-8.0857893378624226, -0.62640975956657385)	(0.20732755974421835, -2.8051132393188425)	(6.1926196489656249, 0.21772708438792776)	(-3.945564092265391, 8.1785462201920218)	1.0	z	1.06383
25	N	A	A	M					B	4	0	shapes	N	3	False	71	(-1.9540760625762763, 3.3634569327646275)	(-6.284045747352482, -5.2114349517123957)	(8.1263085951486964, 4.9607826156731072)	(3.7883441581239978, -3.883263690033453)	1.0	slash	1.28548
26	N	B	B	A					A	4	1	shapes	B	3	False	71	(-8.0415867936209686, 2.2030977021916431)	(8.2940781237651535, -0.90912781370072349)	(7.9969997315293355, 7.4257216270883042)	(-2.8906460677072401, -4.270930928869987)	1.0	slash	1.50324
27	M	B	N	A					M	4	1	shapes	B	3	False	71	(-4.8411292943053077, -0.089205628236852519)	(1.2403591871566313, -6.9282303582940585)	(-6.7194159271397673, 8.1060968082972664)	(4.6816651198253041, 4.2479968251646767)	1.0	slash	1.31661
28	M	A	A	N	N	M	B	B	N	8	5	shapes	M	3	False	71	(-5.0963479491804966, 5.2412141176322642)	(-8.2231291410402694, -2.5810589370646007)	(7.4018528310696574, 3.5359971907035828)	(-2.8806379762766223, -8.7192877488879237)	1.0	slash	1.53822
29	N	B	N	A	M	B	A	M	B	8	1	shapes	B	3	True	71	(7.8932030804301867, 4.3059625810967148)	(-0.31742313495583829, 0.53548168635979998)	(4.9397193374778272, -0.85198828288384121)	(-8.4675940571318336, -5.1772894625521744)	1.0	z	1.20391
30	N	A	M	A					M	4	2	shapes	M	3	True	71	(-1.6729068752957019, 2.4761452751707669)	(2.9525563703359037, 1.3608341471038141)	(-6.7106898329654845, -4.5841145208180718)	(3.6920762920976458, -4.5131339079655888)	1.0	z	0.997547
31	M	B	A	A	B	M	N	N	B	8	4	shapes	B	3	True	71	(6.0128578914333612, 2.2302423599661818)	(3.7602096593425696, -2.368370033837925)	(-1.9902186902440899, -5.8492182274620976)	(-2.886775979554117, -0.58745931101168125)	1.0	slash	1.82709
32	N	A	A	M	M	B	B	N	A	8	3	shapes	M	3	False	71	(4.0847143700838942, 8.0624336892818604)	(7.0788338771447954, -6.5873918603363073)	(-7.6094198878532264, -1.7502487680858572)	(1.7626192120810522, -8.5330073621122491)	1.0	slash	1.34676
1	M	A	B	A	M	B	N	N	N	8	7	shapes	N	4	True	71	(5.3709845634888325, -1.4106789094188201)	(1.9492716786571442, -5.1035381027738804)	(-8.3095591704831264, 4.7579794184313009)	(-2.8554764514706239, 3.425419939362742)	1.0	z	1.3004
2	M	B	M	N	N	A	A	B	A	8	6	shapes	A	4	True	71	(8.3575052445275375, 0.9484113601993247)	(0.44244574303077755, -3.7922351508849692)	(-5.5339697273257791, -6.8958161181766329)	(0.26195296379878386, 8.1099863436148745)	1.0	slash	1.61402
3	N	A	N	A	B	B	M	M	M	8	2	shapes	N	4	False	71	(-3.8710299870860814, 3.1950517269686749)	(7.5129369392471972, -1.4457743621181169)	(1.0702119505134213, 0.94305780240423509)	(-5.8973823681148962, -7.8111814363464838)	1.0	z	5.5514
4	M	B	B	N					A	4	2	shapes	B	4	False	71	(7.9112900651357165, 1.1523745981025666)	(-5.1276444730973711, 7.3423833898954278)	(-7.3357892703683101, -1.8327639371313298)	(0.42580452518779488, -6.2910462353367533)	1.0	z	1.0587
5	M	A	N	M					M	4	3	shapes	M	4	True	71	(4.9050994684127716, 7.3445512808889788)	(-8.1119409841471288, -7.9465117979647566)	(-6.833762149229293, 5.0785696608160293)	(4.6384422058127974, -1.2131729910088511)	1.0	z	1.55252
6	M	B	B	N					B	4	0	shapes	M	4	False	71	(-6.4165779760972352, 2.8507157774760046)	(0.68573252047250222, -4.1744567475167838)	(6.5904730386630881, 2.8218343894483784)	(-7.6365590608627629, -4.6995201180187101)	1.0	slash	1.20415
7	N	A	A	M					B	4	0	shapes	N	4	False	71	(0.77026429728048562, 1.6652934558129093)	(-5.8914427392707607, 5.4787686263566204)	(-8.2056416879587672, -6.3097544253278466)	(4.9315383175154217, -0.55991503592404612)	1.0	slash	1.02171
8	M	B	N	M	B	N	A	A	A	8	7	shapes	A	4	True	71	(5.8186507100449028, -2.5435570857379712)	(-7.5124944846527661, -3.4167128594897997)	(-8.0642111652234121, 7.5527374280827821)	(-2.409726491867648, -0.21948658429418977)	1.0	z	1.37939
9	M	A	A	M					M	4	0	shapes	M	4	True	71	(0.080823660135722619, -5.8991819692340624)	(-5.6656435630790458, -4.2769949754220642)	(-8.6202748465453443, 4.0445667954826501)	(0.62705487432496199, 0.5895144285692524)	1.0	z	1.14492
10	N	B	M	A	A	B	N	M	N	8	1	shapes	B	4	False	71	(-0.40847181889188455, 3.8272150393727014)	(-1.8447656726863988, -4.2856406886522924)	(4.9573210550971361, 2.361622490964864)	(5.7005492720789945, -3.8550572699856858)	1.0	slash	1.19245
11	M	A	A	M	B	B	N	N	B	8	0	shapes	M	4	False	71	(-5.3044243905846722, 0.12867087661872034)	(7.8778006309382747, -2.3083338804722828)	(1.1303499475918262, 0.6473170234506842)	(-6.6233453131869116, 6.7906257279149216)	1.0	z	1.83015
12	N	B	B	M	A	A	M	N	N	8	7	shapes	N	4	True	71	(6.2983446610236005, -0.14331746133461465)	(1.6699688408711371, -0.37648371400718439)	(-7.7825312903046324, 5.6314954774864674)	(-3.0968344898605409, -7.3219297828126813)	1.0	z	1.38764
13	M	A	N	N	B	M	A	B	A	8	2	shapes	N	4	False	71	(5.6309381699526853, 1.1490983967614081)	(2.1336828849402458, -1.7977820755913019)	(-7.7961148006037622, 6.2491427633909229)	(4.6606422800676306, 8.3696524066617535)	1.0	slash	1.24136
14	M	A	N	B					M	4	0	shapes	M	4	True	71	(-8.6788172620384447, -7.5340774721358938)	(2.4638772869195584, -0.4654525866779835)	(-5.1496635328531362, 4.9008000843720563)	(7.528042160313916, 6.852249476419189)	1.0	z	1.01894
15	N	A	M	N					A	4	0	shapes	N	4	False	71	(-2.3569883677968404, 0.17723685187268856)	(7.1575815877433975, -5.7607475327490363)	(-6.3320253993233822, -3.9195669987030453)	(5.5090458510856433, 7.5914010138607253)	1.0	slash	0.920651
16	M	A	B	N					M	4	1	shapes	A	4	False	71	(0.59359889119457954, -0.57260542590440089)	(-0.61992088328342732, 4.453456241935811)	(-6.0197757010449982, -0.84894706060027403)	(7.0795504167360548, 5.9377088215997595)	1.0	slash	1.30636
17	M	A	M	N					M	4	0	shapes	M	4	True	71	(4.8917249302591994, 3.310542916398953)	(6.2622450671881555, -4.0115813015684143)	(-0.00066093815046031068, 5.0266361746230999)	(-5.8441696307476407, -2.5093849845549352)	1.0	z	1.38382
18	M	B	B	A					B	4	0	shapes	M	4	False	71	(1.7803952134941223, 8.6516654933365302)	(-7.5302891744814406, -4.0963583894539601)	(-5.3502929917916031, 1.7281524388095821)	(1.5876401917773446, -7.1058271891916975)	1.0	slash	1.22145
19	N	A	A	N	M	B	B	M	B	8	7	shapes	M	4	False	71	(5.0233658115406836, -2.6336822484257851)	(2.7425201331873978, 6.8942018578916375)	(2.792613289801869, -7.5893461545147201)	(-2.1945822043167702, 5.7895235020603213)	1.0	slash	1.16298
20	N	A	M	N					N	4	0	shapes	N	4	True	71	(0.73824910969676694, -2.9626651202801222)	(-5.4786699479546561, -3.9696549580345302)	(-7.4239641485611543, 2.5068848018767174)	(6.7984480636873545, 2.6923617689746031)	1.0	z	1.11678
21	M	B	N	A	N	B	A	M	B	8	3	shapes	A	4	False	71	(4.4453567400790046, -0.24725072153636773)	(7.6491604087470897, 7.2202260180289706)	(-6.8664700485622188, 5.4768382905291553)	(8.1709259873193822, -3.7693253031338445)	1.0	z	3.24024
22	M	B	B	N					M	4	0	shapes	M	4	True	71	(-1.3849482612268913, -5.2923677711943107)	(0.51528125690493987, 7.620428754882937)	(4.3705629132258306, -3.7885832175247875)	(-5.1951807437737099, 7.1567132067206298)	1.0	z	0.921861
23	N	A	M	A					N	4	0	shapes	N	4	True	71	(6.8284378034899298, 1.7095261919640095)	(3.7902183942094947, -1.7011106381539642)	(-7.3920590381071953, 2.6212724389138309)	(-8.1775831952954601, -4.3871955978433572)	1.0	z	1.14724
24	M	A	B	N	A	N	B	M	A	8	4	shapes	A	4	True	71	(-4.1221421163970904, 2.2445216242614876)	(0.18899836159523176, 5.7137981326893019)	(0.27051409275746252, -1.8248851012003415)	(1.872845813915136, -7.0860036252963727)	1.0	slash	1.52108
25	M	B	B	A	N	A	N	M	M	8	0	shapes	M	4	True	71	(-2.1268436052272932, -5.3285266336401609)	(-4.2174720723526722, -1.5149895058287823)	(2.7630143346648541, 7.6533659579253772)	(-4.4937544714231219, 4.486976608914631)	1.0	z	0.898656
26	M	B	N	A	N	A	M	B	B	8	5	shapes	A	4	False	71	(-6.2176725908905714, 5.8288438367771853)	(-3.8235668719971683, -2.3893046067763457)	(-0.80824513333810177, -5.3462310323866582)	(6.1724129405134658, 2.712547364695288)	1.0	z	1.1883
27	M	B	M	N					M	4	2	shapes	M	4	True	71	(3.3181312271923815, -7.6731752486924831)	(-2.3980524115469706, -4.4300011329362192)	(-6.0298139144394369, 0.91957438997550334)	(7.8036508036291217, 1.2341120273658568)	1.0	z	1.03997
28	N	B	B	N	A	A	M	M	B	8	1	shapes	B	4	True	71	(-6.2508073071538268, 2.5021234189958363)	(4.3690284599867439, 3.5326598177372954)	(8.3902332978049934, 1.8340816983465587)	(5.1408221890094126, -0.71237046794218806)	1.0	z	1.14179
29	N	A	M	M	N	B	A	B	M	8	2	shapes	M	4	True	71	(-3.5870981838181555, -4.0415272141192196)	(-5.9031607017690657, 1.1164760658554584)	(7.9834908925926769, 2.0288293744211021)	(-1.9567107767672827, 5.3194567097771497)	1.0	slash	1.57344
30	N	A	B	N					M	4	1	shapes	A	4	False	71	(-4.0644091618638312, -7.5399151890542138)	(2.1471015444802717, -3.0344648565242016)	(-3.9195325592277701, 1.1314671859441425)	(7.192728061210742, 2.5602760143111105)	1.0	slash	1.42855
31	M	B	N	N					A	4	1	shapes	B	4	False	71	(4.3406089646298689, 0.58139939000164453)	(-5.0863128499170065, 2.1832848665585711)	(-3.1099293440043363, -4.6957154454863428)	(1.5705352832665831, -4.2919609623670434)	1.0	z	1.09636
32	N	B	B	M	N	M	A	A	M	8	1	shapes	B	4	False	71	(-4.0657820736570951, -6.1327531402353443)	(-5.3945460688169602, 5.5331795455301584)	(6.6776561333729276, -2.837975574028933)	(-8.3561400340722845, 1.0811740442184714)	1.0	slash	1.40017
1	M	B	M	A					A	4	0	shapes	M	5	False	71	(1.2735277118867305, -6.4615732991062771)	(1.1266347870050542, 1.5443509790780894)	(-3.2465717315651936, 6.1794181662297554)	(-4.7927253499359477, -3.3864159133397314)	1.0	slash	1.18964
2	N	B	B	N	A	A	M	M	B	8	1	shapes	B	5	True	71	(0.57464663741884436, 0.74732589143624573)	(-7.2606541475778519, 7.9393949114174198)	(5.8701444161020468, -2.8776686985447046)	(-6.9101642014816829, -8.523605818229548)	1.0	slash	1.48518
3	N	B	A	N					B	4	1	shapes	B	5	True	71	(1.6573697121596798, 7.6655967081395744)	(-8.318174027122442, -7.0762686540314546)	(5.0436969548041439, -8.5143991161386374)	(-7.2982083739312493, 0.12573136793461259)	1.0	z	1.25491
4	M	A	A	B	N	N	M	B	B	8	7	shapes	B	5	True	71	(4.6386795544836623, 3.3971082487849582)	(8.5987632227693602, 5.2165771022611036)	(-3.8968861998642224, 7.9483298246753193)	(-1.8233256055524185, 3.4830803865146258)	1.0	z	1.05454
5	M	B	M	N	B	A	N	A	A	8	7	shapes	A	5	True	71	(0.35319749549572776, -4.4212989238155842)	(-7.7718468514379682, 6.6152645057786987)	(6.5040745546926129, 7.5786180906825109)	(-7.9473883424331735, -4.5417546890100056)	1.0	z	1.04814
6	N	A	B	B					B	4	3	shapes	B	5	True	71	(1.7179012084612673, -5.9488137350382351)	(1.4351307417460308, 2.8688835084806694)	(-5.6822027058046833, -1.4455088777285257)	(-7.3494954919478861, 8.1013456390796996)	1.0	z	0.927609
7	M	B	B	M	A	N	A	N	M	8	4	shapes	A	5	False	71	(4.5040751146340572, 4.1485678941380701)	(-7.9064959187058967, 3.4822200345392442)	(-7.4084266167145509, -3.8513196972323183)	(-3.1786904402223657, -3.8367672422544326)	1.0	slash	0.889408
8	M	B	N	N	A	M	B	A	B	8	2	shapes	N	5	False	71	(0.80051917752788704, 3.8263178729908454)	(3.4126877635281172, -5.3177597093009954)	(-4.0379503658497304, 4.9735918410650086)	(4.7140302429461851, 6.9750877197276271)	1.0	slash	1.16502
9	M	A	B	M					A	4	1	shapes	A	5	True	71	(2.2235900062041303, 4.0216072070561157)	(-2.9428621950378382, -0.94795871037316903)	(7.5536984644185061, -0.53835677300089557)	(-7.0483470745845729, 6.2393896106315392)	1.0	z	1.00663
10	M	A	N	B					M	4	2	shapes	N	5	False	71	(-2.4511783230291462, 2.0014515141577256)	(-7.2615946696628413, -3.7931344049879909)	(4.6306728894982285, -4.0498634033677963)	(5.876923656379704, 7.2089479328610349)	1.0	z	0.928398
11	M	A	M	B					B	4	3	shapes	B	5	True	71	(-6.7572210383049942, 2.7271780081789565)	(2.1867429584858211, 7.5769328256570461)	(0.28257970614863659, -8.5095142079480954)	(-1.0209497490265456, -3.3503960258288759)	1.0	z	0.839873
12	N	B	B	M	A	N	A	M	M	8	1	shapes	B	5	False	71	(-1.8520177055029503, -7.9809409910914137)	(-0.55827520013133913, 2.2457676304372907)	(-7.7454707654620334, -2.9858743003294395)	(5.4968032999917575, 0.99216826102401789)	1.0	slash	1.27517
13	N	B	A	A					A	4	1	shapes	B	5	False	71	(-4.2418288883259061, 4.8733958317095833)	(2.703138877818418, 3.2592958946529418)	(-2.1601584707145589, -6.3471339459524616)	(4.9552015604826707, -0.21803976752009824)	1.0	z	1.05324
14	N	A	B	M	N	M	B	A	B	8	2	shapes	B	5	True	71	(5.1917325559896543, 6.6111139150204394)	(-5.2171783067971553, -5.6613655099955889)	(-2.3881041463494634, 3.0979030749520753)	(5.4292299553163641, -6.3071003915925372)	1.0	z	1.05693
15	M	A	B	A	M	B	N	N	N	8	4	shapes	M	5	False	71	(5.318411412858838, -8.5422398481341233)	(-1.0831044824212217, -5.5079760448017137)	(1.7636446538152359, 0.4596612350481859)	(4.9216714951489156, 5.5793151550427886)	1.0	slash	1.15287
16	M	A	A	N	B	N	M	B	N	8	3	shapes	N	5	True	71	(-1.4245306584338691, 3.7144176943243679)	(2.1275009601846797, 8.3747083625002503)	(2.5082486095381142, -5.971063227335236)	(-3.5348567673496554, -6.9543284828948551)	1.0	z	0.926089
17	N	A	A	M					M	4	3	shapes	M	5	True	71	(0.89867964401874723, 3.5795597317466541)	(-3.0577759516699263, -7.8177133366469587)	(-6.7359223666753758, 5.7101812766264413)	(2.2447768391538983, -2.135927341604166)	1.0	z	1.1977
18	N	B	A	A					A	4	2	shapes	A	5	True	71	(7.4305380036336466, -7.814207698901428)	(-3.6531279386402709, -4.0559511974447124)	(-5.6791624922606658, 5.3355240294143336)	(5.497991082004857, 5.4103694066780701)	1.0	slash	1.35146
19	N	B	B	M	M	N	A	A	N	8	0	shapes	N	5	True	71	(-1.0191721514092, 3.9784457924838996)	(6.9483959183463764, 1.6574104561776632)	(1.2019218093521555, -1.1974990271987656)	(2.373427903541879, -7.0114326097692725)	1.0	slash	1.53292
20	M	B	B	N					A	4	2	shapes	B	5	False	71	(-2.0223261559723005, -3.0409890015999315)	(7.3552268469120072, 7.7186308505010786)	(-4.8482119960449808, 7.4593746559878902)	(4.1487886550777624, -8.406469390156138)	1.0	z	1.06062
21	N	A	N	A					B	4	2	shapes	N	5	False	71	(0.46561136979929074, -8.1197659230162138)	(-1.0911095899209773, -0.69968865261803259)	(-1.4574314143788332, 4.6664903989535844)	(8.7335383048616819, 0.34439112397635085)	1.0	slash	1.31425
22	N	A	A	N	B	B	M	M	M	8	1	shapes	A	5	False	71	(-6.0375919172913228, 4.0415511340792207)	(-3.6967854605800374, -7.358296604486168)	(-2.2220574594638576, 0.35607203379689878)	(8.6574446397472222, -5.6346534460882225)	1.0	slash	1.26993
23	M	A	A	N	N	B	B	M	M	8	6	shapes	B	5	False	71	(4.0973177856300076, -4.6106762119278368)	(3.9222183426414681, 2.7016782821848171)	(-2.9673387838234015, 6.9392000421338622)	(0.69215759453273051, -2.1681267263667143)	1.0	slash	1.09162
24	M	B	B	A	N	A	M	N	B	8	2	shapes	B	5	True	71	(8.5026606020920212, -8.1284345036750079)	(-3.6024128385314107, -3.5346284697130805)	(1.0685868053577021, -3.8555239376014114)	(0.73093866738533286, 6.4573283952635503)	1.0	z	1.10921
25	N	B	A	M	N	A	B	M	N	8	1	shapes	B	5	False	71	(5.2422282322385314, -0.87449751154680833)	(-0.63144340904548812, -6.5463112152451313)	(-0.3734770859922758, 6.3925352339111541)	(4.6879122912037943, -7.0862639320318692)	1.0	slash	1.34671
26	N	A	A	N					N	4	0	shapes	N	5	True	71	(8.2914578310190947, -7.9627367400291966)	(-1.4007539099664763, -3.682566148252457)	(-2.4753977444111506, 0.74393626959084003)	(8.6420497831466463, 3.3851946305453797)	1.0	z	0.952399
27	N	A	B	A					A	4	1	shapes	A	5	True	71	(4.6993487391522297, 0.004635630380935396)	(-5.1600312326040996, -6.4126694086178126)	(-4.6363881121708408, 5.6638523013158437)	(7.2512505273213606, -4.205514644436275)	1.0	z	0.91606
28	M	B	M	A					A	4	2	shapes	M	5	False	71	(5.2928752763626097, 2.592953262116465)	(4.2650351419239385, -8.5311063988708771)	(-8.6253807141845442, -5.6914595975272295)	(-7.141006093906487, 6.6255049713591099)	1.0	slash	1.19168
29	N	B	B	N					A	4	2	shapes	B	5	False	71	(-4.5483571024186791, 8.0454913397326564)	(8.4656307136916311, 6.0656134882385313)	(5.3432394124038787, -3.0193152356108701)	(-2.0684516203176839, -6.6205225231686224)	1.0	z	1.4593
30	M	A	N	M					A	4	0	shapes	M	5	False	71	(-0.25808489678381008, 6.1157620480242887)	(5.8923585466165047, -2.8766465231538332)	(5.5477975779032338, 2.4320339588038955)	(-2.6758635089633316, -7.7911641669336023)	1.0	slash	1.15284
31	M	B	N	N	A	A	M	B	N	8	3	shapes	N	5	True	71	(-7.384248778901874, 8.5441552072355584)	(7.3508011237125963, -1.2491897715925955)	(-3.3578027892284776, 0.99006139904601653)	(1.4313040270650692, -2.9316125192714022)	1.0	slash	1.25439
32	M	B	N	N	M	B	A	A	B	8	3	shapes	N	5	False	71	(4.8319580420036754, -4.8103840489611471)	(-0.81338911976792261, -1.0990053899840593)	(-4.7907318501484903, 3.8700002225474517)	(5.8053037178368978, 7.0280613255584079)	1.0	slash	1.09621
1	N	B	A	N					N	4	2	shapes	A	6	False	71	(6.4219969212781063, -0.5282290409750221)	(-2.6292967349843916, -4.8499815891909899)	(5.2556064954977764, 4.2879646256676587)	(-4.9207773073670129, 4.9737532495331589)	1.0	slash	1.14369
2	N	B	B	M	N	A	M	A	N	8	6	shapes	M	6	False	71	(-8.1843704611147565, -4.5488444672515103)	(-3.9603920335498337, 8.3585378920426265)	(7.1405246825229689, 6.8397673732275592)	(-7.8541721835857112, 0.065711902227649333)	1.0	z	1.22135
3	M	A	A	N					A	4	2	shapes	A	6	True	71	(8.0536076176122009, 7.6951658199091071)	(-1.1734735437723778, 8.7343555294088802)	(2.3174477978901162, -5.7073084764271353)	(-7.940897328850987, -1.0450669320638211)	1.0	z	1.08239
4	N	B	N	M					M	4	0	shapes	N	6	False	71	(-0.26752109391798484, 6.4221374143985503)	(5.1979468955823513, 2.0590041901616782)	(0.55106737583598964, -3.9094822961026479)	(-8.4246102450880187, -5.2231205608037028)	1.0	slash	1.34861
5	M	B	B	A	M	A	N	N	A	8	3	shapes	A	6	True	71	(-6.1458938139418926, 2.1676750780117775)	(2.4160237531218876, 6.6190597291524291)	(-1.954679977823198, -5.3748574082195528)	(8.7140889519709326, -6.567071661084416)	1.0	z	1.17825
6	M	B	B	N					N	4	3	shapes	N	6	True	71	(7.8135031540586297, -0.29395629432011461)	(-2.9662864278836345, 3.579464160339219)	(3.0758174866930936, 7.2320532953959127)	(-1.4326195891053723, -6.7386480310708752)	1.0	z	1.03986
7	M	B	N	A					M	4	0	shapes	M	6	True	71	(2.1433716821191489, -3.3861730361240401)	(-8.1453948875989326, 5.6200695727722874)	(3.6328614229403264, 5.4604502908039247)	(-3.1936941930052223, -3.0388154505590999)	1.0	z	1.42339
8	N	B	N	A					B	4	1	shapes	B	6	True	71	(7.4209774791107428, -3.3390440648513442)	(-7.5317338266405045, -8.2045465708401863)	(-2.6597527911647161, 5.5550658856021915)	(5.8986459125171109, 8.1179164985149086)	1.0	z	0.997242
9	N	A	A	N	B	B	M	M	M	8	6	shapes	M	6	True	71	(3.2580234953095761, 5.4574240891441299)	(7.1875888861486548, -3.2272815429983241)	(0.53284399708453734, -1.9697839647521276)	(-3.2907219294255103, 0.63677161380490688)	1.0	slash	1.68068
10	N	B	N	B	A	M	M	A	B	8	4	shapes	A	6	False	71	(-5.4451145185735168, -7.4981416659000235)	(-5.2398929246949333, 5.621325155741145)	(0.36115582949057057, 8.133606437103456)	(4.4337578735432253, -4.1895836748964754)	1.0	z	1.28625
11	M	A	B	A	M	N	N	B	A	8	4	shapes	M	6	False	71	(-1.8929101133990196, 4.9605524467728657)	(-6.9074032249901212, 6.6188112895920188)	(-3.0482542816244207, -0.99775642922416719)	(5.322806390125173, -8.1272671549867024)	1.0	slash	1.11996
12	N	A	M	B	A	M	B	N	A	8	0	shapes	N	6	False	71	(-8.7055390813466289, -4.9548988489164936)	(7.7178661769569814, -7.8885230882731259)	(5.5886972737171039, 6.6794535086798703)	(-2.5885803683732913, 5.5364521007994156)	1.0	slash	1.20366
13	N	A	M	M	N	A	B	B	M	8	3	shapes	M	6	True	71	(-7.2406294897866497, 4.9519168347075517)	(7.5783420753035848, -8.017863275244272)	(7.8679292435130534, 5.9951827196651326)	(3.0754931314910205, 2.9661815281606927)	1.0	z	1.22328
14	N	B	N	B	A	A	M	M	A	8	2	shapes	N	6	False	71	(-3.2960377973474566, -3.2172656754765265)	(-5.3460408422726857, 6.0940882080949006)	(6.1889803854461398, -0.84682978584609536)	(-3.973580811483008, -8.6888945941779188)	1.0	slash	1.2123
15	N	B	A	N					A	4	3	shapes	N	6	False	71	(-0.16169890750687088, 7.3551563147576609)	(6.6230866965734858, 0.52810746913530338)	(-7.68462825089399, -5.9452836189446288)	(8.5217263793867666, -4.0104326539831021)	1.0	slash	1.10844
16	N	B	M	A					M	4	2	shapes	M	6	True	71	(7.7344981188512918, -1.3595566422130068)	(-2.4148514851758316, 0.76172566669499453)	(0.032691302540701628, 8.576557217829901)	(-1.5566529009277126, -4.970972578911697)	1.0	z	1.02199
17	N	B	A	B	N	A	M	M	A	8	4	shapes	N	6	False	71	(-0.080597843543436909, 7.3965081103049179)	(8.3421201936814775, -5.231137444487489)	(-3.2202135956092635, 4.2441367293558159)	(2.7848962790012859, -7.8388546071071081)	1.0	slash	2.1956
18	N	A	N	M					A	4	1	shapes	A	6	True	71	(5.7420180924483635, 8.5924856441024637)	(-8.2074925336105284, -4.8666152988611957)	(6.1044128180046027, -0.041388280831840873)	(-8.4285151098337607, 0.61953100976919906)	1.0	z	1.15128
19	M	B	M	B	A	A	N	N	B	8	1	shapes	B	6	True	71	(-5.4689260487051614, 3.6503143268748932)	(-0.97804963821283586, -4.9319156529541468)	(2.8621087832159517, 2.1113858492062985)	(7.7621322631808987, 8.6597559014863847)	1.0	slash	1.04678
20	M	B	A	B	N	A	M	N	M	8	0	shapes	M	6	True	71	(2.6430509531548179, -7.3270270034721046)	(-4.0758546957792063, 1.665869521326119)	(3.5741815549690035, 3.2170160315715339)	(-3.0270284004693089, -7.0023495729571508)	1.0	z	0.690656
21	M	A	M	N	A	N	B	B	B	8	6	shapes	B	6	True	71	(-6.0010378645883895, -8.1452741010086118)	(7.4020136573964876, 6.136739353138756)	(0.74321889952845055, 2.3891400331778474)	(-0.070497941080521542, 8.205082260462131)	1.0	z	1.0782
22	N	B	B	N	M	M	A	A	N	8	4	shapes	M	6	False	71	(4.0253201592567613, 1.6657907374482228)	(-5.9782190440457086, -6.3907966648103374)	(0.61172769719406084, 7.854176743366974)	(7.1728033599011241, -2.8628153249724191)	1.0	z	1.98972
23	M	B	A	M					A	4	1	shapes	B	6	False	71	(-3.0936847010400683, 3.8021254243852383)	(0.57592798535829459, 8.4519278853913953)	(4.066031580958148, -4.8001292482114346)	(-5.741459075946727, -1.1943697201117098)	1.0	slash	1.42342
24	M	B	N	N					M	4	1	shapes	B	6	False	71	(-7.3339683070559198, -1.633955442279257)	(7.4724162115642763, 7.8417965239371874)	(3.3142843582266099, -2.7901888115481794)	(-6.0143628920125076, 5.142403405095882)	1.0	slash	1.30897
25	M	A	B	A	B	N	M	N	N	8	6	shapes	M	6	False	71	(-4.8978103343588772, -3.415775417250785)	(1.4143558946500079, -7.0126387362548215)	(1.1256628042023831, 1.6956240215841145)	(7.1786662509162635, -1.9614588621536528)	1.0	slash	1.17065
26	M	A	B	N					M	4	3	shapes	N	6	False	71	(4.6623245385956285, -2.5674928131127794)	(7.0318168169101707, 1.0695127797520882)	(-3.1630489880728403, -5.7092395865891534)	(-8.6423438504959531, 2.8972465149810827)	1.0	slash	1.63417
27	M	B	M	N					N	4	3	shapes	N	6	True	71	(8.0139513906428093, 5.4115036618527643)	(-6.891060835714935, 5.9242835337769115)	(5.2140548011492509, -5.456583891548977)	(-6.0842782887783766, -3.3200184915462509)	1.0	z	1.25379
28	N	A	M	B	B	A	M	N	M	8	6	shapes	M	6	True	71	(2.3796250683113822, 7.326948686884112)	(4.5355026731418508, 3.4921680059774385)	(2.7597399792369526, -8.0642262026454574)	(-2.3066388667705189, 0.20341006860762612)	1.0	z	0.991518
29	N	B	N	M					B	4	0	shapes	N	6	False	71	(-3.1860281022148014, 2.1295496193074506)	(-2.6332823723465673, -4.6416776448936128)	(5.0069595628357906, 5.5682917105019403)	(6.1794806579002124, -3.4694483493118762)	1.0	slash	1.08911
30	M	A	B	A					A	4	1	shapes	A	6	True	71	(-0.3803782898966741, -1.1534561865794863)	(7.3755521172388505, 5.5870950239843609)	(-2.6954560500012139, 4.4462419456556468)	(4.0097583770920906, -4.1746382139521705)	1.0	z	0.824747
31	M	A	N	N	M	A	B	B	B	8	7	shapes	B	6	True	71	(-4.0500074493556868, -4.42558286905283)	(6.454228549539879, 6.4904040804729419)	(7.0757354700755108, -8.3940782268843623)	(3.3211390642254539, 3.7657389837780926)	1.0	z	1.02446
32	M	A	A	B					M	4	2	shapes	A	6	False	71	(-1.3307271815409809, -0.53380347505090597)	(2.8661955950513871, -8.5571716829443094)	(0.13099175578366484, 4.3182058651554041)	(-7.3200503135685322, 7.0568256160079752)	1.0	slash	1.20591
1	N	A	M	M					B	4	0	shapes	N	7	False	71	(6.7425751633415043, 1.46870077716083)	(2.1601432034087633, -8.1785707581973455)	(-2.0515820396791646, 0.56934128077810975)	(-6.6196449851001304, -0.18204512556112107)	1.0	slash	1.23561
2	M	A	A	M					N	4	2	shapes	A	7	False	71	(-4.901815899697751, -7.8581025111622393)	(-2.7137242395926995, 7.0157936583740952)	(4.4530402589270128, -4.9494833713365329)	(0.43286736386751024, 1.2416130098473825)	1.0	slash	1.1754
3	M	A	N	A	N	B	B	M	N	8	5	shapes	B	7	False	71	(-0.96707440762371544, 1.5783733960818722)	(3.3686330458439997, 0.99857366217628751)	(8.0746234031562416, 2.7763920645985944)	(-5.6510718381228058, 1.2304963646180624)	1.0	slash	0.864873
4	M	A	B	A					M	4	1	shapes	A	7	False	71	(7.2711565785077141, 3.5347854819618867)	(-2.4836528855483104, 0.20441844790195596)	(-7.0628232691277848, -2.253965021365226)	(4.2054106719224738, -6.9647920569256883)	1.0	slash	1.17255
5	M	A	A	B	N	N	B	M	B	8	3	shapes	B	7	True	71	(2.6242659246277356, -1.9738576613571563)	(8.4031429518244103, 4.7799830821684779)	(-5.2605001244114344, 1.0055968779857487)	(5.0144748011911773, 1.384631347752034)	1.0	z	0.940055
6	M	A	N	B					M	4	1	shapes	A	7	False	71	(-7.0285345120122669, -8.0337605253578879)	(7.2011599469769259, -2.2509040592925045)	(-0.54188386761632046, 2.3804100475487484)	(6.8346323670306663, 8.5146104334483823)	1.0	slash	1.25769
7	M	B	M	B	N	A	A	N	N	8	2	shapes	M	7	False	71	(7.6912051696276542, -1.3199561542566638)	(1.0022087583283703, -2.2719238348178283)	(3.0736375891503016, 4.293771335881976)	(-7.8076929097284129, 3.7457425008868803)	1.0	slash	1.0273
8	M	A	B	A	M	B	N	N	B	8	5	shapes	B	7	True	71	(-1.4250811175509766, -5.8088706248162936)	(6.4958883170303316, -8.4900907735941011)	(-8.064642069655994, 6.7924793471334883)	(-4.0243789838987531, 0.47898320008573236)	1.0	z	1.04082
9	N	B	N	B	A	M	M	A	M	8	4	shapes	A	7	False	71	(-0.9064935851936422, -4.5374347270989528)	(-0.1232284778942212, 7.1240642043981666)	(-6.9131862713283079, -1.198717234238357)	(3.5779439176036583, -5.2459304295518834)	1.0	slash	1.25422
10	M	A	N	B	B	A	N	M	A	8	6	shapes	N	7	False	71	(-1.515385373410095, -6.347985506137662)	(-4.7977945312545147, -1.4385222886378752)	(2.3401007028978071, -0.56112109205506044)	(6.1132595610537397, 8.6211384903260999)	1.0	z	1.17411
11	M	A	N	B					B	4	3	shapes	B	7	True	71	(1.9122710217824359, -0.14882611882903696)	(5.1558550733488833, 5.4778338721844921)	(-5.7319014668960282, 7.682446622709115)	(-5.7100565980704356, -8.0833256100832891)	1.0	z	0.821794
12	M	B	N	N					M	4	0	shapes	M	7	True	71	(-6.5582547222230998, -0.039619110856898843)	(-3.1401968430774998, 6.2099399907606028)	(5.1415342364553034, -8.6400612606665845)	(8.64384164175992, 4.6236903824956741)	1.0	z	0.81151
13	M	A	M	B					A	4	2	shapes	M	7	False	71	(-1.1344827356465501, -5.434014375891989)	(1.576538812238633, 1.7816036909204094)	(-5.055130495647477, 3.852558486762824)	(3.6783567717862056, -1.7408545004704736)	1.0	slash	1.11513
14	N	B	M	A	M	A	N	B	N	8	3	shapes	A	7	False	71	(2.1864846466626737, -5.8198155341359037)	(1.8361941559705723, 1.7084767652917634)	(5.3181607683480792, 8.5326713919462343)	(-6.1810410727105722, -1.1657377955227188)	1.0	slash	1.15896
15	N	A	N	B					M	4	3	shapes	B	7	False	71	(1.067365188051479, 1.8380905060917723)	(-2.0789415821451707, 6.9468280289420914)	(-6.4817823802426817, -8.7092621031409543)	(2.5182708895059012, -5.847886343710444)	1.0	slash	1.47243
16	M	B	B	A					M	4	0	shapes	M	7	True	71	(-2.0798380594312675, 5.1975607417703884)	(3.4822899349781729, 0.66420802047297656)	(6.9239034609155823, -7.5045354184826696)	(-6.8212735042617219, -5.3954489695221657)	1.0	z	1.06
17	M	A	N	N					N	4	3	shapes	N	7	True	71	(-7.0556172135534254, 1.3964582328844042)	(-1.0314518260744361, -0.10911805336565905)	(4.8470841426636273, -4.4137059226173392)	(5.6967789118857048, 5.5300374247584081)	1.0	z	0.943666
18	N	A	N	A	B	M	B	M	B	8	4	shapes	B	7	True	71	(-1.1141084186103782, -1.4665790622005304)	(-2.6637911631434763, 2.9779231955151122)	(-4.4819919134061053, -6.4966069894265619)	(6.2676220412254455, 8.4022439787282153)	1.0	slash	1.06133
19	M	A	B	N					A	4	1	shapes	A	7	True	71	(0.62753541924961098, 7.0101010158464589)	(8.2703804905546932, -7.7473391899885424)	(-2.3530998474645202, 0.28131632770146631)	(-2.7753856700328035, -8.0197453572563866)	1.0	z	1.06688
20	M	A	B	N	A	N	B	M	B	8	6	shapes	B	7	True	71	(-0.1621305069930461, -7.4491720283477063)	(-7.6101618165477793, -2.9031303969375868)	(-5.0831327189372564, 2.6777424666112619)	(-1.5295058629149745, 6.1242866771707316)	1.0	z	0.786603
21	N	B	A	M	A	N	M	B	N	8	0	shapes	N	7	True	71	(4.490918811054172, -3.0057596166421554)	(0.78819549454383342, 8.3328366996954202)	(6.6795443416909421, 8.5710091174943308)	(-4.1840119029890737, 2.3081558545585281)	1.0	slash	1.34623
22	M	A	M	N					M	4	0	shapes	M	7	True	71	(-6.4025491617972703, -5.5666932192141534)	(0.41232059966005252, -2.0317051089912859)	(1.6899577256210137, 4.3517903944388312)	(-3.8096342674276178, 3.9189658162478551)	1.0	z	0.823815
23	M	A	M	N	A	N	B	B	N	8	7	shapes	B	7	False	71	(-2.9417335786941248, 1.2297138783560033)	(-6.1999762497828987, -3.6017320253153802)	(2.5451436114686956, -5.6676613399827858)	(0.72944730210489794, 6.6291010593945785)	1.0	slash	1.1335
24	N	B	B	M					B	4	0	shapes	N	7	False	71	(-5.1553223695656314, 0.65424639618410474)	(0.63796782435081134, 6.8118166661397996)	(5.9151547624324792, -0.33504201752402984)	(-2.3890041401232915, -6.1585178256275066)	1.0	slash	1.12515
25	M	B	M	A	B	A	N	N	N	8	3	shapes	A	7	False	71	(-4.0552757452265684, -5.7299283039332209)	(2.0898035316379229, 8.1684451416377435)	(-6.6411465249901305, 5.6960396939378644)	(-3.0261437202782355, 3.6712594384318251)	1.0	slash	1.29677
26	M	B	B	M					A	4	3	shapes	M	7	False	71	(-3.7191026208274938, 4.0198378484544754)	(6.0763196045894592, -5.7901570285306185)	(-3.6930059198365903, -0.92630504441750539)	(4.4906082820454607, 6.473276608765369)	1.0	slash	0.920209
27	M	A	N	N	B	B	A	M	N	8	7	shapes	M	7	False	71	(0.70209401822005724, 5.0461188052227897)	(-3.7231603904369681, 4.6525860044077803)	(3.4469000014596975, -4.9828816606609454)	(-6.9463524409749056, 0.037962016408824795)	1.0	z	3.26012
28	N	B	M	N	A	B	M	A	B	8	5	shapes	B	7	True	71	(-1.5719261808757894, -6.9411295144951737)	(0.23428671565881842, 1.3418054519723395)	(-5.4629508688175079, -4.9541216314976513)	(-3.4879176066609423, 5.4024054995674859)	1.0	z	0.867645
29	M	B	N	N					B	4	1	shapes	B	7	True	71	(2.8099684470950272, -1.9167956431851092)	(-3.4463901191453603, -8.6813380790414616)	(-0.53478218551455825, 6.4785289250444738)	(6.0456352662830675, 5.1105686368781136)	1.0	z	0.769093
30	N	A	M	A					A	4	1	shapes	A	7	True	71	(5.5141466386282545, -1.758536148231463)	(6.2338154533411476, 6.3551603761796613)	(-7.26949350184967, -3.512550680898908)	(-2.4855374948298925, 3.0688135941455101)	1.0	z	0.800794
31	N	B	M	M	N	B	A	A	M	8	2	shapes	M	7	True	71	(4.1449587971581909, 2.3545721343327077)	(-4.3268810967668951, 7.8988868082640522)	(-1.1297220872536071, -8.1969726950974593)	(5.9415683801547576, -1.8643675166150926)	1.0	slash	1.06018
32	M	B	M	B	A	N	A	N	B	8	1	shapes	B	7	True	71	(5.9157309805915403, -0.63431308440036815)	(-8.2447351385490144, -7.476081023984948)	(2.2985911024386212, 5.0082573615577726)	(-0.91742462478081421, -4.6513157880634228)	1.0	z	0.772116
1	N	A	M	B	M	B	A	N	A	8	1	shapes	A	8	True	71	(-2.2764959083938701, -6.6066729870533853)	(1.2266710602316095, 8.2355679941965612)	(7.6729786178647998, 3.7904585385769245)	(-2.9650532517498096, -1.8183695478897537)	1.0	z	0.773724
2	N	A	M	B	N	A	B	M	N	8	0	shapes	N	8	True	71	(6.8180010697538904, 0.85913594597285758)	(-2.7865348635940794, 3.484274345337278)	(1.7067881386596611, -4.5797517073270217)	(1.3707807514308943, 1.0768538844013626)	1.0	z	1.00532
3	N	B	N	A					M	4	3	shapes	A	8	False	71	(5.8967176747761556, 0.34087837518991115)	(-6.365455418752008, 1.3268361176331478)	(-0.27057915114321318, -1.2693672842766901)	(5.5475224508975387, -4.729280329356599)	1.0	z	2.07112
4	N	B	A	N					B	4	1	shapes	B	8	True	71	(0.17876401079228721, -7.6431126968185152)	(-6.9980120658334499, 0.43866927181198001)	(-1.1210637696692158, -0.075120826961656562)	(7.2849351822575024, 1.1562320321508199)	1.0	slash	1.13046
5	N	A	M	N					B	4	0	shapes	N	8	False	71	(4.9516625379126769, -0.35248167992601331)	(-4.617995518107965, 6.409558301254398)	(-3.7902453089357371, -6.3985497505585078)	(1.3693040910651142, 2.5505012214037439)	1.0	slash	0.706004
6	N	B	N	M					M	4	1	shapes	B	8	False	71	(8.4884353173471006, 6.1356195735018169)	(2.6164242179713337, -5.028747823089768)	(-1.7934560394170722, 6.5432703575508668)	(-8.6966940610401355, -4.8859645871444517)	1.0	slash	1.03187
7	M	B	M	B	N	A	N	A	B	8	4	shapes	N	8	False	71	(-3.7581650088134619, -0.44389946390445445)	(6.5265373717382289, 6.0092823066079752)	(2.0085588709510418, 1.3429472646498883)	(-8.2776994540761262, 0.96845571866451685)	1.0	z	1.0775
8	N	B	B	A					A	4	0	shapes	N	8	False	71	(-6.7680850162943162, 0.099486796584557169)	(-4.6761650806583175, -5.4173951328879326)	(1.7782139361503138, 3.7722172039449582)	(8.2605541047591018, -2.3824769288645768)	1.0	slash	0.569143
9	M	B	A	N	A	B	M	N	B	8	6	shapes	M	8	False	71	(4.9333658992353371, 1.3786736280213603)	(-4.128686796007603, 6.0475504820865389)	(-8.1715889647190352, -5.2257772944064511)	(4.5247286971276885, -6.8091586358518512)	1.0	slash	0.676484
10	M	A	B	N	M	A	B	N	B	8	6	shapes	B	8	True	71	(-4.0226376405699487, 3.1035046430877671)	(6.0722424624372682, 8.0357280761285992)	(-8.6252891575211237, -7.1905008757453999)	(3.436489336000097, -4.1460336479499036)	1.0	slash	0.47438
11	M	B	N	B					B	4	3	shapes	B	8	True	71	(2.8607975955360487, 6.7663846058190558)	(-7.6435376159924822, -2.8954560528775755)	(-7.9411708291768193, 4.8853489120221809)	(8.7277631489443763, -4.2569817181459753)	1.0	z	1.18213
12	M	B	A	A					B	4	1	shapes	B	8	True	71	(4.0087574114174984, 0.8402092832163266)	(-2.5518842774868871, 2.6206712052756185)	(2.7701975191228918, -5.7562878261626658)	(-8.7073294138464199, -0.72949135223768913)	1.0	z	1.05191
13	N	B	M	N					M	4	2	shapes	M	8	True	71	(7.8583116021034911, -7.6905496623851208)	(-8.6304326631297723, -6.9769598422342369)	(6.6738551850846495, 8.3599783000814725)	(-2.7113699761927048, 1.7651867207923306)	1.0	z	0.771496
14	N	B	N	M	B	A	A	M	N	8	5	shapes	A	8	False	71	(-4.257903503626479, 2.997259888093069)	(5.6912915674338471, -0.28708443197807121)	(5.4529771117433423, 6.2476264386168623)	(-1.6594187600786201, -0.989963849740362)	1.0	z	1.62701
15	N	B	M	N					B	4	1	shapes	B	8	True	71	(-5.700946338423428, -1.208729942297138)	(8.0023881993781849, 6.0506754121991371)	(-8.5349765110558522, 5.7808340187862299)	(2.3840005179258306, -4.4620170077585355)	1.0	z	0.940557
16	N	A	N	B	B	M	A	M	A	8	6	shapes	A	8	True	71	(4.479340648867506, 6.1042061529044851)	(-5.5860077342537453, 7.2009388619861099)	(-6.0221075170483527, -6.2937662293623662)	(8.511073813358113, -8.6353246463298223)	1.0	z	0.804294
17	N	B	M	A	B	N	A	M	A	8	3	shapes	A	8	True	71	(-2.1820486195477029, 6.0337175224990887)	(5.0769443674617989, -3.4970183480835066)	(4.5466175680742307, 8.6597382970814181)	(7.1535110514992546, 3.3631199719023019)	1.0	slash	0.997619
18	N	A	A	B	B	N	M	M	M	8	0	shapes	N	8	False	71	(2.8358497804770639, -3.7931280195690986)	(-0.25220370897389088, 4.0019589694528683)	(-5.9145618640527378, -4.7622053128595478)	(-0.77949752235622327, -0.96701831750841905)	1.0	z	1.09703
19	M	A	B	N					A	4	3	shapes	N	8	False	71	(-5.5886950520669458, 6.079784047968495)	(3.3476275288380375, -4.8720834029387969)	(-1.7074942236390767, -8.5656377329754907)	(7.5979247740533253, 3.3519775499602744)	1.0	slash	1.24924
20	M	A	N	B					M	4	3	shapes	B	8	False	71	(-3.4513914430452504, 5.2394754875607603)	(7.6816064628448011, -4.9539118668813886)	(-8.0641572984917911, -2.9971204361356332)	(5.2220581049747921, 0.98952703178204438)	1.0	slash	0.632855
21	N	B	A	B	M	M	A	N	B	8	1	shapes	B	8	True	71	(8.6934288032824192, 3.3629030785965366)	(-8.3312820885953727, 5.4066455641840427)	(-3.3680317766912005, 1.0298839176975143)	(-4.1529341138393914, -7.1772573645894244)	1.0	z	1.17204
22	N	B	A	N					N	4	0	shapes	N	8	True	71	(6.4201612559676082, 7.3005123025098477)	(-5.9385708197864275, 7.8652557845731152)	(2.6369383373879156, -0.97508796430078792)	(-1.3631432141084119, -0.4528907348774549)	1.0	z	1.02813
23	M	A	B	B	M	A	N	N	B	8	2	shapes	B	8	True	71	(5.7824460165605895, -8.0496959251128182)	(-0.69035418664479664, 7.3201068185641098)	(-1.9265672334287922, -8.228913384101844)	(1.6322269512061958, -3.159173554917805)	1.0	z	1.2114
24	M	B	A	N					B	4	1	shapes	B	8	True	71	(-0.80950482378693778, 4.465037626036013)	(3.3869750761859567, -3.214715340430498)	(-0.21256497202327473, -5.9708908355240702)	(5.9614023264572094, 7.5388444552575926)	1.0	z	0.899538
25	N	A	A	M					B	4	2	shapes	A	8	False	71	(1.5867565005443307, -7.810192459981546)	(-0.34197044762485795, -4.2599997911971785)	(-1.2046013348334368, 5.8448983988133101)	(8.101355942198694, 2.1233128900125458)	1.0	slash	0.705156
26	N	A	B	B	M	A	M	N	A	8	7	shapes	N	8	False	71	(-2.1328781853761658, -4.5463254034278595)	(-7.9573620569175887, -3.6880073785042535)	(1.8623913744697447, -5.499931062795933)	(3.8287546975104991, 2.0404941451771155)	1.0	slash	1.05669
27	N	A	N	M	B	B	A	M	A	8	7	shapes	M	8	False	71	(-4.2181153662150814, 5.9178957439983062)	(3.0970617599829957, -5.0187110979532363)	(-6.3968598908628342, 2.1039842128474149)	(0.72964744162208817, 1.8167427786051498)	1.0	z	0.792305
28	N	B	N	M					B	4	1	shapes	B	8	True	71	(-2.723307518949583, -4.3474503404250919)	(7.4696267214627419, 0.040408343016492765)	(-0.43404391872598502, 6.3418619170121993)	(2.8786693402503492, -7.1904915903700051)	1.0	z	0.898038
29	N	A	A	N	B	M	B	M	A	8	4	shapes	B	8	False	71	(-3.5117147637839849, -3.261591498783309)	(-8.5962538783442568, -5.5165349128091696)	(6.2502488625934376, 7.1313823429431427)	(4.4779182416920644, -1.8634954513491957)	1.0	z	0.947614
30	N	B	N	M	M	B	A	A	M	8	3	shapes	M	8	True	71	(-8.4557432589324915, 3.8538402125105655)	(-1.5161290948759234, 3.6358877188633016)	(-3.0733174444625408, -1.5658184487059863)	(2.2986915602587246, -3.3486880683019766)	1.0	slash	0.577266
31	M	B	M	B					A	4	2	shapes	M	8	False	71	(-7.2763846532695888, 5.5093700358939497)	(-3.0828698353868047, -1.2775712560137702)	(0.87077979236473269, -7.3753717937261385)	(1.469367722152839, 5.5630948654262653)	1.0	slash	1.13641
32	M	A	M	N	B	N	A	B	B	8	0	shapes	M	8	False	71	(-1.1952810466376631, -7.331476160616119)	(4.6294939571229445, -1.7384398182647827)	(8.4379089972954802, 3.8680581696489522)	(1.8464313196444877, 5.7272436962124544)	1.0	z	3.40852
