TrialNumber	stim0	stim1	stim2	stim3	stim4	stim5	stim6	stim7	stim.probe	ttl.stims	corr.num	trial.type	stim.corr	block	match	Subject	stim.pos0	stim.pos1	stim.pos2	stim.pos3	ran	resp	RT
1	N	B	A	A	N	M	M	B	B	8	6	shapes	M	Practice	False	72	(-3.794010037946534, 6.2144815190323612)	(5.2319577847662639, -7.365382499817299)	(3.3574674017810295, -3.112964145644642)	(-1.888549297217458, -3.1805215602911181)	1.0	z	4.6927
2	N	A	M	N	A	B	B	M	N	8	7	shapes	M	Practice	False	72	(-8.6373908077928085, 3.6910730507771383)	(-0.87718971965138515, -6.8163274638610876)	(-3.0411693097896473, 8.631504173586606)	(4.2392760765087036, 5.5591255858049795)	1.0	slash	1.64399
3	M	A	N	N					M	4	3	shapes	N	Practice	False	72	(1.5698568685347709, -1.3399845220923545)	(-2.4191692265232749, -5.6331120665231413)	(3.171297697312518, 5.6464295665955291)	(-7.5069366252371701, 0.463581950522995)	1.0	slash	2.57352
4	N	B	M	N					N	4	3	shapes	N	Practice	True	72	(2.7759154926463516, 0.38831843315742454)	(-7.7519465244467307, -8.052969535149856)	(-5.2388680817583495, 3.5242779664327131)	(7.2162332533525522, -0.010306486313323759)	1.0	z	1.55716
5	M	A	B	N					B	4	2	shapes	B	Practice	True	72	(7.7740288770333379, 7.6396211188189262)	(2.3346413353116979, -3.6002121777898939)	(-8.3577076600555777, -3.2920684912108129)	(-4.4529171058421042, 0.24538718932923942)	1.0	slash	1.68077
6	N	B	M	M	N	A	A	B	N	8	0	shapes	N	Practice	True	72	(2.1623262644184589, 8.2331170985378606)	(4.0898164982429801, -8.0724581611176234)	(3.0783959973750097, 1.4885537845421943)	(-3.244702541054143, 1.2361546975914628)	1.0	z	2.20827
7	M	A	M	N					B	4	0	shapes	M	Practice	False	72	(-5.5703744292928938, -5.5855221939209816)	(0.82442525339278383, 8.0770321338303184)	(2.5801319326419669, -1.6318029462128694)	(-8.1254777798182936, 1.9018793940616856)	1.0	slash	1.60735
8	N	B	N	M	M	B	A	A	N	8	2	shapes	N	Practice	True	72	(-5.9860302480796559, 3.9650668613066866)	(4.0453658527882723, -0.64292160435715573)	(1.1055862347246208, 3.2404298258700042)	(-2.5050575446360321, -6.0630280096118447)	1.0	slash	1.76351
1	N	B	M	B					M	4	2	shapes	M	0	True	72	(0.38429390725468338, 2.8110766821505848)	(-3.0658520514400864, -6.0164602049678262)	(-8.3244480382997779, 6.1696462753175272)	(4.7624594090028456, -3.2906658696200486)	1.0	z	1.12775
2	M	B	B	N					A	4	2	shapes	B	0	False	72	(0.29049348787117779, -7.5484471575881411)	(-6.7629377173005301, -0.22106014449670575)	(3.8664951428593728, 5.7163576635416842)	(-5.599859509884352, 6.8748693134682313)	1.0	slash	1.24931
3	M	B	A	B	N	M	A	N	B	8	7	shapes	N	0	False	72	(4.4220589541725985, 5.0018748303695162)	(-3.4952681047696359, -7.3513209548224374)	(5.2284848051559116, -7.0205258596883766)	(-7.0531535124231093, -0.75854919859976544)	1.0	z	0.836944
4	N	A	B	B					A	4	1	shapes	A	0	True	72	(5.3050597816003648, -7.0195064349836587)	(-6.7656944560175036, -6.2627957384086006)	(-5.5559337823209098, 8.5621334654012458)	(6.9731896774878965, 7.7572644670217059)	1.0	slash	1.12059
5	N	B	B	N	A	M	M	A	A	8	2	shapes	B	0	False	72	(7.2324649246495429, 8.3367323577995656)	(0.63608689058255941, 8.2397772321893008)	(4.9382590403747884, -2.2334020343900649)	(-2.9838194187228275, -2.6014145040032179)	1.0	z	1.32613
6	M	B	N	M					M	4	3	shapes	M	0	True	72	(1.5942593317723972, 6.8978284480381458)	(2.8751741427758564, -3.611624020149498)	(-0.46119063500903756, -7.5998217175336951)	(-7.7441581630686276, 6.960184259065997)	1.0	z	1.09588
7	M	B	B	N	N	M	A	A	N	8	4	shapes	N	0	True	72	(7.2342646691340029, -1.7444932876426691)	(-3.1054817976547238, -6.92334205934067)	(4.9947070989663143, 8.4817527967967692)	(-2.8704187310724461, 3.3224367943678867)	1.0	z	1.03333
8	N	A	N	A					N	4	0	shapes	N	0	True	72	(-5.1186414510872362, 0.37692017516650189)	(0.3808169515314539, -6.2073658040340458)	(3.0419386893401903, 5.7639959723308696)	(-7.7952882075858669, -2.6032154010242667)	1.0	z	1.0611
9	M	A	B	N	B	N	A	M	A	8	4	shapes	B	0	False	72	(-3.4356123938129572, -2.9406056916658674)	(1.6607167264258926, -5.9237796145138937)	(-3.7818243016925015, 3.3741434456072614)	(-6.7742675043908029, 0.65350477162805376)	1.0	slash	1.80066
10	M	A	A	M	B	N	N	B	M	8	6	shapes	N	0	False	72	(5.4391167750162186, -4.4505559958633105)	(-3.124313102871505, -1.1318064440219713)	(-0.8078568675390132, -4.986374029477231)	(8.2436989176933189, 2.9392602580430172)	1.0	slash	1.56776
11	N	A	M	A					B	4	0	shapes	N	0	False	72	(0.60384478246846029, -8.6138274980664207)	(-6.0862284778404838, 2.5073370138911617)	(5.6426139309055632, 3.3614089632982349)	(-3.5967610571762147, -8.3820666148384113)	1.0	z	0.757923
12	M	A	M	N					A	4	2	shapes	M	0	False	72	(0.1946015748134009, -0.50440805183615112)	(-4.7573303471129975, -0.9844842285848463)	(-6.9329965536906801, 8.1226735320745789)	(5.4718070442370816, 7.3736613642004158)	1.0	slash	1.25766
13	M	B	N	N					A	4	0	shapes	M	0	False	72	(1.2775444769512152, 5.4205450986534043)	(-0.4465484636731194, -5.6458075846566356)	(6.4619293107846207, -5.5900729696674407)	(-5.3147354344765727, 4.3223930007810338)	1.0	slash	1.10519
14	M	B	A	M	A	N	B	N	B	8	2	shapes	A	0	False	72	(-2.2640482258679286, -5.6439440791879889)	(3.0876094525819973, -7.130339719548636)	(-5.6035208582722742, 1.4824634654444608)	(-3.881033270244286, 8.5642991399744126)	1.0	z	1.11094
15	M	B	A	N					B	4	1	shapes	B	0	True	72	(4.2558005554127618, -1.0123024634343132)	(-2.3892489800796399, 5.9897540177289628)	(-4.7053378090563225, -7.1250338788326006)	(6.507571364158121, 3.2870760449428253)	1.0	z	1.03437
16	M	B	M	A	A	N	N	B	B	8	1	shapes	B	0	True	72	(-4.7247376485083947, 5.3206628462211896)	(-1.0162851602060501, 8.5130201105572354)	(6.3607746657150646, -5.2860483782642946)	(2.381749025531116, 0.53051945125554845)	1.0	z	0.960214
17	N	B	A	A	B	M	N	M	A	8	2	shapes	A	0	True	72	(-6.8962375846232025, -3.7769803651292673)	(-2.3999716978906864, -0.62190586800460501)	(-2.3454601163696154, 6.6310991900685128)	(6.3523437953266413, 2.6579609831483353)	1.0	z	0.813629
18	M	A	B	A	N	M	N	B	M	8	1	shapes	A	0	False	72	(3.3890422670546538, 6.4387452527484985)	(-6.1074650450400094, -1.6304639056236647)	(1.0436556615144621, 0.66681342863557092)	(-0.83571765631528994, -3.1524099503736362)	1.0	slash	1.33542
19	N	A	B	B					M	4	3	shapes	B	0	False	72	(0.5811669852146597, 8.0602683298259628)	(-5.0666675351679142, -1.6584331371316381)	(8.7230383006447667, -8.4141602708710916)	(-5.4968768929021534, 8.0667185963437547)	1.0	slash	0.998535
20	M	A	A	M	B	B	N	N	M	8	0	shapes	M	0	True	72	(-3.5871791149930017, -5.4258110770283494)	(6.564028914354326, 0.80329669812478244)	(2.0000838126115514, -2.3850586488377568)	(0.10714749114565159, 8.0642152661746209)	1.0	z	1.18083
21	M	B	M	N					A	4	2	shapes	M	0	False	72	(0.63681965043326905, 6.1818068714878507)	(5.5126912019127339, -6.4050279935222045)	(-5.3338978695995634, 2.9515119225959303)	(-5.2970620723223849, -2.2598490348447946)	1.0	slash	1.10615
22	N	A	N	B	B	A	M	M	B	8	4	shapes	B	0	True	72	(-3.1372482984394567, 2.5500791017958218)	(-0.12145487334167271, -6.0853147744078333)	(8.5981381253781812, 4.6642007007592472)	(-5.4961902681585304, -4.9016995618053469)	1.0	slash	1.00196
23	M	A	A	M					A	4	2	shapes	A	0	True	72	(-6.6351302903595091, 2.4998104631554821)	(-2.6147354771128182, -1.9050483933588245)	(5.5785154419466068, -2.0227601962788038)	(1.4303359577922823, 2.2531273880409923)	1.0	slash	2.93935
24	M	B	A	N	A	M	N	B	M	8	3	shapes	N	0	False	72	(-6.0913599583354214, -2.680329132130252)	(-7.286283103800832, 7.5194667500666448)	(5.6723144706842294, 1.422384344096395)	(-0.65410202562713948, 4.9222890123308449)	1.0	slash	0.997043
25	N	B	B	M					B	4	1	shapes	B	0	True	72	(-6.1279108501200046, -0.46559299531447174)	(-3.1934805299171067, 2.5077345155096751)	(4.8179341984903079, -1.5555037226280009)	(3.0599301133838441, 6.5443591199999087)	1.0	slash	1.9687
26	N	A	A	B					M	4	2	shapes	A	0	False	72	(-4.2513847679068855, -7.7692476470198013)	(-0.94623706410236519, 7.051344606158688)	(4.0443311211229656, 2.7187106620401806)	(7.7856292676010774, -1.69558261382533)	1.0	slash	0.992318
27	M	B	B	A					M	4	2	shapes	B	0	False	72	(-4.1180941785087661, -5.6267118719489169)	(7.7368418728114605, 5.9203682640550355)	(-3.2440943822855886, 0.98578746720684407)	(3.1110093032542778, -1.5595079702281218)	1.0	slash	0.76189
28	N	B	N	A	A	M	B	M	A	8	1	shapes	B	0	False	72	(-2.7185131626119192, 6.5353277733486159)	(3.884378805613677, 8.6280568824855806)	(2.7390016488958437, -2.3898979282698534)	(-3.7752253691268987, -7.6285786137710971)	1.0	slash	0.859455
29	N	A	M	A	B	M	N	B	A	8	3	shapes	A	0	True	72	(-2.3565165940485597, 2.1315535640227878)	(2.6292887867079671, 0.67442964192663268)	(0.35997756931408809, -7.3478931258439051)	(6.3139546295474958, 6.2993821480973757)	1.0	z	2.5092
30	M	B	B	M					M	4	0	shapes	M	0	True	72	(-5.7258652894288051, 1.7760013540917878)	(1.4477770894551796, -8.2418677640666527)	(7.5545348102680414, 0.64492171376942409)	(-5.163363141325723, -2.5901887339210754)	1.0	z	0.920772
31	N	A	N	A	B	M	B	M	B	8	4	shapes	B	0	True	72	(1.7562005395215596, -5.4317513276189091)	(-3.6660273471496776, 5.6936485338711282)	(-5.1730749770454754, -4.1231963929820745)	(-3.1225063434945888, 0.23503835934328521)	1.0	z	1.31049
32	N	B	M	N	A	B	A	M	N	8	3	shapes	N	0	True	72	(5.0710743279370263, -1.295660543886946)	(-0.53277364825848572, -8.4247370009087046)	(-5.0249821708010423, -5.5864322546759482)	(0.3663896586166846, -2.5976620573762812)	1.0	slash	1.10995
1	M	A	N	M					A	4	3	shapes	M	1	False	72	(3.1582440225587902, 4.612715993591884)	(-8.0503921753532914, 1.4193209153014177)	(-1.6922437187410067, -4.7385674457333131)	(4.2648355777337752, -7.449696219827981)	1.0	slash	0.91738
2	M	B	N	N	A	A	B	M	B	8	1	shapes	B	1	True	72	(-4.2670034328963204, 2.5895258770948928)	(6.5316424579433061, 1.9988153675146005)	(3.5815201217865571, 6.6998882295675077)	(4.7545353336525729, -4.22747421959801)	1.0	z	1.10508
3	N	B	A	B	M	N	M	A	M	8	4	shapes	M	1	True	72	(-1.3984836971296541, -5.8569287051023524)	(-5.0555759824538189, -7.9668948359339051)	(-5.666742585172603, 3.2552346825458951)	(1.6271136654195146, 2.187087614400145)	1.0	z	2.05687
4	N	A	A	B	B	N	M	M	M	8	2	shapes	A	1	False	72	(6.0596694310610069, 8.2890130827206683)	(0.98540768560682857, -7.4350643021439105)	(-1.0536549506769246, 6.5369740119021191)	(-7.30467685016737, -7.1947477613588697)	1.0	slash	0.818422
5	M	A	B	A					A	4	1	shapes	A	1	True	72	(6.6324149275868649, 0.84613556717186711)	(-0.52353864590951993, -0.8579390427917124)	(-3.5586451277259616, 4.1895349564736186)	(6.7004584441771549, -4.4803848905374517)	1.0	z	1.05606
6	M	B	N	M	N	A	A	B	B	8	7	shapes	B	1	True	72	(8.2437113343834483, 4.5060693713349522)	(1.3656255737757519, 0.46749571714874172)	(-2.9764126557281356, 2.9788324386744005)	(-6.8580822351151669, -5.7039761281371044)	1.0	z	0.953594
7	M	A	B	B	A	N	M	N	B	8	2	shapes	B	1	True	72	(7.2879879182032781, 5.967908139017112)	(3.7367754559788704, -5.0457208988864641)	(-2.8919870878232956, -2.4828365372802379)	(-5.5500822636046205, -6.6126889079134408)	1.0	z	0.855218
8	M	A	M	N					M	4	1	shapes	A	1	False	72	(6.9692535101109332, 4.4215295410736424)	(-2.2594001752692456, -2.1738015549509742)	(1.7984383386895519, -8.1836673485070826)	(-3.016462782553579, 6.9335396112097634)	1.0	slash	1.60701
9	N	A	A	M	M	N	B	B	B	8	2	shapes	A	1	False	72	(-0.1874408575026969, -2.5283252455582668)	(1.8842249308833487, 2.5202285113409584)	(1.5123339694504363, 8.5029966841809355)	(5.1222552720832084, -3.5234966732231836)	1.0	z	0.994679
10	N	B	A	N	B	A	M	M	M	8	6	shapes	M	1	True	72	(7.8361142689163614, -6.1876819318175027)	(-3.8814240059744893, 8.4736590817615287)	(3.6871267266312096, -1.9817694529052003)	(-2.9208998288047843, -7.9924799625984813)	1.0	slash	0.944066
11	N	B	A	N					A	4	2	shapes	A	1	True	72	(0.62293193792051049, -6.9034821452509414)	(1.014388457101008, 7.3477699448801204)	(-7.4467369085341168, 4.6473264704811061)	(-4.7685155270883133, -5.3433726549701586)	1.0	z	1.22179
12	N	A	B	B					M	4	3	shapes	B	1	False	72	(2.6299201263095071, -3.4165208425474987)	(-5.6583835741240307, -7.8629378531422764)	(4.7070629220328861, 3.773985044178886)	(-7.2854583577463439, 7.7455530238651882)	1.0	slash	0.771457
13	N	B	B	N					N	4	3	shapes	N	1	True	72	(0.71679603544124326, -4.0517356641906082)	(-5.9607345894974548, -4.6559726078393497)	(-1.0514572106576248, 8.7381177657211744)	(3.2952252444489574, 1.551752179301376)	1.0	z	1.37912
14	N	A	A	M					A	4	1	shapes	A	1	True	72	(-7.9789570820534026, -6.4744559613001691)	(6.0889996368134742, -5.2185602544932834)	(7.8267300917306848, 5.1110684716785464)	(-1.5773917201645231, 8.3806360650893303)	1.0	z	0.920699
15	M	B	A	M	B	A	N	N	A	8	4	shapes	B	1	False	72	(-7.5312499959336492, -7.2267974666635881)	(8.6622357864585702, 3.4688412676430858)	(-4.2188364787370469, -1.1036057025256287)	(-7.955404614260412, 3.3398308766480032)	1.0	slash	1.73437
16	N	A	B	M					B	4	2	shapes	B	1	True	72	(-6.0228000824412691, -8.5225764473699019)	(0.043596333685247401, 1.9236188315118277)	(7.3789060683444916, -7.3642583772856138)	(-4.1053827718671432, 2.4183168674179232)	1.0	slash	1.06204
17	N	B	B	A	M	M	N	A	N	8	3	shapes	A	1	False	72	(-7.3160111116837445, -6.7051230030294215)	(-0.068837471420589935, -6.5795479382156445)	(7.3370451319920242, -2.6975898618996599)	(5.601435712426909, 1.4787747203258874)	1.0	slash	1.10944
18	M	B	N	A					A	4	1	shapes	B	1	False	72	(5.3145732611755712, 8.4601653264849794)	(-5.7862366451848857, -7.0609806606524703)	(4.2455562435732901, -6.8331361549009735)	(-2.1337012197122167, 0.59909082085048126)	1.0	z	0.945344
19	N	A	B	M					A	4	3	shapes	M	1	False	72	(-3.1258392972564835, -7.9560660696128549)	(-0.58943977077892562, 6.9150220059208838)	(6.3732596442146772, 5.7424966054425024)	(2.8613676784662321, -5.9491126977356119)	1.0	slash	1.03887
20	N	B	B	N	M	A	M	A	B	8	7	shapes	A	1	False	72	(-2.6347585415945272, -4.8206899301279833)	(4.0518607466514496, 1.9954089142447557)	(-3.7190980589057858, 6.6913186755175698)	(2.8326776120074371, -6.9427176196013161)	1.0	slash	0.954445
21	M	A	M	B					N	4	1	shapes	A	1	False	72	(-6.7156541073886586, 3.1201574565571732)	(1.2391795408737227, -0.48240214959236383)	(-3.9989195757606044, -7.1317369560702693)	(3.2867088079228211, 8.5335815939703217)	1.0	slash	0.796157
22	N	B	N	A					B	4	3	shapes	A	1	False	72	(6.6383760008178498, 5.5244123148409159)	(-2.9737469565972292, -7.4932904236124234)	(-6.4228754025077182, 1.2854677836222397)	(0.93775473774622675, -1.6144810524208735)	1.0	slash	0.879963
23	M	A	N	N	M	B	B	A	M	8	6	shapes	B	1	False	72	(5.3825860303263635, -3.822854705619303)	(-5.2340140117761447, 3.3446754435951735)	(-6.9047469175381879, -0.98685038369519162)	(1.8593461767240331, -7.6614827162934107)	1.0	slash	0.619612
24	N	B	B	A	M	N	A	M	N	8	1	shapes	B	1	False	72	(7.9056641113381616, 7.1559594023708506)	(-4.4315363712002469, 1.2381348313709406)	(-6.8759655873403736, 6.8250971383145949)	(7.5715030257642582, -1.1902636419235844)	1.0	slash	0.877008
25	M	B	M	B	A	N	N	A	A	8	4	shapes	A	1	True	72	(4.8329273305211888, 0.12696816836423075)	(-2.4851852571170419, 3.6392569404986332)	(-8.1331888944548432, -5.7592418388692046)	(-6.618571621579477, -0.52226813537619243)	1.0	z	1.32275
26	N	A	B	A					A	4	1	shapes	A	1	True	72	(2.6359633886165277, -2.4423098958900864)	(-0.15409599242979155, 3.1891116555357133)	(-2.0033083340640276, -7.2727635603856635)	(6.8575567084224485, 7.0480949840694773)	1.0	z	1.59633
27	M	B	B	N					N	4	0	shapes	M	1	False	72	(-3.1113090108710217, -4.7861971234753629)	(0.62612964295977669, 5.534207631354926)	(0.76330973229939048, -7.0192668241582297)	(-3.4481723242270661, 3.8807120704938676)	1.0	slash	0.703858
28	N	B	B	N	M	M	A	A	M	8	6	shapes	A	1	False	72	(0.84180071945132795, 3.2283490720448658)	(-7.2018130808198011, 7.9093511697014307)	(1.0364861858528389, -8.2992464136904971)	(-3.6396633732010182, 4.4948445098730101)	1.0	slash	1.35356
29	M	B	A	B					M	4	0	shapes	M	1	True	72	(-8.5403649640850468, -6.7216441717613638)	(-5.3467305245851291, 6.2272946116197314)	(3.8125612699780582, 7.0699239251033763)	(5.348419048627699, -2.0960143045951991)	1.0	z	0.813394
30	M	B	M	B	A	A	N	N	M	8	2	shapes	M	1	True	72	(-5.9260956976318182, 7.2482455229333471)	(1.5610599759797807, 6.8188300145629999)	(8.3965662480287797, -8.6663187464762697)	(-1.3813422665259978, 0.2918940849998819)	1.0	z	0.894993
31	M	A	N	N	M	B	B	A	A	8	1	shapes	A	1	True	72	(-5.4566364869539044, 6.2902434594388392)	(3.3677458400479097, 8.3018133289973157)	(-8.2981080081695708, -0.49629616021174172)	(3.2409246714045281, 0.60460175319571263)	1.0	z	0.872537
32	N	A	B	A					A	4	1	shapes	A	1	True	72	(-4.8959994424187627, -1.1022312835512738)	(-8.2065709554966411, 2.1783052951608521)	(5.1307161867736415, -4.840699748122157)	(7.8466655793328073, 5.4646613819897834)	1.0	z	0.658273
1	N	A	M	M					N	4	0	shapes	N	2	True	72	(7.8170653626160984, 0.2506978814928793)	(-4.5267348815551589, 7.6175321240793537)	(-4.4293452414369643, -5.8412885668237999)	(8.5751376682191953, -8.4914232725612031)	1.0	z	0.713736
2	M	B	B	N					M	4	3	shapes	N	2	False	72	(-7.2024501474857674, 0.57407363880996165)	(6.5248617936706221, -1.9536838004518131)	(3.3324258207735493, 3.4442117359789535)	(-0.94933010357315251, -2.0538778244363218)	1.0	slash	0.925335
3	N	B	N	M	B	M	A	A	M	8	5	shapes	M	2	True	72	(8.052605990129809, 1.1194723363835308)	(-1.2937243476909392, -6.6478783909880175)	(-6.4243658294031176, -5.9118292564190522)	(-4.4760878764162859, 5.6919283391665498)	1.0	slash	1.29522
4	M	A	M	A	N	N	B	B	B	8	0	shapes	M	2	False	72	(5.8931725414815403, 1.7703382894341555)	(-6.4165596364042257, -1.9013480854545097)	(-1.6847427761758418, 3.2723027216642677)	(4.6514779274806166, -4.7581869927168219)	1.0	z	0.960747
5	M	A	B	B	A	N	N	M	A	8	1	shapes	A	2	True	72	(6.9545605031841475, 7.3637142099256714)	(-7.865661301239915, 6.7595652554981704)	(-1.7817033609171764, 8.7138647985335673)	(-5.5161186572470999, -4.9332060603071053)	1.0	slash	1.11634
6	M	B	N	N	M	A	A	B	N	8	3	shapes	N	2	True	72	(2.7256292260160038, -7.0318999395907404)	(2.886830066865592, 0.055598145817310041)	(-5.2285446776822528, 3.5273486165613548)	(-6.2969158078450551, -6.2891029696444622)	1.0	slash	1.23391
7	N	B	A	A	N	M	B	M	B	8	7	shapes	M	2	False	72	(-3.1817225919332408, 2.4985554629141653)	(3.4596385339846378, -6.4560198738078958)	(1.4003874994324441, 3.7263749143126894)	(8.1398762088413115, 1.5158839520421452)	1.0	slash	1.17364
8	N	B	A	B					A	4	2	shapes	A	2	True	72	(3.0464802763430665, -8.0159282544179042)	(7.5093173584898238, 1.1158619766019076)	(-0.74404319101213723, -1.9269527720910338)	(-3.3890644091727671, 3.0367950557054861)	1.0	z	0.725312
9	N	B	N	B	M	M	A	A	A	8	6	shapes	A	2	True	72	(-1.8816311902003138, 3.5895102842281759)	(-1.0575279249404534, 8.1158426806373427)	(-4.7974585724761241, -8.5670475964223911)	(5.7906647037630439, 0.040221835794721272)	1.0	z	0.880947
10	N	A	N	A					A	4	1	shapes	A	2	True	72	(-7.7947070762741406, -1.174099188376811)	(-1.0587968726494692, 1.6488135624405889)	(8.4173138570716617, -7.861458999811858)	(3.8808028823599567, 5.5246764480709132)	1.0	z	1.47463
11	M	B	B	A					A	4	0	shapes	M	2	False	72	(-5.7598550332590461, 7.4954337841987879)	(3.1247607480625099, 3.3937007699444113)	(-1.3909119113822221, -0.012576062822368783)	(1.5958962229174212, -7.4102029351095133)	1.0	slash	0.862211
12	N	A	B	A	M	B	N	M	A	8	3	shapes	A	2	True	72	(-5.2995687648782583, 0.33937648869923542)	(2.7539138193782815, 2.6889009835019202)	(3.1932151071849795, -5.6355301057358336)	(-1.7871539078444938, -5.7170777272425832)	1.0	z	0.989787
13	N	B	N	M					A	4	3	shapes	M	2	False	72	(4.7576934564432474, -8.6363109432972216)	(-3.8536053536181925, -1.5828105657069793)	(-3.6727080643639658, 4.6961326447004996)	(8.4198344739156461, 0.35335058506903927)	1.0	slash	0.721478
14	N	A	A	N					M	4	2	shapes	A	2	False	72	(-0.73333632645721458, -8.312066473502524)	(5.2483778312317177, 7.484241353329061)	(4.9165976562236438, -6.1921262366964172)	(-5.4897788128140412, 7.9361640514181957)	1.0	slash	0.841144
15	M	A	A	M	N	N	B	B	N	8	5	shapes	N	2	True	72	(-4.9817226233323897, -6.0580504096620071)	(-0.44872737964105802, 5.0501103987434437)	(-1.9941163501027752, 1.2619808614603212)	(4.4141678426199036, -4.1066525533610969)	1.0	slash	0.860795
16	M	A	A	M	B	B	N	N	M	8	5	shapes	B	2	False	72	(7.7075224877984887, 1.9290875061558701)	(-1.9374645726588104, -2.0487856192854492)	(0.48006294540254757, 8.3036673871045359)	(1.4488955006360484, -6.5046414945302846)	1.0	slash	0.832443
17	N	B	B	N					B	4	1	shapes	B	2	True	72	(1.1233923615191479, 0.43396691354412198)	(0.73908306881125085, -8.4235713770328342)	(-2.9932724012913905, 3.5332509252293516)	(-8.1773829326257808, -5.7245807295283395)	1.0	z	0.924003
18	M	B	A	M					M	4	3	shapes	M	2	True	72	(3.457852845575875, -3.8459734592807804)	(0.82736576642537507, 3.7835839403096632)	(-1.8462493587883895, 0.3368791004876357)	(-8.2759544882197265, -4.0815114330137279)	1.0	slash	1.35751
19	M	B	B	M					B	4	0	shapes	M	2	False	72	(-2.9803544963569246, -6.827676693647085)	(5.2226347278702985, 7.3183988441869268)	(6.8310550354313975, -8.5352637237155715)	(-4.9538682766844957, 3.5390216573923894)	1.0	slash	0.641168
20	M	B	M	A	A	B	N	N	M	8	1	shapes	B	2	False	72	(5.5862208512129126, 4.7780499212268559)	(-8.6151395409729865, 6.3758429363802733)	(-1.0342911518645304, 0.56590736812102094)	(0.65838899273652629, -5.5397995727572251)	1.0	slash	1.00713
21	M	A	N	A	N	B	M	B	B	8	7	shapes	B	2	True	72	(-5.4897419531526346, -7.4496380211813182)	(-3.6206558566697273, -0.10181376601982706)	(7.9756889795517303, 2.2310587585227637)	(-0.68833891078361198, 7.3907559279115596)	1.0	slash	0.730655
22	N	A	B	M	M	A	N	B	M	8	0	shapes	N	2	False	72	(1.8398475746137262, -1.0419946107513027)	(-3.631666852802212, -2.392693468089492)	(2.6187401702870297, 4.8393049888774886)	(-8.5084500500828515, 5.7362105860724633)	1.0	slash	0.516294
23	N	B	N	B					B	4	1	shapes	B	2	True	72	(-6.2339499710419108, -8.6481376758824418)	(-1.9642732505011473, 4.1697001505494065)	(4.5891958245747464, 5.9110532771636688)	(7.7940095939924241, -5.9618216460475342)	1.0	z	0.808114
24	N	B	B	M					B	4	3	shapes	M	2	False	72	(2.6920713441636384, -5.4283252841074168)	(-8.5317506103133169, 1.7147187088246323)	(-3.7618606824076313, -0.49302730614876644)	(1.8351663792544759, 7.62624659148155)	1.0	slash	0.799696
25	M	B	B	M					B	4	3	shapes	M	2	False	72	(-5.1290142115507145, -0.64829409849861896)	(7.8807220360734433, -1.2403212107739892)	(-1.6956631426542241, 6.1676746498855977)	(0.22300107953192061, 0.86784187384749778)	1.0	slash	0.649127
26	N	B	M	M					M	4	3	shapes	M	2	True	72	(-7.2904963273915531, 3.6554602984297393)	(7.6251687898156213, -8.2092717770846875)	(3.9063094777437808, 3.9992776140287116)	(-1.7320176932469549, -7.322571696785424)	1.0	slash	1.68888
27	N	A	B	A	B	M	N	M	A	8	7	shapes	M	2	False	72	(-8.097194063810413, -5.7318743051821563)	(-0.057051824764492665, 0.95764409064497791)	(-7.2748905710769955, 7.8996258433632143)	(6.3517387178824727, 4.995865376088382)	1.0	slash	0.71463
28	N	A	N	M	M	A	B	B	N	8	6	shapes	B	2	False	72	(-6.7334047443026659, 6.2768314284750026)	(-6.7003710693144471, 0.20570810413294893)	(5.1368953779101503, 4.0580154720019159)	(-2.7117379840766862, -5.8954932585314008)	1.0	slash	0.712311
29	N	B	M	A	N	M	B	A	M	8	6	shapes	B	2	False	72	(4.6499814544199385, 7.5761361111899319)	(-6.3773755017458171, -3.9881949568037527)	(3.7963217251703423, -4.7814487725076216)	(-0.07029373863570676, 1.6498892214784391)	1.0	slash	0.611674
30	N	B	N	A					N	4	0	shapes	N	2	True	72	(7.976830521822265, -0.55945706207879553)	(-8.081200713524666, -0.85252758236169868)	(4.4984034759169607, 6.1737422344677579)	(-4.2370635738724731, 1.1913626369464652)	1.0	slash	1.37947
31	M	B	B	M	A	N	A	N	A	8	6	shapes	A	2	True	72	(-2.3564462942165267, 6.9884998919841621)	(4.1190336754159436, 5.2902816627732996)	(1.4822197976234222, 1.0274502418394906)	(-6.7582368220984002, 2.1312736367342904)	1.0	slash	1.67524
32	N	A	B	B					M	4	3	shapes	B	2	False	72	(-1.6109774933756009, -1.1106633177673819)	(6.9226722250662522, -7.3571672242374007)	(-8.2662836748343782, 6.3222118851599127)	(3.7170022078955611, 8.3753291339486715)	1.0	slash	0.558699
1	N	B	M	N					M	4	1	shapes	B	3	False	72	(6.1130668363008134, 3.5502056034536089)	(-3.499549247134345, 6.5817823943359759)	(-5.5800195848044929, -6.7805507136550487)	(8.0199835676636972, -8.6023910905539669)	1.0	slash	0.646325
2	N	A	M	N	B	B	A	M	A	8	3	shapes	N	3	False	72	(5.0323953133885961, 6.5573861745477888)	(-6.5497979477811592, -8.1922763967854078)	(5.5062224013767338, -7.376619542310296)	(5.5596109156440772, 0.40656159007812676)	1.0	slash	0.608101
3	M	B	N	N					A	4	0	shapes	M	3	False	72	(-5.8541769793233271, -4.2226487190133515)	(4.5327107586078217, 5.9357160087169678)	(0.65395313621180229, -2.3201310834731697)	(-0.73989781865480886, 5.9242307633664364)	1.0	slash	0.537703
4	M	B	N	M					M	4	0	shapes	M	3	True	72	(-1.0359936828196217, -4.4755863151888926)	(-1.9886901644806381, 0.53836933708434387)	(3.9750621221091524, -5.9778874018118495)	(4.7819783597385559, 0.44823325953672821)	1.0	z	1.34541
5	N	B	B	A					N	4	0	shapes	N	3	True	72	(-6.1681139441399955, 8.3456367505711633)	(4.6959556185820315, 3.0115341994304359)	(3.2762899097894795, -2.7183519384021322)	(-2.9453257446256691, -4.4950492517897889)	1.0	z	0.93497
6	N	A	A	B	N	M	B	M	M	8	4	shapes	N	3	False	72	(7.2682515772420153, 5.7255549569236805)	(1.126028168460536, -1.26977066464634)	(-2.2136695240338486, 6.9911517225749407)	(5.9509945517360912, -2.5348884998877814)	1.0	z	1.03272
7	N	A	B	A	N	M	B	M	B	8	2	shapes	B	3	True	72	(8.0968475242693927, 3.2876161233164272)	(4.8300162064095815, 8.1096286957850019)	(-3.4909861674662874, 2.2894986288857453)	(-4.4059641795848128, -4.5753969581967073)	1.0	slash	0.846345
8	M	A	A	M	N	B	B	N	A	8	6	shapes	B	3	False	72	(-8.5156427743110434, -0.70494394229253921)	(-2.1915750401020233, 4.3597325850447923)	(7.323834877219511, 0.10005984949277824)	(2.7271448887409093, -5.3775873603019697)	1.0	z	1.27987
9	N	B	N	A	M	M	B	A	N	8	0	shapes	N	3	True	72	(-7.793954593080386, -5.9888642707563964)	(1.2693951822303422, -4.3488377503281539)	(5.1217675624177357, 5.7450896279300903)	(-7.4794094807352955, 6.0580218279460709)	1.0	slash	1.40359
10	M	A	B	B					B	4	2	shapes	B	3	True	72	(4.7019871445216719, -0.82298736732008049)	(-8.7221984254944811, 3.1019390988589493)	(2.7299614475801413, 7.8419900708469577)	(-6.2468767155588107, -3.5814068617958217)	1.0	z	1.06105
11	M	A	A	N	N	M	B	B	M	8	2	shapes	A	3	False	72	(-0.79255599865567028, -4.3942621123872536)	(5.2977340680521525, 1.3041858741509245)	(-7.9533398989977044, 1.6883402085976851)	(-5.1496308472853656, -2.6978133406102325)	1.0	slash	0.974675
12	M	A	N	N					N	4	1	shapes	A	3	False	72	(4.6767368257667936, -4.1768211472543371)	(4.654860846464203, 0.12873300063935389)	(-0.22752716788566119, -4.0184922986745635)	(-0.39730455100242601, 6.5101137985261701)	1.0	slash	0.910397
13	N	B	M	M	A	B	A	N	M	8	2	shapes	M	3	True	72	(4.6254568670273262, 4.3188533305208221)	(-4.1903975799043227, 5.1052870984522798)	(2.4065882522654221, -8.5036422989093872)	(8.1595661459166458, -6.7965345772067778)	1.0	z	1.148
14	N	B	N	A	A	B	M	M	M	8	3	shapes	A	3	False	72	(-7.234242018768442, 2.8880102326946613)	(-0.90223579334877524, 8.6683858783663261)	(4.7689175116057747, -3.8223639587394986)	(-6.1618615277699496, -3.4807008743765762)	1.0	slash	0.617734
15	M	B	M	N	B	A	N	A	A	8	7	shapes	A	3	True	72	(-6.2584713159101604, -4.6676068711603556)	(-1.9976082365418462, -0.57358724575279574)	(7.5577345721760736, -2.0558558294037388)	(-7.2858303779066595, 3.227746534457177)	1.0	slash	1.0594
16	M	A	A	B	N	M	B	N	M	8	4	shapes	N	3	False	72	(8.3693268859076149, -2.8498901364240199)	(-2.2613756685885331, -4.4176476858655356)	(-6.4550212064284871, -5.5368459076147793)	(-0.82484118906663184, 0.06746924586824754)	1.0	slash	1.06105
17	M	A	M	B	N	A	B	N	N	8	4	shapes	N	3	True	72	(3.8202780321387007, -2.0903630307299768)	(-7.2285265772282266, 6.7237537976313586)	(-3.1715034767248964, -1.4150290607942031)	(-7.6073785865059582, 0.061649309543394537)	1.0	slash	0.628555
18	M	A	A	N					A	4	1	shapes	A	3	True	72	(-5.9393169639466921, -1.6313011343787887)	(5.8905875610525786, 7.4312455748200996)	(-1.3209380966207318, 4.1967158716206026)	(8.3362811728201827, -2.5838383218582974)	1.0	z	0.776352
19	M	A	A	M					A	4	1	shapes	A	3	True	72	(4.1391378912989865, 0.68512572502308622)	(-0.61086881040212049, 7.9302392635944585)	(6.747322050794196, -7.1911586423333933)	(-0.40861857324679285, -1.8648768515726024)	1.0	z	0.823848
20	N	A	N	M	A	M	B	B	B	8	6	shapes	B	3	True	72	(-3.1075821262316028, -8.6899962145717016)	(7.3459439193729992, -1.3181050542139463)	(-3.3392291789821797, 4.83963170308275)	(1.1400436449904241, 0.17720342396169464)	1.0	slash	1.06552
21	N	A	M	A					A	4	1	shapes	A	3	True	72	(2.2163921103753932, 0.83329249041416809)	(-5.0803096561531191, -5.2122598901455977)	(-1.9731853414777518, 3.2743675516079325)	(7.2248731463675604, -0.69293442608619671)	1.0	slash	0.663317
22	M	B	M	N					B	4	1	shapes	B	3	True	72	(6.5600821280809498, -2.3117388496322384)	(-2.4453165324877908, 4.8590748855838761)	(-4.8332808849200459, -7.7056749674564422)	(3.3274903450990507, 8.3819554409952062)	1.0	z	1.30871
23	M	B	B	M					M	4	3	shapes	M	3	True	72	(8.4051509887560165, 8.5546397445360824)	(-0.058479330345068803, 1.8767746556689033)	(4.2815848198355901, -4.8486899603188958)	(-6.8344745790594867, -6.1451061466053272)	1.0	z	0.992486
24	M	B	B	N	A	N	A	M	N	8	3	shapes	N	3	True	72	(1.2822768279654699, -2.276051713204664)	(2.192112529700541, -7.2521414685060916)	(1.2985676732025944, 7.8804239027849228)	(-7.2821034524316044, -3.6874940059248438)	1.0	z	1.23017
25	M	B	M	N					N	4	1	shapes	B	3	False	72	(-0.95861674612385528, 6.4919672178982459)	(-4.8496727588595556, -1.0892766210197822)	(3.0978907843008283, -2.8087822291704967)	(7.8428282432193193, 7.6690596990645155)	1.0	slash	0.673701
26	M	A	M	B	N	B	A	N	M	8	1	shapes	A	3	False	72	(-0.06680475796468599, -2.4483928595932145)	(7.6052492928767421, 5.5105995053584635)	(-6.4330958031057479, -0.9722182086841693)	(7.3771812248596227, -7.9005021922166661)	1.0	slash	0.901384
27	N	B	B	N	M	M	A	A	N	8	3	shapes	N	3	True	72	(-3.7074253656148093, -0.088696158594661512)	(-1.6394816089248643, -5.9735137875832418)	(2.432736037026201, 1.3756875900706014)	(6.4598286598250318, 6.8483175365694269)	1.0	slash	0.879131
28	M	A	B	B	A	N	M	N	N	8	0	shapes	M	3	False	72	(-1.2186597761456754, -7.1370199300445067)	(-5.7052894796256091, -2.315454527161549)	(-6.045518295691803, 6.4372546803536999)	(5.5923701910323302, -3.73852253541894)	1.0	slash	0.658681
29	N	B	N	B					M	4	1	shapes	B	3	False	72	(3.7965978230559294, 4.840366758814767)	(-1.2236830098053151, -4.0798981401310117)	(1.1212993164415579, -0.75187985714727201)	(-8.4360104417911792, 4.078999347021897)	1.0	slash	0.672474
30	M	B	M	N					N	4	0	shapes	M	3	False	72	(3.1685887324556337, 1.5682431872784033)	(-7.3566013788343492, -3.6765962229999962)	(2.4948193714946107, -8.619570179822917)	(-1.7249268546620167, 8.6176827228676522)	1.0	z	0.876184
31	M	A	A	B					N	4	0	shapes	M	3	False	72	(-3.9173147840369849, 3.2135092731814989)	(5.2754864958299521, -1.1187482927720138)	(-1.852435751388505, -1.6742085165640681)	(3.0159659111466315, 7.7801569548283851)	1.0	z	0.959727
32	M	B	B	N					B	4	3	shapes	N	3	False	72	(2.9460549242099443, -7.2491836855407552)	(-1.3498194435931374, -1.9119483910634694)	(-3.9395074428642456, 3.4063054588998245)	(0.32866502947796938, 2.4305947683785618)	1.0	slash	0.769306
1	M	A	N	N	A	M	B	B	N	8	2	shapes	N	4	True	72	(-7.0069318826047482, 2.1713821696915705)	(-5.9834005197756817, -1.9216598685597894)	(5.0269133957059733, 0.94022632267506623)	(-0.36687579771694523, -4.3156214142616118)	1.0	slash	0.59121
2	M	A	B	B					M	4	3	shapes	B	4	False	72	(-7.9629016724616708, 6.7190322924124999)	(1.7884632870054062, -0.68759069832597675)	(6.369359636738448, 3.8412416383992127)	(-3.4752502468176534, -3.5120568104818215)	1.0	slash	0.898772
3	M	A	B	B					M	4	0	shapes	M	4	True	72	(7.8771725691243013, 7.2238711934303499)	(-3.151932908397912, -4.9496288450627528)	(1.2247977392027387, -6.0737599714517287)	(-5.1455525100586028, 0.70575307159068856)	1.0	z	0.768279
4	N	B	B	A	M	M	N	A	B	8	2	shapes	B	4	True	72	(-5.1597951608521768, -5.9446507610449677)	(3.7441387465217755, 6.8626097155793069)	(-6.8149221057974199, 1.4301623483122654)	(-0.39849455839112657, 8.7211779902635023)	1.0	slash	0.869934
5	M	A	N	A	B	M	N	B	N	8	2	shapes	N	4	True	72	(-8.0563570657229047, -0.92994764604782976)	(-2.9558956400836278, -5.8691844235094148)	(5.511347231536627, -4.1435410388176761)	(1.5740307720911257, -0.57569891552650354)	1.0	slash	0.891596
6	N	A	A	B					A	4	3	shapes	B	4	False	72	(0.5145873320482135, 0.72699873811215099)	(4.4577432610664154, -7.7650074858398463)	(-2.6850158925153451, 6.6273810578045609)	(-7.7816165873669334, -5.1032142332259784)	1.0	z	1.1632
7	M	B	M	A					N	4	1	shapes	B	4	False	72	(3.5995813159127383, -7.5022249022109326)	(-0.30517223202684818, -1.8011714057413508)	(3.2012027784689323, 6.8780386968962937)	(-7.2279143161105575, 1.3982745569770945)	1.0	slash	1.23723
8	N	B	M	B	M	N	A	A	B	8	6	shapes	A	4	False	72	(-0.49532153858764261, -7.0827913276991783)	(-3.292728198288291, 7.9420080123873262)	(-7.7015938723692452, 3.8209644753009488)	(-7.4651426322028831, -4.64274191344151)	1.0	z	1.36843
9	N	B	A	N					N	4	3	shapes	N	4	True	72	(-4.1776187552988509, 4.2046470542740053)	(8.379840839382144, -3.7841816716853343)	(2.7040489604319493, 7.3289342469518566)	(-1.9796524014401147, -4.046147057479148)	1.0	z	1.32808
10	M	A	M	N	N	B	A	B	A	8	1	shapes	A	4	True	72	(8.1366699245114127, 0.99249009629852303)	(7.2064856857215673, 5.9809324426210591)	(-2.6447351017951872, 0.42300425013820941)	(-3.3511176405355689, -7.1702951755976221)	1.0	z	1.38783
11	M	A	N	N	M	A	B	B	B	8	7	shapes	B	4	True	72	(7.0591315724989645, -5.8968514033565924)	(1.2890121495568287, -3.3090306881877511)	(7.6694928161927507, 7.1734339334963515)	(7.9487874313853766, 0.19827366787669654)	1.0	z	1.64321
12	N	A	A	B					A	4	1	shapes	A	4	True	72	(-6.7097082158489219, -5.6935035538500181)	(6.7382623740768324, -5.3002787818899062)	(-0.087368334392387226, 1.3231898959054238)	(7.0215563395601794, 1.1269972841243003)	1.0	z	1.15691
13	N	A	B	M	M	B	A	N	M	8	3	shapes	M	4	True	72	(3.5578769663672514, 0.84535168058876131)	(-6.5542184111394697, 4.9407773365328431)	(7.6354405491332464, -7.171686271537788)	(-2.244283418205721, -6.4073987751796215)	1.0	slash	1.41655
14	N	A	B	A	B	M	M	N	N	8	5	shapes	M	4	False	72	(4.1884500817730483, -1.3897960307957087)	(-4.4184400963954307, 1.8687873692579142)	(-1.5730025078060317, -3.506478794789146)	(0.73500325001574218, -7.5625630887894415)	1.0	z	1.32009
15	M	A	M	N	N	A	B	B	B	8	4	shapes	N	4	False	72	(-2.9156513861451501, -5.0180867574128136)	(3.4115453327511158, 6.1170675130972523)	(8.1814775793852554, 2.800672834062949)	(4.8937956162660718, -5.308609079531923)	1.0	slash	1.2358
16	M	B	A	N					A	4	1	shapes	B	4	False	72	(-8.6399283488824672, 2.2472395861942633)	(6.8485201102116626, 8.4016141196401861)	(-5.944952546289997, -0.71439625821598618)	(5.6126561681529523, -1.5598409837808989)	1.0	slash	1.23143
17	N	B	N	B					M	4	3	shapes	B	4	False	72	(-1.1500420583467319, -3.8953182969595037)	(2.6028487176700477, 6.7486554855013896)	(-4.1890724476917747, 1.498567205235231)	(7.0664556775264504, -1.2302237292328968)	1.0	slash	1.29883
18	N	A	M	M					B	4	2	shapes	M	4	False	72	(-6.2221360611881229, -2.2327850305300645)	(-2.7136003239286026, 1.78808736339513)	(2.0806010822816532, 8.3795815018254807)	(3.8823848567426076, -3.8607980330185825)	1.0	slash	1.60859
19	N	B	N	M	A	M	A	B	M	8	6	shapes	A	4	False	72	(-2.867055534450758, -3.6726915610655606)	(5.04323118399512, 3.137752459361602)	(-7.7305761072065122, -8.5241109339147556)	(6.6379726568945241, -7.3304251866305297)	1.0	slash	1.22814
20	N	B	A	A					N	4	2	shapes	A	4	False	72	(-5.6976822537413794, 8.5134031502173855)	(-2.080286740466903, -0.58858495221188001)	(0.50716555514836692, -5.073045170122235)	(4.0422786065308411, 3.3268842974736916)	1.0	slash	1.5119
21	N	B	M	M	A	B	N	A	M	8	6	shapes	N	4	False	72	(5.6245365673756975, -0.77288450258538077)	(-3.1002535491499259, -7.742482841049334)	(-5.8738488779014162, 7.7872686157583253)	(5.069104996218881, -7.2767802365603096)	1.0	z	1.88529
22	N	A	B	B					B	4	2	shapes	B	4	True	72	(8.0963235445845569, -0.22278073271897547)	(-3.8586777749297632, -5.6585901986420701)	(8.2960270465859942, 4.0613124123656092)	(-3.302250908751807, 5.0988968525738532)	1.0	z	1.35095
23	N	A	N	B					N	4	0	shapes	N	4	True	72	(5.0322912823828059, 4.1237430971100952)	(4.0414541520426592, -1.6169721149922269)	(-1.903754915713697, -5.7802955307731612)	(-3.7601343021753717, 6.7700443442930833)	1.0	z	1.20266
24	N	B	N	B	M	M	A	A	N	8	6	shapes	A	4	False	72	(1.4598793058493076, 0.91432587581616076)	(-2.1429104559173933, 6.4820525628262011)	(5.2218300943813816, -1.787681863030449)	(-3.6178310229528563, 1.2602871009121941)	1.0	slash	1.11615
25	N	A	M	N					N	4	0	shapes	N	4	True	72	(8.3972552368673803, 6.1365247578486617)	(1.6634237135035477, -0.99584838234225881)	(-3.4166246000403246, -8.7474377191131207)	(-7.4223946905780718, 0.2998025146340968)	1.0	z	1.2639
26	M	B	A	B	A	M	N	N	M	8	2	shapes	A	4	False	72	(-7.8830725746586578, -8.0556037360043717)	(1.8510727910804121, -2.1320962591545118)	(-7.6700966399669079, 5.7097210038812385)	(-3.8314199331868366, 1.2987781151183615)	1.0	z	1.42946
27	M	B	N	M	N	B	A	A	M	8	0	shapes	M	4	True	72	(0.63944980130701978, 4.8012422643348405)	(-7.9758788849152404, -4.4194263104170206)	(-2.6924767584764915, 1.2755195855892723)	(-5.7258953705291393, -8.1584247814595727)	1.0	slash	1.17902
28	N	A	M	N	A	B	B	M	N	8	7	shapes	M	4	False	72	(-6.4479800341536659, -3.5971294855011191)	(2.5192473411717007, -0.44872366154136145)	(6.0063504051071934, -2.899676607748825)	(-5.4057192705823187, 1.0289867887895543)	1.0	slash	1.43671
29	N	B	A	B					N	4	0	shapes	N	4	True	72	(5.1358725809758976, -4.1777909010345784)	(-4.6619412185347295, 1.7753139596026664)	(2.8726993549574438, 2.0646421955967948)	(-1.6943767641396885, -1.8798273289262672)	1.0	z	1.35828
30	N	A	M	M	A	N	B	B	A	8	4	shapes	A	4	True	72	(-7.2299033231272904, 1.8140880071672409)	(1.9902731253553636, -4.9784170971678758)	(0.42114459038027086, 5.2773106868517541)	(-6.8728820152197132, 7.2040473268630976)	1.0	slash	2.13186
31	N	A	N	M					M	4	0	shapes	N	4	False	72	(-5.9288441217547856, 7.1782724973928023)	(0.92170323077861305, -6.9665633844947266)	(-1.2654121259836906, -2.5862609871786537)	(1.0684162444465048, 4.1830031179957814)	1.0	z	1.77154
32	N	B	A	N					A	4	2	shapes	A	4	True	72	(4.2101946449923862, -2.5370265887535703)	(-0.60009822292153636, -0.22037055784322312)	(-4.0964814590800271, 3.5494288018249236)	(6.3335753056082531, 5.0724113466109753)	1.0	z	1.47314
1	N	B	B	N	M	A	A	M	A	8	6	shapes	A	5	True	72	(3.724960646722673, -8.5112227908899349)	(5.4378445734469398, -4.6945253068955859)	(0.3675924152495007, 7.7404569875628084)	(-5.6631405522767757, 2.1503595017854309)	1.0	z	1.42869
2	N	B	B	N	M	A	M	A	N	8	2	shapes	B	5	False	72	(0.1482335718436012, 1.4466758562652018)	(-0.9621861631770674, -3.3546733176948242)	(6.8623939062576547, 5.0869706745239096)	(-7.2926337090091078, -6.1396448654649607)	1.0	slash	1.27621
3	M	B	A	M					M	4	1	shapes	B	5	False	72	(-2.8212585287567951, -5.3694929315212212)	(6.8090557440458923, 6.6209897964634123)	(5.5328379179509337, -7.66970743696446)	(-6.0650701078484897, 8.1587708730981774)	1.0	slash	1.15998
4	N	A	B	M	B	N	M	A	A	8	1	shapes	A	5	True	72	(-6.9769499505329016, -7.5703606909398005)	(-1.828903023526383, 5.9644331785483153)	(4.985420902767995, -8.3483143699978974)	(-2.748680140701901, -3.3499618954074641)	1.0	z	1.76556
5	N	A	N	B					B	4	3	shapes	B	5	True	72	(1.906017567055363, -0.5060788029394967)	(6.8724811820018807, 0.042661719872233661)	(-2.0878892380853786, -6.829080003851784)	(-2.5794611249630908, 7.5156902209173531)	1.0	z	1.2391
6	M	B	N	N					N	4	0	shapes	M	5	False	72	(4.8837700539096467, -1.5743177409731093)	(0.75479503066761211, 5.3162253392180645)	(-4.0873839925441473, 0.19888289154630989)	(-0.26678567550863619, -4.6851064772032398)	1.0	slash	1.28079
7	M	A	B	N	A	M	N	B	M	8	2	shapes	B	5	False	72	(3.5005357389109353, -5.234012887876025)	(1.4733366066798723, 4.1480216742126519)	(4.9012801618084598, 8.1401488743684993)	(-5.8828483244979504, 1.2756761962285363)	1.0	slash	1.21429
8	M	B	M	B					B	4	1	shapes	B	5	True	72	(3.7134683136404192, 1.1063193642406475)	(-5.9348094906324764, -7.8141610444056759)	(-5.2611030716208536, 7.5390921508898181)	(0.077525471754601227, -3.9272746925207329)	1.0	z	1.15794
9	N	B	B	A					B	4	3	shapes	A	5	False	72	(-5.8086142960487965, 2.8976488383168526)	(2.4838516341293069, 2.3207926697897818)	(4.8212121981064282, -3.2458000979739152)	(-5.2975188775890434, -7.9943034124180219)	1.0	slash	1.18359
10	N	B	A	B					N	4	2	shapes	A	5	False	72	(-7.3143699871541354, -3.0550201610820436)	(1.9049529334043758, -2.837736282886107)	(5.2920540257640596, 4.7961121836358931)	(-3.3386337053677861, 2.7123971611878801)	1.0	slash	1.53323
11	M	B	A	N					M	4	0	shapes	M	5	True	72	(-3.0484218610162603, -4.8646543788938796)	(3.5954871419727983, 8.7373563595250729)	(4.0168397499141602, -7.7470028185879674)	(-6.8908264867560431, 7.2802955381138759)	1.0	z	1.34883
12	M	B	A	N					N	4	3	shapes	N	5	True	72	(-1.4974885868240655, 5.5743555384586312)	(-7.0260567001542773, -7.2062797972456227)	(7.891140744352608, 2.0170152807218251)	(7.4433760327578753, -8.5008347523063268)	1.0	z	1.87236
13	M	B	B	A	N	N	M	A	M	8	6	shapes	M	5	True	72	(-4.131032515574506, 0.82584236149105372)	(-3.0509659606163648, 6.594601026786437)	(1.0678014604784494, 1.4175293230974102)	(7.7457603546413409, -7.8658153901113641)	1.0	slash	1.63806
14	M	B	B	A	M	N	N	A	A	8	3	shapes	A	5	True	72	(2.4190256752087258, -7.930765497039272)	(-5.6134713359806456, -3.0154340326738334)	(2.3400830567022624, 1.3832036046077008)	(-6.2594897194475401, 7.8870457680935928)	1.0	z	0.97755
15	M	A	N	A	M	N	B	B	B	8	0	shapes	M	5	False	72	(-4.7261725663479268, 4.8538589046639462)	(-3.5318406246869927, -3.3569027261313318)	(-0.70738428618419213, -0.51621501933713709)	(1.7441409183304462, 6.9714838973103159)	1.0	slash	1.51514
16	N	B	B	N					B	4	1	shapes	B	5	True	72	(0.20936766677695395, -7.6638481569413219)	(2.8861158034332952, 6.9536165387679372)	(-4.4318715461915339, -0.95279045698268572)	(-8.6533475692803563, 8.7193461970851587)	1.0	z	2.12683
17	N	B	A	N					A	4	2	shapes	A	5	True	72	(4.6557209447937034, -4.8869657897166494)	(2.1931653869671006, 0.03377624748699759)	(-7.9390830231179148, 7.1642363632522059)	(-3.7381472416015518, -3.2404808663909783)	1.0	z	1.15241
18	N	A	N	A					M	4	0	shapes	N	5	False	72	(-3.2600635063828332, -6.8586707004400322)	(-3.6882011263459136, 6.2135411644046901)	(7.7673755186357063, -3.6893020409243791)	(1.8660907587617075, 3.1341850531850497)	1.0	slash	1.27594
19	M	B	M	N					N	4	3	shapes	N	5	True	72	(-8.4504753882230528, -5.0097026129229931)	(4.5045314458506667, 8.1211975399801091)	(2.8191091761033267, -3.7479259504248503)	(-2.2312817222076688, 0.01277355492196719)	1.0	slash	1.56752
20	M	A	B	B					N	4	3	shapes	B	5	False	72	(3.723158907026491, -3.5146766747519624)	(-4.9258625465969494, 4.7142694264437814)	(2.0484932432127714, 4.8457158392827893)	(-7.5779646284800783, -7.8519951732342648)	1.0	slash	1.26293
21	M	B	B	A	N	N	M	A	M	8	6	shapes	M	5	True	72	(-6.7883165798709637, 4.1256189997220964)	(-5.619580202376584, -4.6235755061471986)	(-1.7632939095531395, -3.1047450984028737)	(3.888819645151619, -2.2493666857911547)	1.0	z	1.65259
22	M	A	B	B					A	4	1	shapes	A	5	True	72	(-2.2987953839915427, 0.033484599580562602)	(7.0219658733564074, 0.056214395466476219)	(7.8287298665002041, -8.5795680364417883)	(-7.6394675369177341, -5.2325474116448172)	1.0	slash	1.34841
23	N	A	B	N					M	4	0	shapes	N	5	False	72	(-6.2414137882269198, 1.2112648112495563)	(0.2090442393773646, 2.6219947574700164)	(-3.1014184012965256, -4.3953842208245639)	(6.4457004981102735, -4.311917151378271)	1.0	z	1.1519
24	N	A	N	M	M	A	B	B	A	8	1	shapes	A	5	True	72	(-7.7142677239017594, -4.4237061460582483)	(-3.5408059627652353, -3.6361761481449628)	(2.8145352138185427, -1.6800698353840327)	(6.9744189361285134, 5.4916471320355686)	1.0	slash	1.35761
25	M	B	B	N					M	4	3	shapes	N	5	False	72	(0.83131820196517126, 0.81771115329998345)	(3.7400748879436083, -2.8260873293456887)	(-5.3581536684695585, 8.5391973605376883)	(-7.019451236042153, -1.0848714325265316)	1.0	slash	1.33722
26	N	B	B	N	A	A	M	M	A	8	2	shapes	B	5	False	72	(-6.8118294756989366, 3.2701297463041747)	(4.2175194696286162, 7.4247188490363776)	(6.4678892540979582, -5.2525530070841118)	(2.1368168164968804, -7.8422916980203929)	1.0	slash	1.47288
27	M	A	A	N	N	M	B	B	M	8	2	shapes	A	5	False	72	(1.9212002289650396, 5.2868416847389916)	(4.4678781903611391, -0.4511457412368749)	(-2.0645692611107789, -2.7607640840380929)	(-6.5080184380744379, 4.1106242508067812)	1.0	slash	1.14055
28	N	B	N	A	M	M	A	B	A	8	6	shapes	A	5	True	72	(-0.98047850919808344, 8.1543555545571422)	(-3.479134449805362, -5.5182910381095516)	(-6.4242731613402766, -0.93303298182512506)	(5.2722018216131659, -6.1502670544956919)	1.0	slash	1.08601
29	M	B	N	N	M	B	A	A	M	8	4	shapes	M	5	True	72	(7.180954448212125, 5.400143629267923)	(-2.0695146788095364, 7.1256743454204212)	(-6.1890598701180792, 5.9693036693049333)	(8.0752685330145511, -5.3319718092622379)	1.0	slash	1.25538
30	M	A	A	N	M	B	B	N	M	8	6	shapes	B	5	False	72	(4.6824200303567789, 3.614940799601488)	(5.4816357079085201, -6.8178206926512548)	(-7.6839674254180448, -1.0706772515054768)	(-1.5446083344619685, -2.0833473970648821)	1.0	slash	1.49536
31	M	B	M	A	N	B	N	A	N	8	0	shapes	M	5	False	72	(-6.5973555497325833, 3.357136195995885)	(7.5967905813470793, 5.5223986395023879)	(6.9608905004474853, 1.4327144567594665)	(0.092606177803435941, -2.9425580093845634)	1.0	slash	1.77494
32	N	A	M	B	A	B	M	N	N	8	3	shapes	B	5	False	72	(-1.6976611881143295, 7.3799201313848357)	(1.7015332373583814, -6.0556252369875301)	(7.2921165573087414, 7.053817974433894)	(-6.2731036444576205, 6.6197208546057755)	1.0	slash	1.17653
1	N	A	N	B					N	4	1	shapes	A	6	False	72	(7.5746349126603825, 7.425719535099276)	(-2.9672553530385919, -1.5745495017555431)	(7.4659394237915429, -7.0289458582566686)	(-7.7628949933302236, 4.3337622748702245)	1.0	slash	1.0923
2	M	B	B	M	A	A	N	N	M	8	5	shapes	A	6	False	72	(-3.6802054284690788, -0.75202528050149464)	(1.2954649483965355, 8.5360766231569656)	(-7.1194977390496739, -8.3772423430439389)	(-1.4866038406315001, 2.786601739096886)	1.0	slash	2.58964
3	N	B	A	A					N	4	0	shapes	N	6	True	72	(-5.3189262000705355, -8.251636646154779)	(7.3353199304199812, -2.1901919227026552)	(6.4264193285757276, 4.2859510215326786)	(-5.8070785978819064, 6.7003661804111623)	1.0	z	1.22537
4	N	B	N	B					A	4	1	shapes	B	6	False	72	(7.8139381474317133, -2.6984522464965686)	(-2.0175741131539118, 2.0830941397355964)	(-3.1091046617212736, -2.3225166585150356)	(5.330247447847503, 2.5656922998427554)	1.0	slash	1.10294
5	M	A	B	M					B	4	2	shapes	B	6	True	72	(6.926209656767, 0.52064076848199647)	(4.1244403714827413, -5.3000341160229567)	(-1.8817084044241712, -6.2533778481961573)	(-3.8784477824677426, 5.3932730707541978)	1.0	z	1.22861
6	N	A	A	N					B	4	1	shapes	A	6	False	72	(5.3704655592757629, -5.0276034608545217)	(-0.58603148091892798, -3.4212927061814211)	(-3.4982260139838699, 1.1486119215878734)	(6.7441205117986662, 0.46825850231495281)	1.0	slash	0.998193
7	N	B	M	B					M	4	2	shapes	M	6	True	72	(-7.3212613745123241, -2.1174903296715204)	(0.56189318430363855, -3.4913037829131959)	(-3.162582838848965, 7.2528436467014323)	(4.3790333990146681, 4.9549334646130632)	1.0	z	1.31177
8	M	A	B	N					M	4	0	shapes	M	6	True	72	(-2.4755597704997356, -0.77642339680702488)	(6.195713715558572, -0.28551302121551814)	(-5.2424401781558423, 4.0885954781655567)	(1.1497269052741288, 1.4464533477170356)	1.0	slash	2.05181
9	M	A	N	A	N	B	M	B	B	8	5	shapes	B	6	True	72	(-7.2974761490080819, -2.5506468433114531)	(6.2602563052908486, -1.8174311328762469)	(5.2274282879339928, 7.1831870737539703)	(-7.8263390099468184, 4.7887340041413307)	1.0	slash	1.37107
10	M	A	B	M	N	N	B	A	N	8	2	shapes	B	6	False	72	(4.3507463898012393, -0.70395921445519072)	(1.2480176464884849, 5.2178938198593681)	(1.8999041900004272, -7.7897047518002926)	(-8.452345313502466, 3.3028674862082745)	1.0	slash	1.22254
11	M	A	B	N					B	4	1	shapes	A	6	False	72	(-2.0289000470630993, -7.6657313058134022)	(4.419735287668761, -8.3961300332709907)	(6.7015827125336216, 0.72501102660449845)	(-0.66087302350026533, 6.4235729274190287)	1.0	z	1.20423
12	N	B	A	B	M	M	A	N	A	8	2	shapes	A	6	True	72	(5.6379136616825729, 7.3885827783360973)	(4.9223047782989209, -2.3788540421988476)	(6.3105637815184803, -6.7449296400731082)	(-3.4786488439847298, -8.5789704823396651)	1.0	z	1.26185
13	N	B	N	B	M	A	A	M	M	8	0	shapes	N	6	False	72	(1.4831708336666107, -7.2072078894402978)	(0.44678069336312554, 1.9330102852144613)	(7.1345804899166776, 8.5344627630154335)	(7.3277023153044887, -1.7414985263282228)	1.0	slash	1.12571
14	N	A	N	B					M	4	2	shapes	N	6	False	72	(-2.1827778787297678, 5.8269931284900931)	(5.9528060578379041, -7.1732595210380978)	(7.7649251753688731, 6.2303712171149837)	(-6.7589532856068537, -1.6181494913010255)	1.0	slash	0.935044
15	M	B	A	M					M	4	1	shapes	B	6	False	72	(-0.34061319724428607, 4.1379385042775461)	(5.7293295038081649, -7.0652205170009506)	(6.7406991798488178, 1.4336353359786358)	(-8.1582330209992566, -1.808169099635446)	1.0	slash	1.21456
16	N	B	A	N					N	4	3	shapes	N	6	True	72	(-7.9616256751959167, -4.8542057882083398)	(3.2425097001576919, 0.2381851149243861)	(-3.6544978005965199, 1.3923071897076014)	(8.7394350200251942, -7.3692589952959811)	1.0	z	1.27824
17	M	A	M	N					A	4	2	shapes	M	6	False	72	(-2.5626525661781558, 1.5309966068614376)	(2.5459458379442665, -4.5255828226483326)	(1.7032428607254229, 1.4782460821206023)	(-5.4786833033592224, -4.7223866313366756)	1.0	slash	0.943408
18	M	B	N	M	A	B	A	N	N	8	7	shapes	N	6	True	72	(-1.5774830618471798, -7.1706669056179742)	(-8.1569513903930062, -3.4770722283815161)	(3.859598322827809, -6.735788276679866)	(6.0061990010491559, 2.2007764946525743)	1.0	slash	1.45556
19	N	A	M	B	M	A	N	B	B	8	5	shapes	A	6	False	72	(-4.0630333840492421, 0.27333538290600323)	(-1.3309388111517713, -7.0365032847220998)	(6.2223266910365833, -0.82469891471558032)	(8.2029833004541288, 6.5353081013754277)	1.0	slash	1.52905
20	N	A	B	M	B	A	N	M	A	8	3	shapes	M	6	False	72	(-1.5332247378842938, -7.2739652860749739)	(6.2709348223847492, 4.9799084154309572)	(-3.7347666249364586, -2.6494204967311248)	(5.9073087663573585, -1.8471313656070212)	1.0	slash	1.69267
21	N	A	N	M	A	M	B	B	N	8	0	shapes	N	6	True	72	(3.9015643399815971, -3.4608785318623578)	(2.8419395470434292, 3.4396336157481215)	(-1.4456540559059308, -2.7954994796618697)	(8.0197145913765731, 4.1218884918019221)	1.0	slash	1.23837
22	M	B	M	B	N	A	A	N	N	8	7	shapes	N	6	True	72	(-1.0226458053480858, 2.6184497595125773)	(6.5181704390147601, 2.9541376158011321)	(-5.0804932824483213, -1.6225100032835247)	(-0.88047522140355738, -1.6951077855899435)	1.0	z	1.6679
23	M	B	M	N	B	N	A	A	A	8	0	shapes	M	6	False	72	(7.8653695299866584, -8.7113793471295722)	(-5.4289772360134378, 8.4123389399239663)	(-3.1262316816978331, -0.056581299812354047)	(-1.3969420266825168, 4.9757681772439089)	1.0	z	1.45951
24	M	A	B	B	N	M	A	N	M	8	0	shapes	M	6	True	72	(-2.872232496968766, 6.2367485764758879)	(3.1494839974632267, -7.6070883482554876)	(-1.5747093241563137, -2.7942067267083974)	(1.6421206274371745, 2.8543018940279907)	1.0	slash	1.26111
25	M	B	A	B					A	4	1	shapes	B	6	False	72	(-5.6949177587757038, 6.9705492407481451)	(8.4636208130132218, -7.2974493416762831)	(-2.2691615354507393, -2.6884100490469667)	(4.2286285692234191, 6.1096781937724831)	1.0	slash	1.26678
26	M	B	A	M	B	N	N	A	A	8	1	shapes	B	6	False	72	(2.6190153183459088, 2.1017403701900097)	(0.39125071191863903, -5.1671268806739423)	(-6.414544028017283, -6.4632293378123116)	(8.4176154578996858, 7.4451302557731367)	1.0	z	1.33036
27	N	B	A	M					M	4	3	shapes	M	6	True	72	(2.9730326965341245, -0.34995149040065066)	(-0.41124193242316487, -7.089770918076816)	(3.9520731183311177, 6.8554934201691609)	(-8.6720850468290074, 1.6817540114583913)	1.0	z	1.57799
28	N	A	A	N	B	B	M	M	B	8	2	shapes	A	6	False	72	(2.1637360098553611, -0.98866871177899185)	(1.4329689046102825, 6.2122620018907053)	(-4.0791471829206429, 2.7813023134739865)	(4.5862702583310977, -7.0997612277972335)	1.0	slash	1.53942
29	N	A	B	A					B	4	2	shapes	B	6	True	72	(-2.7368507600403467, -3.6064554542528375)	(3.5622290562852523, 1.3283954583675417)	(-4.0906366259551161, 8.5050680839459609)	(8.2375060184487197, -8.7041876174992403)	1.0	z	1.28926
30	N	A	N	B	M	M	B	A	N	8	2	shapes	N	6	True	72	(-7.3894896314983551, -0.38216444398224247)	(-0.81605146090943048, -8.6821847833720369)	(8.4684205550547063, 3.9831966908734753)	(3.6928515481511504, -7.6265402983312001)	1.0	slash	1.35487
31	N	B	N	B	M	M	A	A	A	8	6	shapes	A	6	True	72	(0.95991513515713045, -6.9628027438014461)	(-6.5459883840560211, -2.8061681704350327)	(-2.389862978878261, -2.0836687093017527)	(4.8640122708345181, -3.1319514412071854)	1.0	slash	1.19233
32	N	B	M	N					N	4	3	shapes	N	6	True	72	(8.0720253688014942, -0.54563802105880654)	(3.8359467553041888, 8.0894310947842811)	(-0.59565773057772198, 3.1097921911756412)	(-0.80527923998062523, -4.0473922071569461)	1.0	z	1.07608
1	M	B	B	N	N	M	A	A	N	8	5	shapes	M	7	False	72	(-8.1578729284724751, -7.8745380414688482)	(4.2386188748483882, 3.0676137221510444)	(-6.5476371963244997, -0.97414024797067)	(0.079808574694691714, -0.10382442009892401)	1.0	slash	1.33567
2	N	A	M	N					B	4	3	shapes	N	7	False	72	(1.5532093855201357, 5.8329648267852754)	(0.10389260779613707, -7.3977410869921041)	(-7.6759456153655847, -4.3896126071945973)	(-8.6416249572529864, 7.2293815393786467)	1.0	slash	1.5594
3	M	B	N	N					A	4	2	shapes	N	7	False	72	(2.7833949486338856, 1.0814863542876179)	(3.0803353703816772, -3.4365304395649705)	(-3.1771634296263773, 2.3232930095514295)	(-3.5504271607852234, -7.5515404628850566)	1.0	slash	1.12089
4	M	A	N	B					B	4	2	shapes	N	7	False	72	(-3.1722648978011794, 5.7278000889667968)	(4.0863310291926087, 7.4432059305994187)	(4.917363415135771, -7.1090458143574065)	(-4.0178552208927396, -6.1946083260963194)	1.0	slash	1.08253
5	N	A	M	B	N	M	A	B	M	8	5	shapes	M	7	True	72	(-8.149100066646179, 3.396617136049171)	(7.3203381764936353, -8.2318217365407538)	(3.3448075123269749, 5.990163031793255)	(5.3935171122758643, -0.65227699455076404)	1.0	slash	1.25293
6	M	B	N	A	A	B	M	N	N	8	6	shapes	M	7	False	72	(2.2906352552611509, 2.3350679321519276)	(8.6090256161960887, -7.4905073574822474)	(0.18907188053558244, 6.0746442182877249)	(-5.5049776770550203, -6.452771666227008)	1.0	slash	1.2938
7	M	B	B	M	N	A	N	A	B	8	4	shapes	N	7	False	72	(-5.3213229378266416, 6.9288381355316062)	(-5.6618241444705451, -7.3721387217936618)	(-6.9694434021720877, -3.0637158298887597)	(5.6213539709437406, 5.3674255360062535)	1.0	slash	1.19934
8	M	B	M	A	B	A	N	N	A	8	5	shapes	A	7	True	72	(7.5802807997947461, -2.368770586931376)	(5.9230475047122599, 6.2762691958594559)	(4.1203309494751181, -5.8361233116478886)	(-8.0946622723404271, 0.3733026089904925)	1.0	z	1.72281
9	M	B	N	N	B	A	M	A	M	8	0	shapes	M	7	True	72	(-4.2419603802641443, 6.8111378526461372)	(4.0523665309897083, 6.0562465106277408)	(4.6618470170484176, -7.4343448326514006)	(0.69478022766513448, -5.7624366708721642)	1.0	slash	0.924505
10	M	B	M	A	A	B	N	N	M	8	3	shapes	A	7	False	72	(4.1820424273043066, -7.7128946322962246)	(-5.8785160026651404, -6.3289933167132055)	(-0.98101502078713754, 4.3482764112943002)	(2.9195180634557651, 6.6987439461976255)	1.0	slash	0.984118
11	M	B	A	B					B	4	3	shapes	B	7	True	72	(7.0438419371039043, -5.5323417326562563)	(3.147260949687011, 1.6256420033449128)	(-6.7543359444624844, -6.9047772899582185)	(-6.2217975820192297, 0.1397925134570297)	1.0	z	1.26195
12	M	A	A	N	M	B	B	N	A	8	2	shapes	A	7	True	72	(8.2315858522685517, -7.1724070488554155)	(-5.0302538782111785, -3.9518477928599225)	(-0.88018141329496036, 0.44324340486284441)	(4.2904668518189091, -1.1571028463526192)	1.0	slash	1.18711
13	N	B	N	M	M	A	B	A	B	8	6	shapes	B	7	True	72	(8.2044832113715884, -0.94726518022457284)	(-7.6599296356283588, -7.1014924587764092)	(1.5450151889632764, -4.611065090867049)	(8.5974049582111007, 4.7442172689605364)	1.0	z	1.09087
14	N	B	B	M	A	A	M	N	N	8	0	shapes	N	7	True	72	(5.4927237535010853, -4.8358570375592622)	(-4.128657845699073, 8.4916857340263299)	(-4.6231827117045654, 0.45759367569036513)	(3.5058285985110551, 6.7626800381354144)	1.0	z	1.30224
15	N	A	M	M	N	A	B	B	A	8	4	shapes	N	7	False	72	(6.4626306682801609, -0.17527070126361011)	(-6.0630916556868524, 6.7882381380856121)	(-5.4574494202836821, -5.3579313114058369)	(-3.0613114277923916, 3.3853538832935897)	1.0	z	1.32441
16	M	A	N	A	M	B	B	N	N	8	7	shapes	N	7	True	72	(-5.5771636764884223, 0.86025103620110244)	(5.6023354583534317, 2.7205008769885488)	(-4.4358943895178014, 5.0673729175857876)	(3.5436174835725183, -8.425127437942308)	1.0	slash	1.44012
17	M	B	M	B					N	4	1	shapes	B	7	False	72	(5.6863470186929455, -2.5756405845717092)	(-2.2710500944858332, -7.9795546916145872)	(1.6498229596734575, 3.59950861253974)	(-8.1722167731359203, 6.804550990411224)	1.0	slash	1.04943
18	N	A	A	M					M	4	3	shapes	M	7	True	72	(8.5804505770383699, 2.7801902202731839)	(-6.1521939187347137, 3.2521739528003852)	(-8.6573610756124832, -4.0241309005899861)	(3.4540479570543265, -1.4976692978621848)	1.0	z	1.14481
19	N	A	M	B					A	4	1	shapes	A	7	True	72	(6.9610585976359918, 5.4185094913300542)	(-7.7103076489246067, -2.2835506235054259)	(-3.4594060928243735, 2.0392037445600497)	(5.2002575500135091, -1.216295247942992)	1.0	z	1.1828
20	M	B	N	N					B	4	1	shapes	B	7	True	72	(8.2346765421904529, -8.1191994512560317)	(-8.1286044117742229, 4.501908258673776)	(4.9885367177337443, 6.0298528850686974)	(-6.0373274735734794, -7.4901841007767374)	1.0	slash	1.26828
21	N	A	B	N	M	B	M	A	M	8	4	shapes	M	7	True	72	(-4.1753756602831897, 2.4738449660203958)	(6.3382608833554972, 8.6553550933302432)	(1.2006242250152557, -0.86334939178802195)	(5.3626094802036981, -7.4218156203413592)	1.0	z	1.09988
22	N	A	B	B					M	4	3	shapes	B	7	False	72	(-8.6774132487630915, -1.0930961530131942)	(3.8595261684629207, 1.8849811265341216)	(-4.3712925120183881, 7.3748513078494575)	(2.4715098608681139, -2.2959537464953668)	1.0	slash	1.2017
23	M	A	N	A					A	4	0	shapes	M	7	False	72	(-8.1784472883729951, -5.904604390194411)	(-6.4267383382870751, 1.1862966989259078)	(2.1671069334618451, 2.756857098217333)	(3.7659687120919934, -7.9495030902635389)	1.0	slash	1.14723
24	M	B	M	B					N	4	0	shapes	M	7	False	72	(6.6165090533024209, -3.0892084231703514)	(-2.5586431066146211, 1.9939247353408724)	(-4.97145122603352, -4.097773515602591)	(0.84844348536041281, 6.6178466564882932)	1.0	slash	1.12893
25	N	A	A	M	N	M	B	B	B	8	0	shapes	N	7	False	72	(8.3512063255775608, 0.11565735729460691)	(8.7317441680511081, 7.1715072861638305)	(-3.1078219329045043, 0.54629233882192096)	(-1.9198824614575098, 7.2012360702928575)	1.0	slash	1.22619
26	M	A	N	N	M	A	B	B	M	8	7	shapes	B	7	False	72	(-0.57572259880101662, -1.7854407505547734)	(5.4979891026715375, -2.5579407044132623)	(-4.7501594148663422, -8.6892002101629888)	(5.5770956725372027, -8.1334401429686629)	1.0	slash	1.17588
27	N	A	N	A					M	4	2	shapes	N	7	False	72	(-5.5290439019613444, 0.13509017802672751)	(-0.81125569978399881, -8.0638227689433251)	(7.5326060807442872, -0.44870973035225248)	(0.58243590990112004, 6.5043633849591274)	1.0	slash	1.11187
28	N	B	N	A					N	4	0	shapes	N	7	True	72	(-4.6171357238332504, 2.8551939484910278)	(3.7361078097061462, 4.7465815230876753)	(-2.2670771881579928, -3.7186355212892268)	(0.3998716997411158, -7.847256958891724)	1.0	slash	1.22738
29	N	B	B	M					B	4	2	shapes	B	7	True	72	(-0.18058773537406481, 4.9153043179448588)	(7.4722250936084187, 0.29719614280169182)	(-1.0756988205044005, -2.5327147989066088)	(4.167676493619739, -6.835116718836697)	1.0	slash	1.12908
30	N	B	B	M	A	N	M	A	B	8	7	shapes	A	7	False	72	(-6.7323005426969882, -0.99696937032400079)	(5.4760970687319457, 4.3788694172877083)	(-3.0652405329765466, -2.6790182679354402)	(0.16250496744119403, -7.0404780238324252)	1.0	slash	1.1886
31	N	A	N	B					N	4	2	shapes	N	7	True	72	(7.388499050724235, -5.6187436668920085)	(-1.9696157919061674, 7.9652603437886391)	(0.80994076831876249, 4.7542333444571945)	(-5.1492941268849712, -4.8013137423622432)	1.0	slash	1.16024
32	M	B	M	A					B	4	1	shapes	B	7	True	72	(3.1259202119294311, 0.49474267652128034)	(-7.4025542105984252, 1.4397739704508332)	(-3.2624981458576006, -6.8547496751522354)	(5.1052865864318093, -3.7052656381902045)	1.0	slash	1.23412
1	N	A	M	B					A	4	3	shapes	B	8	False	72	(-6.8464242830809852, 3.9903152982438197)	(-2.8047961994107169, -4.3033977966688486)	(1.1726203606000354, 4.5868636108018208)	(2.5867278777059255, -1.8797407304576659)	1.0	slash	1.29354
2	N	A	B	N	A	B	M	M	M	8	1	shapes	A	8	False	72	(-0.59409165807354647, -7.691137016965933)	(-8.1082356320762798, -7.0570784399655428)	(2.844620071645755, 2.8345350805632723)	(-8.176285518645285, 0.77705450740922188)	1.0	slash	1.01513
3	N	A	A	B					A	4	1	shapes	A	8	True	72	(-7.3990178868822492, -5.5837631857981043)	(4.006803509328293, 8.3636959972586595)	(-2.652388395586506, 3.339507186885319)	(3.3114655708074192, -3.8623352660148331)	1.0	z	1.37469
4	N	A	A	N	B	B	M	M	B	8	4	shapes	B	8	True	72	(0.0015421747840242972, -2.5417264870284892)	(3.6190239170269898, -4.9289674606360414)	(-6.4663621834359546, 6.4758305842547941)	(-2.2497409816261138, 7.6873029044009833)	1.0	z	1.01439
5	N	A	N	A	M	M	B	B	B	8	5	shapes	M	8	False	72	(-1.2560225924625259, 8.053743790424349)	(-1.7260037372521113, -0.82992784413117171)	(-5.3349483989858824, -7.3807592000356061)	(0.64743704975006011, -5.6580564759863856)	1.0	slash	1.03198
6	M	A	B	N					A	4	2	shapes	B	8	False	72	(6.0464794837124298, -7.6082536995808097)	(-0.33208944323380152, 1.8388677241988489)	(-6.2916635594741983, -8.286525441773259)	(6.6528433788681181, 3.6994153395295104)	1.0	z	1.05786
7	N	A	N	A					N	4	2	shapes	N	8	True	72	(-1.1313257865410611, -3.575994910951116)	(1.7569797426152363, -6.7100940873161719)	(-5.2227516716535369, 1.6940050064891015)	(8.6221353442803697, 4.7786606061939665)	1.0	z	1.96908
8	M	B	B	A	A	M	N	N	B	8	2	shapes	B	8	True	72	(5.2690221579697223, 7.1314547382363784)	(-7.7449748193082169, 6.0399610434483808)	(1.7468388104631334, -1.2672019219574375)	(-6.2359541116133599, -5.6745157251394778)	1.0	slash	1.069
9	N	B	M	B	M	N	A	A	N	8	0	shapes	N	8	True	72	(-5.2561149846274162, 0.45318836208673652)	(-3.3850601350338545, -3.7273631013586002)	(4.0341899407804895, -3.6679343495603156)	(4.7131194718590663, 5.7173866800228534)	1.0	slash	1.6185
10	M	B	N	N					M	4	1	shapes	B	8	False	72	(3.2605756763247307, 2.5445124886787038)	(-1.6368390202893757, -2.19244655766816)	(-6.0046700413904741, 7.5712014385317232)	(0.6561140380557049, -8.1521010651416219)	1.0	slash	1.56007
11	M	A	M	B	A	B	N	N	N	8	4	shapes	A	8	False	72	(-5.1744132573500767, -3.8378229688364396)	(-8.0600385417974909, 4.4337528413353926)	(-1.1792979234785212, -0.43478259783701212)	(3.6675744357545135, 6.6928431837310534)	1.0	z	1.41373
12	N	B	A	B	N	M	M	A	M	8	2	shapes	A	8	False	72	(-2.837089352138241, -6.0459847857618607)	(-3.6000456543408426, 8.163106163560677)	(8.0772469693016937, 7.5972562691264649)	(4.2906673236149455, -2.6197312373591135)	1.0	z	1.26134
13	N	A	A	M	M	B	B	N	A	8	6	shapes	B	8	False	72	(8.4487171998766115, -2.9489817391001756)	(-0.15270173902075967, 3.1997710880775578)	(2.497860976854378, -8.0327750127198936)	(3.2482240783886933, 0.97464821844231864)	1.0	slash	1.20295
14	M	A	M	N					M	4	3	shapes	N	8	False	72	(4.8561834678245663, 4.3966397679445688)	(-6.9118359245910028, 7.1796824680217508)	(-6.981991489783451, -2.751482625290139)	(7.7494215787943936, -2.1261137286090213)	1.0	slash	1.14053
15	M	A	M	A	B	N	N	B	B	8	7	shapes	B	8	True	72	(5.3856993621887277, -0.55215892750463169)	(-0.019251776649834795, -4.1529971653502669)	(-0.71129062105504204, 0.052751359041888435)	(-2.7869619900532401, 4.9422264436774022)	1.0	z	1.32373
16	N	A	M	M	N	B	A	B	N	8	1	shapes	A	8	False	72	(3.6088401816898159, -2.4020601039443541)	(3.9568558044105266, 2.4143565396548627)	(-3.8911134577676236, 2.6939810224167857)	(7.870344632512257, -5.2236946983130128)	1.0	slash	1.34167
17	N	B	M	M	N	A	B	A	M	8	2	shapes	M	8	True	72	(3.4868176694913142, 5.6397862470432969)	(2.2315716357599094, -1.7166946984022013)	(-5.2564239764926848, 7.6434495570671999)	(-0.0043638544705846272, -8.1693268151384029)	1.0	z	1.06117
18	N	A	B	B					M	4	3	shapes	B	8	False	72	(-0.37290062688094849, -5.8779392742318732)	(0.17929407498718497, 4.2497313272291741)	(0.29833950330555936, -0.89178324878112303)	(-7.5634059153243101, 2.3675552320464099)	1.0	slash	1.16307
19	N	B	N	B					B	4	1	shapes	B	8	True	72	(7.1850907421686845, 8.0287503101034154)	(-5.076386897997188, -2.2464499740496642)	(-4.6605742692267196, 8.6527673965664036)	(1.0527513234730428, -1.4221798669137611)	1.0	slash	1.20468
20	N	A	A	M					N	4	0	shapes	N	8	True	72	(8.7499047853668515, 0.96397367889457897)	(-4.5724405329688755, -5.68152912634846)	(1.3184525918843342, -6.0207381046006434)	(-8.1463271376196111, 0.95345786000476096)	1.0	z	1.35035
21	N	B	N	A	B	M	M	A	A	8	1	shapes	B	8	False	72	(-0.63967402008426788, -1.1005455347485658)	(-0.16183588904465651, -6.8778579355432452)	(5.2337176792441262, 5.7828820571406272)	(5.9354922000838801, 0.0634844149343472)	1.0	z	1.38787
22	M	B	A	N					M	4	2	shapes	A	8	False	72	(2.6051135376663588, 2.3155277689485754)	(3.597059281421469, -8.3311216759613878)	(-2.0994421794112466, -6.8662691370058484)	(-3.3693356921914779, 2.2468795500444116)	1.0	slash	0.989586
23	M	A	N	A					N	4	0	shapes	M	8	False	72	(-1.5191430367991101, 4.7093871315187013)	(7.3668980872958905, -6.9088467816653836)	(7.3195053979892002, 0.19858046511862959)	(-1.8405745125636201, -4.6081063754496681)	1.0	slash	1.07321
24	N	B	N	B	M	A	A	M	N	8	0	shapes	N	8	True	72	(4.318130803260912, -4.6333351793717652)	(3.7261664129787349, 6.9559337364294898)	(-1.7273604813274117, -7.7765124002449522)	(-4.158092257177838, 0.30815869203781965)	1.0	z	1.22274
25	N	A	A	B					B	4	3	shapes	B	8	True	72	(0.056460787793755074, 4.8748981186212266)	(-4.8061318179276036, 2.5253916643330516)	(-3.6445759906127115, -1.5850542640688161)	(2.5291833863771558, -7.411327208369503)	1.0	z	1.1323
26	N	A	M	N	B	M	B	A	B	8	6	shapes	B	8	True	72	(7.0953201079381554, 7.6227093103213264)	(8.2860400748446956, -4.0866398721423352)	(-6.4231530528695657, -7.7278400644031393)	(-5.3010544914713815, 5.3679756813200932)	1.0	slash	1.26002
27	N	A	A	M					A	4	2	shapes	A	8	True	72	(5.4710078913218823, 2.9020863688531406)	(2.007335628382716, -5.2525605881859718)	(-2.890770918877684, -7.0237456382871013)	(-7.530156239180597, 4.3890056054905884)	1.0	z	1.08167
28	M	A	M	B					M	4	0	shapes	M	8	True	72	(6.1017005647815754, 2.3528701865259638)	(1.157297871697347, -1.1506471648063492)	(-3.7575814977095385, 3.1500084085448012)	(-1.187789721374477, -5.2738794842529986)	1.0	z	1.0271
29	N	A	N	A					N	4	0	shapes	N	8	True	72	(1.0488220762277827, -0.47299899886812113)	(-6.9916097853772312, 6.3472109706965991)	(-2.551099222595008, -7.3108895295670306)	(4.0704183330755228, 8.5888355245690988)	1.0	z	1.03279
30	M	A	B	A					M	4	1	shapes	A	8	False	72	(-4.4846468658246845, 1.8084466839655295)	(8.2595271644752621, 7.5652020043494268)	(-0.11651080708500139, -6.1089748697902611)	(2.082538520870898, -0.12033971279435285)	1.0	slash	1.04445
31	N	B	B	N	M	M	A	A	N	8	0	shapes	N	8	True	72	(-5.2025418437495272, 0.99162955190977975)	(-8.4468118297590244, -6.639256060280073)	(-1.8069528607962964, -8.0841350899380195)	(5.2770138456034541, -1.3854469981804725)	1.0	z	1.66222
32	M	B	B	A	A	M	N	N	B	8	5	shapes	M	8	False	72	(-6.7171103542868842, -8.0613174878042688)	(6.4071082265392842, 7.3790925035008144)	(5.1609629841787363, -0.5731296273475408)	(-1.2772300813484447, 7.6622568866011456)	1.0	slash	1.15582
