TrialNumber	stim0	stim1	stim2	stim3	stim4	stim5	stim6	stim7	stim.probe	ttl.stims	corr.num	trial.type	stim.corr	block	match	Subject	stim.pos0	stim.pos1	stim.pos2	stim.pos3	ran	resp	RT
1	M	B	B	M	N	A	A	N	M	8	3	shapes	M	Practice	True	73	(-4.6593330366218719, 4.8083299419294239)	(7.8880703249720518, -8.3229263110614671)	(-2.2825826789321271, -0.60221919206911245)	(7.0884828634425183, 4.3545702505389166)	1.0	slash	3.84217
2	M	A	B	A					N	4	0	shapes	M	Practice	False	73	(-8.3790596493601459, -4.2115241030673394)	(-5.430257059273826, 6.0618926583920025)	(0.49243020214164446, -8.1723592267884637)	(7.8760705818387109, 8.4462663995413934)	1.0	slash	3.81963
3	N	B	A	M	A	B	M	N	A	8	5	shapes	B	Practice	False	73	(-6.2006816327877283, -8.0177214252287623)	(5.4215352740667608, 4.7822782646899515)	(2.1588622482600037, 0.059722633466291697)	(-4.3737951570338716, -0.071185463068106358)	1.0	z	2.20612
4	N	B	N	A					A	4	1	shapes	B	Practice	False	73	(6.5273548164938493, 1.9045702189055405)	(-6.3228968263524195, -6.2165473719737427)	(-4.6894447931971337, 3.3842726560855212)	(4.1196131991969498, -2.7139390824969976)	1.0	slash	1.25413
5	N	A	N	B	A	M	M	B	A	8	4	shapes	A	Practice	True	73	(-8.6258509207895546, 7.1798886835176248)	(-8.0532589240417121, -4.1359342864590865)	(6.7696971449792525, -3.7762647330025674)	(4.7661794374164472, 7.117545277446176)	1.0	slash	1.84786
6	N	B	M	B					M	4	2	shapes	M	Practice	True	73	(6.5766010806959621, 5.5118436899510908)	(-4.4450827211348338, 0.21295619115457676)	(5.0842320818351219, -1.4365762305094307)	(-8.0724012558638609, -2.8944990713980339)	1.0	z	1.27142
7	M	A	N	N					N	4	3	shapes	N	Practice	True	73	(-2.5430577705528501, 1.1913509159726754)	(7.9714788248582593, 6.5020929862406245)	(2.4777114281029249, -6.3414662462314517)	(-8.7420013175410745, -1.2924035860187733)	1.0	z	1.6426
8	N	A	A	M	B	M	B	N	A	8	7	shapes	N	Practice	False	73	(3.3559884027053624, 3.3310357982557104)	(-1.8070029929033176, 1.0650943107571837)	(8.1256689809168634, 4.1942643241422353)	(-4.7068824092744732, -4.5071962050599179)	1.0	slash	1.54203
1	N	B	M	B	M	A	N	A	A	8	5	shapes	A	0	True	73	(-0.22881493119027496, -8.1277413105600331)	(-5.9456349107070032, 4.2776231695905729)	(-0.61883970874073313, -3.178942406757904)	(1.676357536567167, 7.514509254527173)	1.0	z	1.19826
2	N	B	B	M					A	4	0	shapes	N	0	False	73	(-0.053120557319543238, 5.0988576554932834)	(0.2448968024003193, -7.3109240851225543)	(-3.2652653640290383, -1.8755803848916779)	(2.1276737344231424, 1.0116277068887705)	1.0	slash	0.831807
3	N	A	A	M	N	B	M	B	A	8	2	shapes	A	0	True	73	(4.915272376482422, 2.8397150314647437)	(-7.2954515351006854, -0.56100341213032046)	(-7.429382302985938, 5.332739133296835)	(2.0679328644191131, 5.7031245939486208)	1.0	z	1.30955
4	M	B	M	B					M	4	0	shapes	M	0	True	73	(-6.4669627486365329, -1.0923984300986955)	(0.078780936082001318, -1.1545872102390149)	(-5.8770935440205028, 4.0838230918605838)	(5.5617033837585925, 3.0611926071039974)	1.0	z	1.08132
5	N	A	M	M	B	B	A	N	B	8	4	shapes	B	0	True	73	(-8.2992088656573717, 4.764033573932819)	(2.6635633829757221, -2.6587726109216989)	(-6.0736991493955603, 8.1974746491697061)	(5.2557048014111789, 1.3480770468659937)	1.0	slash	1.3487
6	M	A	N	N	A	M	B	B	B	8	6	shapes	B	0	True	73	(7.8605718847234627, -3.2067201838003658)	(-3.0980513772591767, 1.9237843883741252)	(2.5507480857741296, -7.9210621058416066)	(-4.7633547713932352, -6.1587017723330959)	1.0	z	1.41228
7	M	A	M	N					M	4	2	shapes	M	0	True	73	(3.2554284532419508, 5.3804451238320858)	(-4.1849084734910074, -3.2741005184666685)	(4.9796905999481478, -7.0674454889370963)	(-4.9052463667687114, 8.7204604781154345)	1.0	z	1.70769
8	N	A	A	M					N	4	0	shapes	N	0	True	73	(3.4052933541130912, 3.843258715283179)	(-0.16644450867995353, 1.3215021078065963)	(-5.2381006071409226, -4.5586914426587786)	(2.7003269372320133, -7.8905662130722156)	1.0	z	1.29533
9	M	A	B	B					M	4	0	shapes	M	0	True	73	(2.4450980375378535, 7.0723916914385381)	(1.2952396481440296, -7.6448846584100085)	(-6.8890242058245112, -8.4226314724999316)	(-1.3408059119835842, 4.8630272794825959)	1.0	z	1.59096
10	N	A	B	N					A	4	3	shapes	N	0	False	73	(2.2043165714100557, 5.8119938627707022)	(0.48061423087650645, -1.4330379378600782)	(-2.1485961901164323, 7.1076047909292406)	(-8.3624486069587682, -5.7140049438914691)	1.0	z	1.20084
11	N	A	B	N					N	4	1	shapes	A	0	False	73	(7.054986225683658, -4.6851222333540479)	(-5.6481474308090718, -4.299315812476868)	(7.2065028422088773, 7.5324452946791851)	(-2.3741925648156217, 5.8003588411627938)	1.0	slash	1.14662
12	M	B	M	B	A	N	A	N	A	8	3	shapes	B	0	False	73	(2.512448556544884, 2.7704541228702162)	(6.1792722273526213, -7.8381497913414027)	(-8.5261623780697278, -8.0223377219192571)	(-8.4025496384460308, 5.60524751213873)	1.0	slash	2.46544
13	M	B	N	B					N	4	0	shapes	M	0	False	73	(1.4816162536396629, -6.5103625308189086)	(-3.8498000237590304, -5.7799657574274104)	(-4.4515074491210518, 2.7577255858462646)	(2.0898851589664318, 8.409876872321945)	1.0	z	1.20578
14	N	B	A	M					M	4	2	shapes	A	0	False	73	(2.7541513344833479, 0.365062767555278)	(-6.2929431232892368, -6.1444601903430307)	(-6.8804482370590341, 2.598577912916701)	(3.8211539555344682, -3.7745421037955751)	1.0	slash	1.12752
15	N	A	A	M	M	B	B	N	B	8	7	shapes	N	0	False	73	(-2.4312434189202712, -0.88838249818194015)	(1.2777849886571158, -8.1781391702121891)	(8.5618529083083459, 6.3380384525426869)	(-7.8422226671698141, 0.099568994445306203)	1.0	slash	2.37866
16	N	B	N	B					B	4	0	shapes	N	0	False	73	(4.6222608609519007, 0.10789846830111749)	(-0.68882201634450269, 8.6431756267514679)	(0.29203799015192367, -7.5789584338345275)	(-7.0170907115899395, -3.9760835184168863)	1.0	slash	1.30446
17	M	A	B	A	N	M	N	B	A	8	3	shapes	A	0	True	73	(-6.759447824344087, 6.8442562620563887)	(-2.7506423407050358, -6.8421387706548451)	(5.1190174823327457, 5.8257753902000537)	(-1.917430224104705, 3.3604430516442303)	1.0	slash	1.0641
18	M	A	A	N	B	B	N	M	A	8	2	shapes	A	0	True	73	(-2.947831894399453, 3.2415385265446819)	(-7.9180347455712026, 1.2021577284402625)	(5.3037192964429369, 8.397129284409349)	(-8.4770075285204118, -3.9575268396862135)	1.0	slash	2.67092
19	N	A	N	B	B	A	M	M	A	8	3	shapes	B	0	False	73	(4.3390040903957274, 1.4770822160407473)	(-2.2994878858358652, 4.2519742059261958)	(-7.8430011885437247, -0.6511760184162263)	(6.6056427731186336, 5.9213356710318443)	1.0	slash	1.16483
20	N	A	N	A	M	M	B	B	M	8	1	shapes	A	0	False	73	(7.4203884406892939, 5.397793268034377)	(7.4041749184997876, -4.1596759299999926)	(-5.5670313195577581, 4.6996774722204986)	(-4.6253013728505303, -7.7223879831538458)	1.0	slash	1.08886
21	M	B	A	N	B	M	A	N	A	8	0	shapes	M	0	False	73	(-0.89468826147467428, -4.3487739259815745)	(-0.36538557949296546, -8.4093544651896561)	(3.7449602568795406, 4.7488368856868064)	(2.2711580481956872, 0.085126356674155801)	1.0	slash	1.22061
22	M	A	A	B	M	N	N	B	B	8	3	shapes	B	0	True	73	(1.5999985474690472, -2.8746340978165099)	(-5.1179120852483795, -2.4390700979470354)	(-2.3379323132259691, -8.3432534807795218)	(-5.9023478179329736, 3.9334012695941087)	1.0	slash	3.66031
23	M	A	N	A					A	4	1	shapes	A	0	True	73	(4.6895826066552999, -1.02810718281133)	(-6.5029499013073107, 5.9693814758915291)	(7.6299480790472565, 4.7303134946906447)	(-4.5303531181461514, -0.57570397172434085)	1.0	z	2.24313
24	N	A	N	A					N	4	0	shapes	N	0	True	73	(6.5271685692153039, -5.3669194239744877)	(5.1151990516337875, 4.6374080108034921)	(-0.0067584791982540082, -5.4461667648769598)	(-1.2353723225992326, 6.1368218633231582)	1.0	z	1.26923
25	N	B	B	M					N	4	1	shapes	B	0	False	73	(4.4399203916921337, 8.4967469978072536)	(1.1506434435340687, -0.34222669367547631)	(-3.506661256093949, 1.1076619479717529)	(-0.17343467465465068, -6.4460689811603151)	1.0	slash	1.85641
26	M	B	M	A	B	N	N	A	N	8	5	shapes	N	0	True	73	(-2.784546301960118, 2.1110894549340049)	(-6.6095060487088553, 7.8923814387478863)	(7.3785894753207764, 7.4480732716208173)	(0.25781677624672739, 4.7937023501530511)	1.0	slash	2.85737
27	N	B	M	B	M	A	N	A	N	8	1	shapes	B	0	False	73	(1.133264549682611, -8.3029114762219951)	(1.0329213247823699, 7.9659429691968917)	(-3.2056866087031679, -2.6483607434638712)	(-4.3151516944743182, 5.6513542929315452)	1.0	z	2.75502
28	M	A	N	B	A	M	N	B	A	8	5	shapes	M	0	False	73	(-8.5936265226284245, 3.0369343224266405)	(4.9187781310091268, 1.3353534337877928)	(7.1844964515471776, 7.2647283873925694)	(2.2006947032740172, -6.6880976705742246)	1.0	slash	1.1931
29	M	B	M	B					M	4	0	shapes	M	0	True	73	(2.4445080459874937, 7.1465142378818456)	(1.2853190866244599, -1.0691887948519643)	(-4.7871946559953642, 5.9479771260906116)	(-8.2295138969387249, -3.696616776628014)	1.0	z	1.05305
30	N	B	B	A	A	N	M	M	A	8	6	shapes	M	0	False	73	(-3.4338480808073992, -0.68636708639599497)	(5.3791354969094982, 4.3977689179033028)	(-6.3847906548446751, 7.2741643794709105)	(2.9842528997231081, -1.9639159517659959)	1.0	slash	1.03082
31	M	B	A	M					A	4	1	shapes	B	0	False	73	(-1.419834231382163, 0.86256774459502417)	(5.655587314637037, 2.8581384259742038)	(2.2322505114608653, -3.2545413792006093)	(-6.8290585501720091, -1.908599302330936)	1.0	z	1.48191
32	N	A	B	M					A	4	1	shapes	A	0	True	73	(-6.7897354751760597, 6.7769141894212375)	(1.7127772377890018, -4.6410644995707333)	(8.6371939813950647, 4.4575878184942539)	(-7.1524482638613218, -1.7109927265981844)	1.0	z	1.31583
1	N	B	N	M					N	4	2	shapes	N	1	True	73	(5.6865420963008848, 1.481444679473217)	(-4.4372421913948994, 0.82560445116487635)	(1.2087399788075484, -3.6328930086208526)	(-3.006254406959326, -7.256559849072139)	1.0	z	1.03143
2	N	B	N	B	A	A	M	M	M	8	2	shapes	N	1	False	73	(-0.48727392132182779, 7.8599550694820337)	(-1.6419883286206289, 3.3079856961435432)	(6.5637173384214105, 3.6780380140208582)	(3.7433737060680787, 7.250087829823439)	1.0	z	3.50759
3	M	B	B	M					M	4	1	shapes	B	1	False	73	(-7.7814744357925374, 4.9690542059224843)	(-7.1276930637868476, -4.1392327776460185)	(2.6575758225914186, -6.9536407894418595)	(3.3966033497821044, 6.1282439521097256)	1.0	slash	1.11235
4	N	B	N	A					B	4	3	shapes	A	1	False	73	(7.4337198750348961, 0.56905334192425272)	(-0.87056007991768425, 2.2146856590536732)	(7.3353807684586236, -5.2775413216555123)	(-8.5476069663407124, -7.2470829545204261)	1.0	z	1.46821
5	M	A	N	M					N	4	1	shapes	A	1	False	73	(-3.9477557440473658, -0.40875706904718356)	(-8.4158973719965218, 4.5044703589504085)	(2.6313018119065887, -5.1497150611439526)	(7.3986633527522336, 0.58938304568592059)	1.0	slash	0.895865
6	M	B	M	N	N	A	B	A	M	8	2	shapes	M	1	True	73	(2.3110903425632099, 1.7842286929698492)	(-8.4827920059613504, 7.1418259161687612)	(-2.5029919451267801, 2.3437511399154989)	(-2.0690366193674734, -4.3749142039608353)	1.0	slash	1.12142
7	N	B	A	A					B	4	0	shapes	N	1	False	73	(-3.8215325383167809, -0.85991586482016125)	(6.9739800261801275, 7.6186655222710087)	(2.4637048515866304, -1.3749566631810479)	(-7.3931123851801797, 8.1438428373322331)	1.0	slash	1.05913
8	M	B	N	A	N	M	B	A	B	8	7	shapes	A	1	False	73	(8.6179750620108635, -2.2404033743352718)	(0.75272666416338296, -0.38502901088404684)	(-0.71309507076564849, 3.7032325277500515)	(-3.5491992821545892, 0.051661811255698353)	1.0	slash	1.23677
9	N	A	M	B					M	4	2	shapes	M	1	True	73	(-2.1766407586345755, 0.60276512978620467)	(-4.6720210664888162, -4.141668219783031)	(0.25753355028972713, -3.5911725193516997)	(8.0042751863762582, 1.0257908898717361)	1.0	slash	1.81585
10	M	B	M	N					A	4	0	shapes	M	1	False	73	(-5.5860635645661834, -1.8721439207225323)	(6.4570500691453763, -1.3599894029996404)	(-5.57464215305232, 5.1733701628567541)	(1.9382409592419965, 5.1226593592315943)	1.0	slash	1.27984
11	N	B	N	B	M	A	M	A	N	8	1	shapes	B	1	False	73	(-0.37244781069361288, 5.5724347633685234)	(-6.3666997671286998, -7.9164007628912048)	(-6.8490779734759899, 2.2144683847449524)	(7.6561167402216235, -5.9564062002345732)	1.0	z	1.30162
12	M	A	B	A	B	N	M	N	B	8	2	shapes	B	1	True	73	(6.6628539873297878, -8.5703942404425639)	(-3.3087578958323949, 0.81823706479803349)	(-2.8789520519197698, -4.8225790913870874)	(-8.0180933704851398, 2.5658638868982706)	1.0	slash	0.789169
13	N	A	M	B					M	4	2	shapes	M	1	True	73	(5.3193686620125114, -0.78806054262476266)	(6.3005063487538902, 5.5199319129933997)	(-5.9183318998438343, -7.9547065528140841)	(-4.6227967575840729, 3.1239034789961391)	1.0	z	0.984533
14	M	A	N	M	A	B	N	B	N	8	3	shapes	M	1	False	73	(7.4037679794769815, 4.0530633528416153)	(6.0339386055515654, -1.0073149047535406)	(-6.4917760230094999, -1.7700622558619559)	(-3.0142817068124597, 4.3002656603392371)	1.0	slash	1.28851
15	N	B	A	M	M	B	N	A	A	8	1	shapes	B	1	False	73	(0.59506559275267179, -5.3449025360621611)	(-7.7545604432380504, 6.8542876034726294)	(1.1018880383046312, 8.7288552874427339)	(-4.2529797324095568, -3.1283271422226759)	1.0	slash	3.0531
16	M	A	N	A	N	B	B	M	M	8	2	shapes	N	1	False	73	(-0.7648436592547796, 7.9177877913409915)	(6.1325003467676726, -8.2968640881586175)	(-5.0384969899049743, -0.092549893105335457)	(3.2237029345748649, -0.20435785405250328)	1.0	slash	2.71856
17	M	B	A	B					A	4	3	shapes	B	1	False	73	(-1.1919260819427926, -5.9400757675835791)	(-6.6852151429433384, 7.2897279217216315)	(5.324533848268926, -2.3435154830174527)	(1.1495118002637579, 7.9832083175131459)	1.0	slash	2.24068
18	N	A	B	B	N	M	A	M	A	8	4	shapes	N	1	False	73	(-4.9273302105601591, 8.3108558058261544)	(3.6816663276250523, -4.4796865036083711)	(-0.72440493024739361, -7.1651875369690323)	(-4.6057929422190291, 1.7519152847668487)	1.0	z	1.47621
19	N	B	B	N	M	A	A	M	A	8	6	shapes	A	1	True	73	(-2.9914530726966424, -6.7408472184401376)	(0.92878334129283147, 3.1832627903691773)	(6.9608052461299934, -3.2102580408022616)	(0.48297815874894923, -1.6638262871332934)	1.0	z	1.92171
20	M	B	B	M	A	N	N	A	A	8	4	shapes	A	1	True	73	(-7.3821619170189754, -6.9484240429055237)	(-7.3548219139746331, 8.4197886769128587)	(-0.92607771823416485, -8.4045703306737991)	(8.5600110486802521, -3.4003315076499421)	1.0	slash	1.49381
21	N	A	N	B					N	4	0	shapes	N	1	True	73	(-3.4120128607222222, 6.4878617162905652)	(8.3055155805404048, 1.1179136095665925)	(-8.1397920039112748, -7.980779965344972)	(6.9321107300120985, -2.8867210198815094)	1.0	z	1.0454
22	N	A	M	A					A	4	3	shapes	A	1	True	73	(-6.8175916248272372, 1.4117448994430344)	(0.43311878907763912, 4.8441406494507859)	(8.2439544208612183, -4.1946008311700522)	(-0.029921454093111421, -5.1235527445601301)	1.0	z	1.41489
23	N	A	B	A	M	B	N	M	B	8	2	shapes	B	1	True	73	(-3.0368217458969911, -2.7373989898583178)	(-6.5848131732356858, -7.245674941135956)	(0.70219484636577789, -7.4594455593031261)	(-5.6475582245843139, 7.8122576289854813)	1.0	slash	0.936692
24	N	A	N	M					M	4	1	shapes	A	1	False	73	(6.5635411431164385, 4.9005259030789663)	(2.8135681126792278, -2.0105084427466533)	(-2.8471907285185063, 7.5484737560572377)	(-5.8061751326631725, -1.4651997091779378)	1.0	slash	1.18423
25	N	A	B	A	M	M	N	B	B	8	2	shapes	B	1	True	73	(6.3929601355302701, 7.3011791458764428)	(-5.5215154694215647, -6.6931958916455656)	(5.8875255082367612, -3.0066434431756459)	(-4.9984003517436628, 4.8159009475956402)	1.0	slash	1.21619
26	N	B	M	M	B	N	A	A	B	8	1	shapes	B	1	True	73	(-4.4470256584771111, 2.8022908507708557)	(-1.7561419759519294, -6.8849805162030826)	(6.0442471742410078, -7.8298479545300452)	(-7.3384990858595263, 6.5428007151461216)	1.0	slash	1.28933
27	M	B	A	B					A	4	0	shapes	M	1	False	73	(8.133635152692694, -4.7947958001052724)	(4.2481592468646454, 2.8577364912839034)	(-2.8996657673954847, -4.9534516527966517)	(-1.8190715400759423, 8.388017832792027)	1.0	slash	1.2089
28	M	B	A	M	A	B	N	N	A	8	4	shapes	A	1	True	73	(1.6697513572059126, -5.1389127675434576)	(5.2106293896972904, 4.9706426596948852)	(1.374496348179278, 1.7809907324123984)	(7.6870130053827879, -2.5385402993760007)	1.0	slash	1.02861
29	N	A	B	A					B	4	2	shapes	B	1	True	73	(-1.3294344450999258, -2.2970250907235208)	(2.8262989415454189, 2.0172985131214727)	(-4.7538732666867674, 2.0920147048683617)	(6.175276349797759, -8.409714681569584)	1.0	z	0.896447
30	N	B	M	M					N	4	0	shapes	N	1	True	73	(7.2693027374483421, 7.9012316876977557)	(-5.4762524479082622, -5.4487735535146165)	(-2.096251781140487, 0.13462973956585955)	(1.9199596349623338, -6.0543708825260669)	1.0	slash	0.999751
31	N	B	M	N					M	4	2	shapes	M	1	True	73	(-8.1037984713780897, 7.2460249018116247)	(-5.5362739681113009, -3.5843247616062941)	(7.5353357903846003, 0.85061253513380208)	(2.451242109930833, -7.3565804538721569)	1.0	slash	1.16981
32	M	A	N	B	A	N	B	M	M	8	4	shapes	A	1	False	73	(-1.1829701589978123, -4.2357953301686493)	(6.0842344705805527, 7.1363300369712679)	(-6.5437831755655989, -0.79301815207281834)	(4.322862041904461, -0.14572213328235328)	1.0	slash	1.43709
1	N	B	B	A	M	N	M	A	B	8	1	shapes	B	2	True	73	(-1.7252817605113231, 0.78445352974011229)	(5.2851826156307666, -8.5517907232224868)	(1.032558869141976, -3.8593067488067261)	(5.6103849272171029, 0.55031230965480482)	1.0	slash	1.30285
2	M	B	M	A	B	A	N	N	M	8	7	shapes	N	2	False	73	(5.0244187446582078, 0.36847699036810155)	(4.626879055529038, -4.1287166574401617)	(-6.2860926888850424, -6.7717731412926163)	(-1.5708201067678624, -4.0502901280106691)	1.0	z	1.86213
3	M	A	M	N	N	B	B	A	A	8	1	shapes	A	2	True	73	(2.5036023543014174, -3.8696611870963764)	(-1.350983554251763, 5.5693305474477306)	(-5.997849532228174, -1.2777931431670071)	(-4.9575781651977575, 3.5263365695437425)	1.0	slash	2.07763
4	M	A	N	A					A	4	3	shapes	A	2	True	73	(2.0715196002720813, -5.2697912659759254)	(-8.425235371172537, -7.2366045208253293)	(7.3651254985768269, 3.6822680539813888)	(-0.6636246433659867, 7.4777367832657156)	1.0	z	1.25515
5	N	A	A	B					A	4	3	shapes	B	2	False	73	(7.0602630857883426, -6.704962676193567)	(3.4753201623226939, 5.3881016604392897)	(-3.390309716045774, 3.0394965983319171)	(-2.6878348607825817, -4.3686530702413879)	1.0	slash	1.81482
6	N	A	B	M					N	4	0	shapes	N	2	True	73	(1.6743500558537825, 4.5404000858009219)	(-6.3182797145425287, 3.7420763577593892)	(5.5518856893977517, -6.2548296452762653)	(-2.8136724144668435, -3.0032369387279134)	1.0	slash	1.13481
7	M	A	M	A	N	B	B	N	B	8	6	shapes	B	2	True	73	(-2.7625987941673458, 6.4229446492301978)	(-5.6458396948586032, -1.8930193281555461)	(-3.2956483737184383, 2.1871437062318737)	(7.0460614435350877, -2.143623752619078)	1.0	slash	1.69606
8	N	B	M	N	M	B	A	A	A	8	6	shapes	A	2	True	73	(-0.3372821525500953, 0.47224417541218244)	(-8.2683935530632517, -5.9475862425446824)	(-4.3200827457687323, 1.590186194793386)	(4.0887163848133223, -8.5708640502003259)	1.0	z	1.50601
9	M	B	N	B	N	A	M	A	M	8	4	shapes	N	2	False	73	(-3.3726414583451545, -2.2542641106424197)	(7.5437153703437154, 0.15029149818253806)	(-4.8736200725048224, -6.3739595466278054)	(-1.0472829543188853, 7.7339130302843628)	1.0	slash	1.15311
10	N	A	A	N	M	B	B	M	B	8	0	shapes	N	2	False	73	(2.6607228330921355, -6.3271158516740948)	(-2.2384563196618208, 7.1219988468384656)	(7.2464297578518071, -6.09554611776786)	(-5.589916708152038, -6.6280435496913963)	1.0	slash	0.831517
11	M	B	A	A	M	N	B	N	B	8	5	shapes	N	2	False	73	(-0.55637693992906989, -0.081789160410689732)	(-4.980761986327999, 2.8670089201912816)	(0.26575554821574876, 7.3489732526789702)	(8.5496937255875629, -1.07488071379918)	1.0	slash	1.57998
12	N	A	A	N					A	4	3	shapes	N	2	False	73	(4.0977044181315154, 3.3867601123745601)	(-6.2506706557297678, 1.471569210270939)	(6.0680756552819837, -4.0941941671417386)	(-6.8312048965913741, -3.2650959404813475)	1.0	slash	1.10624
13	N	A	N	A					M	4	1	shapes	A	2	False	73	(-8.0625725601784612, 0.85430126295087483)	(-2.8804503652375484, -6.5243385186847327)	(2.7422235294320725, 5.5034897047471603)	(2.4595273688080486, -6.8400617044487966)	1.0	slash	1.3442
14	M	A	B	A	N	M	B	N	M	8	5	shapes	M	2	True	73	(-6.3862389671178557, -4.2988356744329996)	(-0.37766331342384873, -6.1162711537746954)	(-2.6931916881112956, 2.0672483392149665)	(1.4607414661072369, 0.37573734287726346)	1.0	slash	1.24778
15	M	A	M	B	A	N	N	B	M	8	6	shapes	N	2	False	73	(7.7568865138273573, -3.1778201403336048)	(2.614575823797713, 8.6690483383305512)	(-7.2755318804286073, 1.237888013713432)	(-1.8944213449191887, -0.54384306756884726)	1.0	slash	0.875242
16	N	B	B	M	A	A	M	N	M	8	7	shapes	N	2	False	73	(8.380464558070031, 1.1938704225150012)	(-3.0743277842810208, -8.4382660453474667)	(0.093329524664035546, 6.7096075213972419)	(-8.4298109494333957, 5.3232641858023477)	1.0	slash	2.10423
17	M	A	M	N					N	4	3	shapes	N	2	True	73	(-2.6383698062071499, -2.8262727960255933)	(3.2223295946409589, -2.8748559694428408)	(-2.3792147619475728, 4.1943400486742277)	(3.9286850866427958, 2.1407297020439451)	1.0	slash	0.990535
18	M	B	M	A	A	B	N	N	M	8	2	shapes	M	2	True	73	(7.0613043394430957, -2.7768263164169031)	(-6.8774735227919166, 0.89913202305897322)	(-8.6727312265302245, -6.1887876242814945)	(0.77088963920984632, -8.3724984435511338)	1.0	z	1.11623
19	M	B	M	B					M	4	2	shapes	M	2	True	73	(8.0915665816373803, 7.926582415086127)	(-1.5290679494834443, 2.1019952140484701)	(-4.4196194567557985, -1.044794155269992)	(8.3039597550760575, -4.3679134384495359)	1.0	z	0.912159
20	N	B	B	N					N	4	0	shapes	N	2	True	73	(-3.7733606448541881, 2.6071027038874703)	(6.1487962287820697, 4.9487589986518739)	(8.2467311145869608, -5.8842388780183743)	(-1.0829928188446161, -6.1526562842707566)	1.0	z	0.939519
21	M	A	B	N	A	B	N	M	A	8	3	shapes	N	2	False	73	(-2.9572987468444349, 3.9324101489738794)	(1.1251076663125712, 7.9960212315643098)	(-3.7891401649320802, -1.3378874582837339)	(7.1874877899630896, 3.9836472388135089)	1.0	slash	1.24509
22	M	A	B	M	B	A	N	N	A	8	0	shapes	M	2	False	73	(8.3457674638576229, -5.4961649419819985)	(7.9956652313993288, 7.2927606980796398)	(-3.3649635119744872, 3.7652533356372686)	(1.0929841379179841, 7.8087977506913226)	1.0	slash	1.08831
23	N	B	A	A					A	4	1	shapes	B	2	False	73	(7.5327290953905575, 0.28470771978989262)	(-8.2309620806316044, 4.8554264808206504)	(-7.6088803110485683, -0.50762177607573733)	(4.1822945287350723, -8.6529101983308419)	1.0	slash	0.95228
24	M	A	N	B					N	4	1	shapes	A	2	False	73	(-3.5584512512207906, 6.172079274867075)	(2.5491496472694486, -1.1068674524021205)	(-8.1866356560312941, -4.9664757115411771)	(8.4669505772610805, 0.77258507838747725)	1.0	slash	0.91588
25	M	B	N	N					M	4	3	shapes	N	2	False	73	(1.3772067886457666, 8.6403191065640819)	(-4.9116111988555566, -7.5828722253306227)	(-3.5791308625620664, 5.3106899149022073)	(1.6712972275810181, -7.9208316245668611)	1.0	slash	0.991632
26	N	A	A	M	M	B	B	N	A	8	2	shapes	A	2	True	73	(6.1535271252377743, -4.4956160722620577)	(-1.2936669957560181, -6.1851715903138285)	(-7.501375385098437, -5.4970494340422231)	(5.4123569448167643, 6.7422255247584175)	1.0	slash	0.92529
27	M	A	B	A					B	4	2	shapes	B	2	True	73	(1.6905858793642938, -5.3650103760917158)	(-5.1445714725488081, 0.069859377971136283)	(5.8632457416290862, 3.8223144599196441)	(-5.994836440032234, -6.3260412030867981)	1.0	z	1.72648
28	M	B	M	B					B	4	3	shapes	B	2	True	73	(8.6875251623375682, -2.5153715802622685)	(-5.7165836725042602, -2.4911019397334009)	(-4.7631594199281793, 5.7380142488728652)	(2.2636081081568236, 0.85024303242876442)	1.0	z	0.864494
29	M	B	M	N					M	4	3	shapes	N	2	False	73	(-7.6548208159834754, 4.561365666722228)	(8.2269820636441651, -6.5797443864728091)	(-2.0563777197612945, -3.5630701342625342)	(6.4710093860038587, 4.6110870988583326)	1.0	slash	1.03832
30	N	B	A	N					A	4	0	shapes	N	2	False	73	(-7.5361417236488641, -6.6168618181323495)	(4.2862855177228294, 4.2617443280915186)	(-5.2553382153815242, 7.6457501782230146)	(6.5675109062840384, -0.086319244301646947)	1.0	slash	0.887323
31	N	A	A	N					A	4	1	shapes	A	2	True	73	(4.5175434077659098, 2.6370414767574299)	(-3.9759354274022218, 3.7499551883151199)	(1.5334946107458141, -5.1512640586229423)	(-0.49958676426572701, -0.83167351469777273)	1.0	slash	1.1114
32	M	B	B	A	M	N	A	N	B	8	1	shapes	B	2	True	73	(8.1152291949166937, 1.1895648926055937)	(8.480578535860829, 5.7884584092651128)	(4.5335020786531235, -5.6145566928901562)	(-5.2147843593544447, -1.317765617108785)	1.0	slash	1.03047
1	N	A	A	M					B	4	2	shapes	A	3	False	73	(5.8158494921489119, -1.2461794382657949)	(-8.1738948105031319, -8.1028434680880803)	(0.62522609539506746, 3.3423625572723559)	(-3.1262861126309023, 7.5879088142421729)	1.0	slash	0.982619
2	N	B	M	M					B	4	0	shapes	N	3	False	73	(3.3602415802373624, -6.7306436906929541)	(0.73571376406354005, 8.3627714326781728)	(-4.1674290681143589, 3.3294456443118374)	(-7.6259068858479431, -7.5482252795391602)	1.0	slash	0.956498
3	N	A	B	M	A	N	M	B	B	8	6	shapes	M	3	False	73	(2.4892184357706384, 8.4615539710821857)	(-0.59795286059751085, -3.1033926035016339)	(-5.8243085445493108, -6.6198137178746919)	(2.8464455792724994, -6.2681463339003436)	1.0	slash	0.769928
4	M	A	B	B	A	N	M	N	A	8	6	shapes	M	3	False	73	(6.0892203684490021, 5.4822579955437991)	(-8.1177137833280728, 6.3713155415826694)	(-3.2569874873560298, -4.846970683819551)	(-6.474207126637789, -7.4631554749360758)	1.0	slash	1.3091
5	M	B	M	N					B	4	1	shapes	B	3	True	73	(4.1248843061584797, 1.5993500463030319)	(-1.2001059527165658, -3.6540065115470712)	(2.6847302382130422, -7.3611176727575298)	(-4.6745626603874424, 3.4458673555708561)	1.0	z	1.03325
6	M	B	A	M					B	4	1	shapes	B	3	True	73	(-4.6529744347126627, 2.5199781812039763)	(6.7592789877077095, 4.8572495009367067)	(8.1450285526125441, -0.31048065060616992)	(-1.5051364384849535, -0.62984653527631274)	1.0	z	1.85212
7	N	B	B	M	M	N	A	A	M	8	7	shapes	A	3	False	73	(5.9756116573245102, -1.2298058244947727)	(-3.656811338752739, 5.1413282212201761)	(1.4312196516312685, 0.64463089723562561)	(-3.9510445095400666, -7.0873891803252675)	1.0	slash	1.44403
8	N	B	B	N					B	4	1	shapes	B	3	True	73	(7.7515253235673676, 7.7910180213030777)	(-8.1301508331912746, -1.829637681885421)	(1.5070265024943108, -4.2151316927237756)	(-3.6397775567735646, 1.9669614961271087)	1.0	z	0.997998
9	N	A	B	B					A	4	1	shapes	A	3	True	73	(-4.1973231107347608, 0.38404834314198588)	(4.9548079812524826, 0.75685351782395216)	(7.8627160756773264, -5.0057271649282331)	(-7.1286038290388731, -3.1566429634094746)	1.0	z	2.0553
10	N	B	B	N					N	4	0	shapes	N	3	True	73	(-1.4384848359800797, -1.3463892124163559)	(7.8934337199699556, 7.2737317384265054)	(-5.0577300840125972, 1.7347455867936556)	(3.0157037154267385, -7.8675764083437381)	1.0	slash	1.90325
11	M	B	B	A					A	4	1	shapes	B	3	False	73	(-6.6912667947799633, -4.1661765733739475)	(5.6800938018161986, -0.084909833345003349)	(-3.5845436341773702, 8.661437628728347)	(2.9716162182638097, 8.210380372833626)	1.0	z	1.22883
12	N	B	A	A	M	B	N	M	M	8	4	shapes	M	3	True	73	(8.0200579758938879, 1.6494194526239294)	(7.5744097247706179, -3.7905068483802999)	(-4.5264071685975225, -1.7641733779245836)	(6.9981144910213153, 6.7048432161497029)	1.0	slash	2.82746
13	M	A	M	A	N	N	B	B	N	8	4	shapes	N	3	True	73	(6.6731893564811458, -3.5936302347717231)	(-0.10809320353758345, 4.9144273787897479)	(8.5308481530079767, 7.8705940526277374)	(-1.6346338701194334, -5.7618089012002054)	1.0	z	0.964058
14	M	B	N	B					N	4	3	shapes	B	3	False	73	(-1.1326937284982463, 4.0600040901730861)	(5.7718044244154054, -7.4933029524936776)	(-3.3366579026061025, -1.7094157606421536)	(7.4850453458679667, 7.621040442567061)	1.0	slash	2.10117
15	N	A	B	M	B	A	M	N	B	8	1	shapes	A	3	False	73	(4.8391580647878971, -6.5635590730420788)	(-3.9895201641204814, -6.2548746604359415)	(-1.6933304965846503, 6.0435879833014656)	(-6.9530118732812287, 3.946083054886703)	1.0	slash	2.34063
16	N	A	N	M					A	4	3	shapes	M	3	False	73	(-8.1286307000100742, 8.2791312693810468)	(3.1076862196594064, -4.3029596239318675)	(-3.1617341468701525, -8.5681349921832179)	(3.2064621645777276, 3.9536238406524902)	1.0	slash	1.73029
17	M	B	N	A	N	B	M	A	M	8	0	shapes	M	3	True	73	(-2.7793368389733519, 2.9800774819632601)	(-7.1953497287745538, 2.1961001596643861)	(7.7090165263435964, -2.6805368863815975)	(-6.5743186856214226, -2.3237580366149624)	1.0	z	2.18971
18	N	A	A	M					N	4	3	shapes	M	3	False	73	(6.6773929493170989, 7.1893271478256935)	(-1.275326163887903, 1.7464761402996345)	(6.7907062419528756, -0.65551404637026245)	(-5.8190412518050412, -0.23571746997174436)	1.0	z	1.4817
19	M	A	M	N	B	N	A	B	N	8	5	shapes	N	3	True	73	(6.5883270091703245, -5.5214193810382461)	(-7.2435830588539263, -5.6170042930706945)	(-6.0115812297488747, 1.6330410032322273)	(-0.92770942246918953, 4.1407904881130158)	1.0	z	0.973153
20	N	B	B	M					M	4	2	shapes	B	3	False	73	(-0.60467021541455779, 4.8289744279844538)	(6.141257958561809, 1.9081592455028371)	(-5.5861132624742682, -8.1316316424174655)	(1.5651513710177447, -5.0823232531922766)	1.0	slash	1.45274
21	N	B	A	M	A	M	B	N	A	8	4	shapes	A	3	True	73	(6.1764370085248714, 0.80021620718093445)	(2.6243534634518859, -2.2292912966331331)	(-7.937320936713073, -4.8062434109766254)	(1.0202940744860189, 6.3423879582382874)	1.0	z	3.81373
22	N	A	M	M					M	4	2	shapes	M	3	True	73	(-7.2171072493486088, 6.9304135985212891)	(-5.912618240915565, -1.6679310040952169)	(3.8667679924354168, -5.6503246637816495)	(7.52982441930126, 6.6537814728410094)	1.0	slash	3.29292
23	M	A	M	A					A	4	2	shapes	M	3	False	73	(-2.2954898427753605, 4.5466549461813557)	(7.755995484569123, 8.1159630050869183)	(3.6620115155065349, -0.54683969070120497)	(-2.2508015362247482, -4.2228479757979613)	1.0	slash	5.72264
24	M	A	M	N					M	4	0	shapes	M	3	True	73	(-1.0200607161866007, 4.5887376079074187)	(2.6432518566654792, 8.2957100294048693)	(-2.0785906931124769, -7.5170736787638166)	(6.9648425267671463, -1.745405296490306)	1.0	z	1.35837
25	N	A	N	A	M	M	B	B	N	8	2	shapes	N	3	True	73	(-4.4020459487021952, 6.9117745234663541)	(1.9504803393723869, 4.3671654876412003)	(6.0849197275361835, -1.2978945228521583)	(-8.6662126569369562, -6.0058718049828475)	1.0	z	2.3232
26	N	B	A	A	M	M	B	N	M	8	6	shapes	B	3	False	73	(-6.5641613474024911, 7.7635899571240827)	(-3.2853005887037519, 2.6393178649758866)	(5.5901788647702784, -0.93023362535706688)	(4.744275786683529, 3.2053557238466794)	1.0	slash	1.29588
27	N	A	M	N	A	B	B	M	N	8	7	shapes	M	3	False	73	(-4.9434644577840734, 6.1158944956925101)	(2.8024650498443577, -4.4163679941875671)	(0.98759196465011279, -0.29688867337143421)	(-3.1941544856897002, 0.58435182915445338)	1.0	slash	0.897575
28	M	B	A	N	M	N	A	B	M	8	1	shapes	B	3	False	73	(-0.85995229353583902, -1.9445492017193624)	(5.4525484119250098, 4.2898863065803621)	(3.9169626762016723, -8.5399990969286996)	(3.3612533144542578, -4.515505710317548)	1.0	slash	1.77121
29	N	B	A	A	B	N	M	M	M	8	6	shapes	M	3	True	73	(0.39164319957938076, -4.4791948780060622)	(-3.2608609710043455, 1.8453497561320287)	(-5.4479882367715202, -2.3606999557469601)	(6.1153736742324867, 5.30871094090244)	1.0	slash	0.982865
30	N	A	B	N	A	B	M	M	N	8	0	shapes	N	3	True	73	(-1.3074150473401351, 7.5063601187789715)	(3.7849294146314651, -2.4969254064613411)	(5.3429102008694578, -6.5748251846508516)	(8.0929490396527797, 5.9842619402403141)	1.0	slash	0.838448
31	M	A	B	A					A	4	3	shapes	A	3	True	73	(6.9758899926339648, 5.5212339907408836)	(-0.77572082289536759, 4.311285566515803)	(4.4020913719600223, -8.3878628869675502)	(-5.116528880070355, -5.2457640251334468)	1.0	z	0.976048
32	M	B	A	A	N	M	B	N	M	8	4	shapes	N	3	False	73	(-5.9097022871073337, 0.70547062551620776)	(3.0561756797077244, -4.1222107222566358)	(6.784435022553307, 8.6617447942386647)	(-1.477799735685462, -5.840414149327624)	1.0	slash	1.08171
1	N	A	B	M	A	B	M	N	B	8	5	shapes	B	4	True	73	(-1.1009471436821858, 1.2411039538582358)	(8.3081587433191402, 3.9567553302912248)	(1.800084336197795, -3.0793710145192321)	(-2.8377630650207353, -2.9630657798156479)	1.0	z	2.11077
2	M	A	N	B	A	N	M	B	N	8	2	shapes	N	4	True	73	(-7.7725637912103878, 0.42463336523854878)	(-4.5262334365002399, -7.9859469209624976)	(2.3660365376630974, 8.2369224594559398)	(6.9962911939978802, 8.316844033158727)	1.0	slash	2.26807
3	M	B	N	N					B	4	3	shapes	N	4	False	73	(-4.9137091169615399, -2.0218251481350515)	(5.110347014424649, -6.508158860138705)	(-1.0460920048077389, 3.9031774342585734)	(3.3934026602672613, 3.5795870029563144)	1.0	slash	1.336
4	M	B	M	B					M	4	2	shapes	M	4	True	73	(0.62539888836075264, 2.9799503524552495)	(5.0579496563583586, -6.0077001584336225)	(-5.4993418183678386, -4.3373706614957932)	(-3.5592543703761743, 4.2763032637904779)	1.0	z	1.26404
5	M	A	B	N	A	N	M	B	A	8	3	shapes	N	4	False	73	(-1.7062513042736898, 2.0557438207844232)	(-5.1270156073284259, -3.196619050610007)	(-7.3297305131705066, 8.4049334644748122)	(2.758481971000899, 2.7032673584653306)	1.0	slash	1.05555
6	N	A	A	B	B	N	M	M	B	8	3	shapes	B	4	True	73	(-0.58992828360573846, 2.8541290751718744)	(-7.1625458422279085, 1.9436555595464053)	(-3.0676756265611118, -1.394324393023604)	(3.0500619625245076, -1.7420157948263046)	1.0	slash	0.937228
7	M	A	A	M	N	N	B	B	B	8	0	shapes	M	4	False	73	(2.8415654411602471, -0.68570339716421813)	(-7.9757152942066245, -3.8275603414051238)	(-1.5271830497707075, 1.6316673925017007)	(5.7922316108526957, -8.0483886079185911)	1.0	slash	1.73823
8	N	A	A	M	N	M	B	B	M	8	0	shapes	N	4	False	73	(4.4687280724159208, -7.8835620795861736)	(4.9469782514479643, 0.70353193982889195)	(-5.5276997828573826, -4.2789120824465083)	(3.9597724280238644, 7.5515605848020151)	1.0	slash	0.964663
9	M	B	B	N					N	4	3	shapes	N	4	True	73	(-4.6781355841131891, -6.3902780842939846)	(1.6482948066047154, 3.9625740149398592)	(4.745240418784471, -7.8684509741592716)	(-8.5387357398410728, 5.4251739596044271)	1.0	slash	0.902271
10	N	B	M	A					M	4	2	shapes	M	4	True	73	(4.1228028432857151, -7.5510595282600281)	(7.8532072080731403, 2.9997774677142939)	(-3.6045323078163145, -8.2741076842435923)	(-3.4755807043277338, 4.9281095266942128)	1.0	z	1.34791
11	N	B	N	M	M	A	B	A	A	8	5	shapes	A	4	True	73	(-5.4655050743675533, 1.4316098188463364)	(5.3647417199758021, -8.5001377041921824)	(2.8006044687788965, 0.82964539521837288)	(7.2433889169849284, -1.8219211980328573)	1.0	slash	1.00344
12	N	A	N	M					N	4	2	shapes	N	4	True	73	(-5.4224883002082258, -0.76839169360374093)	(2.0177633438669247, 0.92917975387582352)	(5.4038377247207077, -4.8233223445014115)	(-5.6670527593657596, 6.3981492715138746)	1.0	slash	1.06906
13	N	B	N	B					A	4	2	shapes	N	4	False	73	(-1.5592856007834159, -1.1186930322166448)	(3.928504155917901, 8.7399390910982255)	(-5.9493483265576579, 7.4311328837768436)	(1.6574251651663552, -6.6934895654948381)	1.0	slash	0.904891
14	N	B	N	M	M	A	A	B	M	8	7	shapes	B	4	False	73	(2.2177647939755829, 8.4753340389150864)	(-2.3355048071846056, 8.6981840168032178)	(4.855514783687072, 3.8604034672195162)	(-0.44523328918377381, 3.8417670452870247)	1.0	slash	1.68848
15	M	A	A	M					A	4	0	shapes	M	4	False	73	(0.54701387967855197, 7.1769801489260328)	(-3.4708956335508372, -1.3865874790920625)	(7.1730169904829726, -7.1126941983763015)	(-5.3886505650705008, 6.0699953855786966)	1.0	slash	0.919998
16	N	A	M	B	A	N	M	B	A	8	1	shapes	A	4	True	73	(-2.4437803204139268, -8.1499044271249961)	(7.5232602276910185, -5.0944506097596411)	(4.2780286944495778, 1.7359673857120761)	(4.6971403383171459, 6.1062519046248944)	1.0	z	1.38123
17	N	B	N	B	A	M	M	A	B	8	1	shapes	B	4	True	73	(4.5103332893563852, 7.3634553309177022)	(7.4911890693638057, -5.8033493775157829)	(-5.4801728628773674, -4.4140501383244279)	(-1.989120519175656, 5.278509504222324)	1.0	slash	1.00511
18	N	A	M	A					M	4	1	shapes	A	4	False	73	(-8.1276092520464971, -8.2244005921926231)	(4.8841653245289312, 3.8261917379759414)	(-8.3815118165278779, 4.8186018798974111)	(7.4614300655772006, -6.1030055408613988)	1.0	slash	0.990931
19	N	A	B	M	N	B	M	A	B	8	1	shapes	A	4	False	73	(-6.8916454030527374, 0.051949480881230414)	(3.5326594615859204, -2.7106286319875794)	(5.7519233771448111, -8.4067311393357151)	(-3.9739422934763189, 2.9265574922403346)	1.0	z	1.60641
20	M	B	M	B					B	4	1	shapes	B	4	True	73	(-8.5793894665576822, 2.5919366192153532)	(2.2278913186149047, 2.0925603056669377)	(8.2515524932643274, -7.3751334476753563)	(-5.2448556164696054, -4.4003093446905979)	1.0	z	1.12812
21	M	B	B	N					N	4	2	shapes	B	4	False	73	(-3.9871971141706242, 6.3262617114843476)	(-7.2488060610930898, -8.0391639566644439)	(2.517303785084394, -8.268787828412167)	(5.5916475642926962, 0.63132685129934174)	1.0	slash	1.0557
22	M	A	M	B	A	B	N	N	M	8	4	shapes	A	4	False	73	(1.1385859665106057, -6.3090414597458029)	(-2.3426463500933981, 4.2526764021650791)	(7.3444903275939346, -0.28327445394214656)	(-6.2045698183271156, -5.2306046063649179)	1.0	slash	1.07327
23	M	B	M	B					M	4	0	shapes	M	4	True	73	(1.8653491834311424, -1.6632624519857044)	(-3.0241285118134993, 6.5270974925890037)	(6.5118810710904196, 5.5776182520838713)	(-5.5959582223099131, -8.6507201733424015)	1.0	z	0.86887
24	N	A	N	M					M	4	0	shapes	N	4	False	73	(-0.024156622849607956, -3.4102097138061964)	(5.380606077829615, -8.1272502080953473)	(4.1565550005951515, 1.6904723426716846)	(-4.0998660526176511, 0.18163314341761172)	1.0	slash	0.94472
25	N	A	B	B	M	N	A	M	M	8	1	shapes	A	4	False	73	(2.4595242667604413, -7.1745757685287446)	(-3.4687946849197466, 5.7271888232959469)	(1.2767398888889048, 7.5192467619177812)	(3.677860814400411, 3.5184366367598408)	1.0	slash	1.14221
26	N	B	A	M	A	B	M	N	N	8	7	shapes	N	4	True	73	(7.4154890359856189, -5.794421783082166)	(7.0662441394643984, 7.1364701565354949)	(-7.3052801899557736, -6.0972303525331029)	(0.34230564293988053, 7.1003718310122945)	1.0	slash	1.38168
27	N	A	A	M	B	B	M	N	N	8	4	shapes	B	4	False	73	(-5.4267438637451129, 4.3582598432623207)	(1.3911646864547205, 4.764723243662953)	(-6.4874147723329756, -1.4889577253913782)	(0.65727093355356025, -0.70297434922998647)	1.0	slash	1.38141
28	M	B	M	A					A	4	3	shapes	A	4	True	73	(6.5454471042360254, 5.348334944757454)	(-0.32201242685942688, 2.5073052388861505)	(1.1521232664243612, -6.6431337402354433)	(-6.3220920017757569, -0.21775329899633533)	1.0	z	0.939058
29	M	B	N	M					B	4	3	shapes	M	4	False	73	(6.3076187783472282, -5.5881967039675962)	(7.7640704874459949, 5.2443052360153182)	(-3.1353044834283166, -8.3245223349664119)	(-2.7938786531087034, 3.2658432622938065)	1.0	slash	1.04088
30	N	B	N	B					N	4	2	shapes	N	4	True	73	(4.4948212944499364, 7.3036013692437791)	(-2.5303009747688989, -3.6874262909054103)	(-2.718572199128876, 2.4461830776662588)	(5.9047765007230026, -6.3196669460385824)	1.0	slash	0.94641
31	N	B	B	M	N	A	M	A	N	8	0	shapes	N	4	True	73	(7.9174889103347539, 0.33039273634583743)	(0.29646990278649099, 3.0913945737115256)	(-6.6527102899537205, 1.4332058722058836)	(-3.5454753326306161, 8.3536503080466282)	1.0	slash	0.962128
32	M	B	B	N					A	4	0	shapes	M	4	False	73	(-6.3360450118026348, -4.2977046320679797)	(-5.8900048279666688, 5.1158628225139662)	(1.3231208307515594, 4.7042898333025462)	(4.5462182305200063, -6.9517596728054585)	1.0	slash	0.64978
1	M	B	N	B	M	A	N	A	N	8	5	shapes	A	5	False	73	(-0.46022845296943515, -7.7177799083712006)	(-5.2241961510786261, 1.5836691818874105)	(-7.9773947650289507, -5.5901158590375069)	(2.1469280935122281, -0.68206741690494965)	1.0	slash	0.801887
2	M	B	A	M	A	B	N	N	N	8	1	shapes	B	5	False	73	(3.108721660760283, -3.2319501371944162)	(0.27494627907819869, 7.9696165625830027)	(8.5345219684055351, -4.488728935386761)	(3.9185471977662427, 3.7061698754823666)	1.0	slash	1.0288
3	M	B	N	M	N	B	A	A	A	8	6	shapes	A	5	True	73	(-2.9113136846591843, -5.4168140112568235)	(0.4777571154758693, 4.4807882705715318)	(4.9555821048382551, -2.0398199325365924)	(1.2364765907397697, -3.6283252823339058)	1.0	slash	0.916565
4	M	A	A	N					B	4	3	shapes	N	5	False	73	(-7.5861917466247935, -2.0705540569794278)	(-2.254970197359178, 8.7398643249901156)	(0.30522288904054662, -5.2254129705694892)	(0.75590291657220021, 4.2985515999579054)	1.0	slash	0.824193
5	M	B	M	A	B	A	N	N	N	8	4	shapes	B	5	False	73	(-3.6142227352509932, -2.1515090583809862)	(0.99822721508686918, -7.1431651754678196)	(6.4163699423046925, -6.1847616956091525)	(0.30590243925390403, 4.201237520506341)	1.0	slash	0.951915
6	M	A	B	N					A	4	3	shapes	N	5	False	73	(-6.2797355559381485, 2.383844234803659)	(2.9342554954217324, 0.38394241413985952)	(-4.7987694120326232, -7.2045058711664414)	(2.3406830639290792, -4.1326902758500079)	1.0	slash	1.58703
7	M	B	N	N	A	M	B	A	N	8	2	shapes	N	5	True	73	(-1.6632141978411736, 4.173193518755907)	(2.8228078367945439, 5.8817501503147298)	(-4.3904264376001905, -6.4873137322901115)	(7.4876920453707712, -1.9117832264528056)	1.0	z	1.35482
8	N	B	B	A	N	A	M	M	B	8	1	shapes	B	5	True	73	(1.9533664910663386, -1.8483451644064219)	(7.5243634550316507, -0.36352381341847462)	(-3.7926796030749514, 1.5531600384586266)	(4.111561168314088, 1.7894427176955929)	1.0	slash	0.929002
9	N	A	M	A					A	4	1	shapes	A	5	True	73	(-6.6050152890748457, -0.15985304381209531)	(8.3742302519045211, -5.1800909033236593)	(-1.3852522216349517, 4.4413738031041099)	(8.2405621661109727, 5.1281796096464607)	1.0	z	0.880372
10	N	B	A	N					A	4	1	shapes	B	5	False	73	(6.4733210616760708, 5.2817124653566072)	(-4.1241457526691816, -6.1249836174674313)	(-8.4882615956904619, 7.9688913548036844)	(5.7234086452624382, -5.5508185459605475)	1.0	z	1.36964
11	M	B	A	N					A	4	1	shapes	B	5	False	73	(-0.38158797005943335, 6.1660075165071184)	(-3.446764577505105, -0.40160138103518328)	(8.5835431338380062, -2.7648291716752915)	(2.3988677493776116, 0.15682698434700804)	1.0	slash	0.945716
12	M	A	B	N					M	4	0	shapes	M	5	True	73	(-3.1719703567465922, -1.7926000740846684)	(6.8461157845380853, 1.7141183978102408)	(-5.9002219136101175, 3.0709679248626873)	(4.7883434250637738, -8.082175944920186)	1.0	z	0.903621
13	N	A	B	M					M	4	3	shapes	M	5	True	73	(-5.6939941771450515, 8.3356792606478685)	(4.9176886173978893, 6.0605454893424451)	(6.6484786139761791, -6.9000494690024876)	(-1.0557664828460762, -0.69280815577019261)	1.0	z	0.809202
14	N	B	N	M	A	B	M	A	B	8	0	shapes	N	5	False	73	(-4.4814004956858815, 0.5809096827470448)	(-1.7623541449565074, 8.4964047286291873)	(-0.47541031937141121, -2.6555418069587082)	(4.0269939574963587, 8.1651591397006342)	1.0	slash	0.648684
15	N	B	A	B	M	M	A	N	N	8	6	shapes	A	5	False	73	(6.341981632507018, 4.8308008058503962)	(-8.6278556662357868, 5.8068080017736019)	(-1.8206730242674292, 0.27537212573885306)	(-4.3803639555707132, -4.6551345408487883)	1.0	slash	0.868151
16	M	A	A	M	B	B	N	N	B	8	4	shapes	B	5	True	73	(-5.3992317396710678, -5.7456859782249934)	(0.23155764162720338, -2.4643309613412816)	(6.7746076421643036, 6.9532948648629027)	(-3.6581781654903187, 1.9044613034717042)	1.0	slash	1.9394
17	M	A	A	M	B	N	N	B	M	8	3	shapes	M	5	True	73	(-5.4933783444659081, -5.7050503050700456)	(-6.2895601278090885, -0.0062188629282324825)	(4.9831178250442498, 2.7717925679851305)	(-4.0505584116127853, 7.6732568905099257)	1.0	slash	0.909532
18	M	B	M	B	N	N	A	A	B	8	3	shapes	B	5	True	73	(-8.2396005555507621, 0.99932749976881396)	(-3.4717049537097182, 5.6161696293711607)	(4.2191514975961848, 5.108970032409669)	(0.46052395789354073, -1.1011407086939382)	1.0	slash	1.08512
19	N	B	N	A					B	4	1	shapes	B	5	True	73	(6.9565816944878165, 1.3940989389079643)	(-2.6165862256172918, 3.4606248268039899)	(0.18479080146617655, -6.7558794174696608)	(-4.9385260355738376, -3.733181255741667)	1.0	z	1.86224
20	N	A	B	B	N	M	M	A	B	8	0	shapes	N	5	False	73	(-2.1318674824544273, -8.7225084349916457)	(4.9581945502909281, 6.9787384086223661)	(7.5120766631977354, -6.2012540519240691)	(-0.55594161981802515, -4.242694014583213)	1.0	slash	1.31054
21	M	B	B	N					A	4	1	shapes	B	5	False	73	(4.4005382047738042, -4.1149664773591104)	(-5.1492501372774164, -8.7257794427475854)	(1.7507313025734774, 0.54669356396147606)	(-3.561299059824675, 4.8576370643705751)	1.0	z	1.14601
22	N	B	N	B					A	4	0	shapes	N	5	False	73	(7.4447561857442501, -0.55977075429853862)	(-8.4957156890538776, -0.66248262753104292)	(-2.334895430592967, 7.301401616230482)	(1.2696848859881591, 1.2321447249101229)	1.0	slash	0.983542
23	M	B	N	A	N	M	B	A	N	8	7	shapes	A	5	False	73	(-1.5789363885798231, 2.9848455667148581)	(0.23622589596071819, 7.4808511039039232)	(4.0504120855267978, -5.1625629259547807)	(-3.6482286146595513, -5.8046534903294518)	1.0	slash	0.855218
24	M	B	M	A	B	A	N	N	A	8	5	shapes	A	5	True	73	(-1.8429830926526964, 2.7491477861036913)	(4.3722592139948961, -6.179060968365981)	(-8.1992592475890529, -5.8455647284276591)	(-5.5583085076104801, 4.5520602538510531)	1.0	slash	0.728425
25	M	A	A	M					A	4	2	shapes	A	5	True	73	(-0.55449608401772288, -4.8983937747086479)	(-6.8866273909253861, 6.4228783630451911)	(2.1091250915790738, 8.454290094711471)	(7.1219582748364711, -2.5872573364838471)	1.0	z	0.880428
26	N	A	M	A	B	B	M	N	B	8	1	shapes	A	5	False	73	(-7.5224027987653539, 3.0213007302934844)	(-7.8812671307781157, 7.4466356681066515)	(4.7337295392001462, -2.1282605007944673)	(4.5363345360017675, -6.755356715834699)	1.0	slash	0.893943
27	M	B	A	A					A	4	3	shapes	A	5	True	73	(8.0160636039219177, 2.7013856817287216)	(-7.2155591079847206, 1.5525080611192745)	(6.8070079209069032, -7.0515536790845932)	(-7.3754636071068145, -5.079209781462442)	1.0	z	0.741886
28	N	B	A	B					M	4	3	shapes	B	5	False	73	(-2.8516192143646695, -1.0851987343765517)	(1.7505475212290929, -2.9249060207167936)	(-0.41405001191530033, 2.2960700635826115)	(4.5323313565078749, 4.9321318782175396)	1.0	slash	0.899856
29	M	B	A	B					A	4	2	shapes	A	5	True	73	(-3.5685919208784078, -6.5904646795712178)	(8.5840493212844251, 8.1371218992501682)	(2.7288417535427847, -0.31915854975891556)	(-6.9967975997200558, 4.3957056411673143)	1.0	slash	0.993232
30	N	A	A	B					A	4	1	shapes	A	5	True	73	(4.391155933209582, -0.53389531084380693)	(0.48522799974063169, 7.7870093515237251)	(-1.3031187465885914, 0.36814730371690274)	(-4.7028344165695612, -6.1809407058820005)	1.0	slash	1.11667
31	M	B	N	A	N	M	B	A	N	8	2	shapes	N	5	True	73	(3.8061179118397916, -6.1561533814946134)	(-1.634405789055168, -5.7219986715471611)	(3.3922295209862092, -0.88958260663870625)	(-3.1808744123378139, 2.9585331037484384)	1.0	slash	1.00227
32	N	B	A	M					N	4	2	shapes	A	5	False	73	(-0.43205697818835631, -1.4249128526642743)	(-6.2876759086994962, 7.2156232454543314)	(3.9058043791341408, 5.7348300986072118)	(8.2880835461549793, -5.6495241661520001)	1.0	slash	1.16404
1	N	B	A	B	M	M	A	N	A	8	6	shapes	A	6	True	73	(4.2056299000470787, -1.6856030105224971)	(-7.3964502241290484, 1.9670398742923965)	(-0.84162017832325908, 6.6660217032145788)	(6.7774142782291662, -6.6543620244217543)	1.0	z	1.30759
2	N	B	A	M	A	N	M	B	B	8	4	shapes	A	6	False	73	(5.5539451750456799, 4.3197132437473922)	(-4.6330426747383493, -6.1582053950183244)	(-6.2215481689325092, 8.5743373672265406)	(0.77437559731098915, 5.8402288214429916)	1.0	slash	0.883362
3	M	B	N	B	N	A	M	A	B	8	3	shapes	B	6	True	73	(-0.18456301550417997, -2.4207993389132829)	(-8.6075064166756725, -7.5192757087441109)	(2.1951918412356495, 7.4136695507959729)	(-3.6596913313369841, 2.0468025334437705)	1.0	z	1.08693
4	N	B	M	M	N	A	A	B	M	8	2	shapes	M	6	True	73	(7.2542871036482666, -6.6310582288369719)	(2.9455387070011998, 3.9354673847578194)	(-4.7509248082368849, 0.073333040778354786)	(5.947100840743003, 1.2882865753558832)	1.0	z	0.802474
5	N	A	B	M	B	M	A	N	N	8	7	shapes	N	6	True	73	(4.3075373569543949, 3.7007524355250947)	(5.5235740789724126, 8.3872561159612573)	(-4.2299878348078233, -5.8687737053713249)	(-3.6175590598164051, 4.6446506931222125)	1.0	slash	1.15002
6	N	A	B	N					M	4	0	shapes	N	6	False	73	(-1.2428775103574941, 8.2290881478437612)	(7.31163391451134, 0.36410982509623047)	(-8.3579723346540824, -2.7377212667093414)	(7.7153083189971987, -8.5266416307228976)	1.0	z	1.06542
7	M	B	A	N					A	4	0	shapes	M	6	False	73	(-5.6285970739762377, -1.4891360343519757)	(-2.4975049657806432, 8.6973067491319398)	(8.3712530073400337, 2.3969558099296222)	(4.4837854521905722, -7.3744291821192158)	1.0	slash	0.68764
8	M	A	M	A					N	4	0	shapes	M	6	False	73	(3.3360726061744757, -3.7400187488696544)	(-5.6483113955456412, 0.31470167232396662)	(-7.0017458666283723, -7.2449385575247689)	(2.7034390923888676, 1.5070124048760487)	1.0	slash	0.759335
9	N	A	M	A	B	M	N	B	M	8	2	shapes	M	6	True	73	(-4.4846251843751457, -3.9719900068315672)	(1.3880362193065139, -1.9841551131496837)	(5.9413167840172445, -3.9985148237795158)	(2.9605729355358985, 3.0454435480525426)	1.0	slash	0.86735
10	M	B	N	N	B	M	A	A	A	8	7	shapes	A	6	True	73	(7.6320814083498334, -2.6289586782028724)	(3.7224918786750116, 6.266791426385625)	(6.053882123894029, 1.3674568747973836)	(0.10468207333896551, -4.0596979814694132)	1.0	slash	0.85046
11	M	B	N	B					B	4	3	shapes	B	6	True	73	(-5.4280721964414278, -7.9430976474689947)	(2.9546199505527255, -7.8065239818590717)	(-7.4704848429149484, 0.98223155566317999)	(2.9176466371846477, 1.7376848923092396)	1.0	slash	0.986145
12	N	B	N	A					A	4	3	shapes	A	6	True	73	(4.5152761234261014, -2.5463686480408079)	(-3.8363602605896654, 4.531122092506731)	(-3.8669772451488482, -1.6633097686890164)	(0.067055199839083812, 1.118113117563702)	1.0	slash	1.80722
13	N	B	B	M	M	A	A	N	M	8	1	shapes	B	6	False	73	(0.28222101555581602, -6.3370647848095576)	(-2.5540727065027129, 1.1191989686530928)	(2.8508304227961307, 2.1989509687212845)	(7.1790549790544524, 5.3254555233766361)	1.0	slash	0.777826
14	N	B	M	A	M	A	B	N	M	8	1	shapes	B	6	False	73	(5.4938968176961644, 2.3269393809924139)	(5.408156312474425, -8.1107502166077161)	(-1.5799600139813199, -7.509739079250318)	(-7.6934862185281041, -1.1042728024012014)	1.0	slash	1.01288
15	N	A	N	B					A	4	2	shapes	N	6	False	73	(2.798199916531166, -8.0070510705292595)	(1.4111953353059068, 7.3877135553652202)	(-6.0255253573954928, 1.3113682241771123)	(-6.3810799245507717, -5.0508579499869706)	1.0	slash	0.876961
16	M	A	M	A					M	4	2	shapes	M	6	True	73	(-4.8591258039353917, 2.9611275773212817)	(7.0750545804915141, -4.1066855752119471)	(8.7109406279833159, 0.865707903374485)	(-3.9133483164831819, -3.7989330826298744)	1.0	slash	1.25616
17	M	A	B	A					A	4	1	shapes	A	6	True	73	(5.0714772933187877, -5.6281061183343706)	(-1.8502279475751635, 3.0510442721965703)	(-1.4507458294584987, -2.5580052409480372)	(6.0388907202008522, 2.0716988267513372)	1.0	z	0.911832
18	N	A	M	B	M	B	N	A	B	8	5	shapes	B	6	True	73	(-5.9051550084336144, 4.172598533023729)	(-5.3983033824208668, -5.0554127929697401)	(0.0079248305125858565, 4.3713771424046257)	(0.085949173167735538, -0.76834703016489314)	1.0	z	1.21298
19	M	A	N	B					M	4	0	shapes	M	6	True	73	(-8.2209935081496486, 0.82692436951477433)	(7.8809939332525936, 1.9354623414390346)	(-0.54072470305525222, -6.0932290870456143)	(7.9530491785939823, -8.4860151328925646)	1.0	z	0.749214
20	M	A	M	A					B	4	2	shapes	M	6	False	73	(-8.3630802612842352, -6.8817465596860927)	(1.7295251299904368, -0.50862843259542956)	(2.5014175944364609, 7.0319624985569362)	(-3.0240265190323212, 5.8416892315680897)	1.0	slash	1.19866
21	M	A	A	B					N	4	1	shapes	A	6	False	73	(4.6210773048498499, -5.7379922108200949)	(0.62239954374908812, 2.1627709406372375)	(-7.7033516332271841, 0.78615520228782287)	(-0.11649428957779229, -7.0804417910230608)	1.0	slash	0.80033
22	M	B	B	A	A	M	N	N	N	8	6	shapes	N	6	True	73	(4.8318506916703416, 0.1461820059822081)	(-1.565851700847765, -1.3423834151501994)	(-5.0559743337687575, 1.1422176406305287)	(7.8962374851241179, 2.7198409831016601)	1.0	slash	0.98775
23	N	B	B	M					B	4	3	shapes	M	6	False	73	(2.5695480979572825, -8.6220209548314806)	(5.7734820133222353, 4.0702406130125546)	(-1.0529986949583536, 5.8397701286989534)	(-2.4806142787136363, -1.7492560943029103)	1.0	slash	0.903821
24	M	A	B	M	B	N	N	A	M	8	6	shapes	N	6	False	73	(-0.97555844512672785, -8.6252762460913956)	(6.5703618883173025, 5.7659473634004392)	(-0.11260513243011339, 5.3425830348409917)	(-6.1254138823807391, -2.672398906719966)	1.0	slash	1.67874
25	M	A	M	B					B	4	3	shapes	B	6	True	73	(-1.7631246455490777, 0.26207435582347038)	(8.1130425226635836, -5.8386349687626451)	(6.0616733948395183, 5.0209374555492996)	(-7.2820996624667895, -1.9959129062461312)	1.0	slash	0.969087
26	M	B	M	A	A	N	N	B	N	8	0	shapes	M	6	False	73	(1.2830899724519629, -4.5460752078329634)	(7.1232472370083855, -1.2415802764323169)	(-6.0612111880658919, -0.97578281621936469)	(5.0983499227570039, 4.1822294169821443)	1.0	slash	0.850568
27	N	B	M	B					M	4	2	shapes	M	6	True	73	(0.41156985007091329, -3.1540593197567244)	(5.1294251712842964, 0.24960450772216625)	(-0.37597810225530104, 2.4711128337935655)	(-5.7965687887301645, -6.0008516552518287)	1.0	z	1.36192
28	N	A	M	N	B	B	M	A	N	8	1	shapes	A	6	False	73	(2.2162211914556575, -6.2057556218412167)	(-2.6444755652737273, -1.9697486434930367)	(-5.3822276279079677, 3.9166714659747193)	(8.578818625992227, 3.804475738096583)	1.0	slash	0.837879
29	N	B	B	M	M	N	A	A	B	8	4	shapes	M	6	False	73	(-6.784398708441751, -7.595530943463916)	(7.9699109460194535, -5.0538692244231589)	(6.5371911684394881, -0.10440262527071198)	(-5.9086132203290926, 4.2913401371087634)	1.0	slash	0.977467
30	M	B	N	B	M	A	N	A	N	8	3	shapes	B	6	False	73	(0.67128427348330888, -6.9767535034283892)	(8.3674387598889801, 7.2827209934448156)	(-2.1050077877624904, -3.9054755445474605)	(1.5370764591531358, 0.35695231142122097)	1.0	slash	1.07496
31	M	A	N	M					N	4	0	shapes	M	6	False	73	(-7.548465940174748, -2.3871079988635753)	(8.5921475884979301, -3.9157589179053582)	(-1.6480828314990967, 5.5958661022513709)	(7.5223493300269944, 6.9241199415148991)	1.0	slash	0.942757
32	N	A	A	B					N	4	0	shapes	N	6	True	73	(6.9952069504481997, -6.0751901283022791)	(-4.7102452405619797, -8.0602014049432764)	(-5.380642889303612, 6.6408107670412324)	(4.1622285044046929, 6.2627948301790504)	1.0	z	1.13241
1	N	B	M	A	N	B	A	M	A	8	4	shapes	N	7	False	73	(-4.1605490841512394, -5.5483952153651455)	(-4.9719390812333195, 7.0135438143373019)	(-4.8653382102858878, 1.5214797495610721)	(6.2857912665225069, 6.9320807510001536)	1.0	z	0.984054
2	M	B	M	A	A	B	N	N	N	8	7	shapes	N	7	True	73	(3.8605847016107191, -5.6009398901691814)	(-0.038741671548303103, -6.5261332074805827)	(-2.8119580517672604, -2.3201062202262053)	(7.6316884362747039, 1.7841818544320898)	1.0	slash	0.799837
3	M	B	A	A	N	B	N	M	M	8	3	shapes	A	7	False	73	(-2.7005785395734945, -5.0522375587505817)	(4.8906696643017398, -5.3847890336736413)	(-0.15795694925298776, -8.2401512605061171)	(8.6387118278577049, -2.0678859929679261)	1.0	slash	1.02105
4	N	A	B	N					B	4	1	shapes	A	7	False	73	(-4.0151772738216884, 7.8672077330772581)	(3.855943200210648, 7.5753178890108508)	(1.1637675132052312, -8.087088822296371)	(-6.6074480214737576, -1.798467920661504)	1.0	z	1.29091
5	N	A	M	N					N	4	0	shapes	N	7	True	73	(1.093349339041314, 7.8992290295016367)	(-8.6009433634084136, 5.9403908989866832)	(6.6409418550574379, -0.24111201443989216)	(-4.6260821769713631, -5.7112660035229847)	1.0	z	1.0025
6	M	A	M	B					B	4	2	shapes	M	7	False	73	(2.0013540171075803, 6.5155165960820369)	(-3.7817729294880138, -1.6515523191572807)	(1.8152564688605377, -0.36064326874627106)	(-1.6169761617571146, 4.4231360539413771)	1.0	slash	0.94024
7	M	A	N	B	A	M	B	N	M	8	0	shapes	M	7	True	73	(-3.9267547747279226, 1.3621532288820219)	(-5.6054913815431755, -7.9726389483818325)	(-5.3812357464229637, 6.3731824698543722)	(2.8751400105218963, -3.8801547368200797)	1.0	z	1.47792
8	M	A	N	N					N	4	3	shapes	N	7	True	73	(5.8867908021203945, 2.189258593249054)	(-8.3411662172741199, -3.9552176380789748)	(6.8006954170204033, -2.6168025452992039)	(-3.5621981830518443, 7.9928996105975294)	1.0	z	0.904506
9	M	B	B	A					A	4	3	shapes	A	7	True	73	(0.66763686562157254, -1.0521955814043453)	(-2.4783390490489934, -4.0512642476755927)	(-0.82983517999011269, 5.9425121160772481)	(3.073694160052769, 4.3294292767175513)	1.0	slash	1.06895
10	N	A	A	B	M	M	B	N	M	8	5	shapes	M	7	True	73	(5.9232439822967748, -6.4574136374422402)	(-4.721973431668296, -3.373951858044725)	(-2.7330547253904918, -7.1759692457587514)	(1.8620913909517895, 0.64113233320582275)	1.0	slash	2.36434
11	M	A	B	B					N	4	2	shapes	B	7	False	73	(-6.6344710379543894, -5.9434288887329947)	(-2.8951091694952256, 1.7884023362871559)	(5.2278325053388244, -6.7885420983217593)	(7.9998918894855464, 7.9500632430977731)	1.0	slash	0.942208
12	M	B	N	M					N	4	2	shapes	N	7	True	73	(-5.998947203150224, -4.084299949788555)	(-1.8344295888212416, 1.8779900648608869)	(1.5248374122787141, 6.0974179416488514)	(7.5540601829544514, -3.5804381158368788)	1.0	slash	0.827855
13	M	A	A	B	M	B	N	N	M	8	2	shapes	A	7	False	73	(2.0013337294758387, -7.2196900707802589)	(8.2293179601689168, -0.21605344277058336)	(-0.43838165369953686, -1.7183273347057861)	(-7.4994473825354095, 1.6139121506891119)	1.0	slash	0.907571
14	N	A	N	A					A	4	2	shapes	N	7	False	73	(-3.0732065773138899, -8.3649477537271437)	(5.2722081650005492, 3.6514057031294875)	(7.3937877742941112, -2.2231675888066107)	(-7.5297049515779104, 6.2651465826400781)	1.0	z	1.07913
15	N	A	N	A	M	B	B	M	N	8	0	shapes	N	7	True	73	(0.51385486128974733, -2.7714123436215647)	(3.8420444188246705, 7.207759312178057)	(0.96289753400351863, 4.011178091443778)	(-1.0258389265896444, 7.9328857480921364)	1.0	slash	1.40466
16	N	A	N	M	B	A	M	B	A	8	2	shapes	N	7	False	73	(8.6312135805051149, 7.4066682279099396)	(4.9226847284005562, -7.5491506517856521)	(-0.95356537330161917, 3.3682139022044275)	(-6.1223830973238318, -4.886993628910874)	1.0	slash	0.912529
17	M	B	B	A					M	4	1	shapes	B	7	False	73	(4.0403063731533244, 2.5681366414694526)	(8.0044446287278035, -0.69265891032317128)	(-6.9350382036837832, -4.3766675032778739)	(-0.45452659904461434, 3.071750605620343)	1.0	slash	0.94812
18	N	B	M	M					B	4	2	shapes	M	7	False	73	(-2.3470488499232482, 1.631603924101249)	(-4.0058634826091684, -4.0495981455272929)	(6.6402897545201203, -4.4732219084055194)	(4.2017959683287209, 2.6373191297596001)	1.0	z	1.15186
19	M	B	N	M	N	B	A	A	B	8	2	shapes	N	7	False	73	(8.2532572067687298, -8.0493873853446782)	(-7.294141492070743, -0.025920152060185941)	(-3.1911759022623061, -3.6496759276983131)	(7.7523598972875369, 7.3715742260820178)	1.0	slash	0.901459
20	M	A	N	A	B	M	B	N	B	8	2	shapes	N	7	False	73	(4.0061579292957088, -5.0631588038429269)	(-1.0747367509586976, -8.7452284789111747)	(-8.5318970727892385, 8.2039100384639596)	(1.9102508865967351, 3.335019722391106)	1.0	slash	0.958562
21	N	B	M	N	A	B	M	A	A	8	1	shapes	B	7	False	73	(8.6713215486950865, -7.0152585422715195)	(-4.7430029122219324, 0.31132208462900124)	(4.1350803630929249, 7.7655964006045579)	(7.4943276681068305, -1.4466358123369307)	1.0	slash	0.952671
22	M	A	A	B					A	4	1	shapes	A	7	True	73	(0.5731623452443273, -1.9811861390163035)	(-2.3147195279520352, 8.3624632183178846)	(-4.9426007299903816, -3.6643268328195093)	(5.5528921579234662, 5.5063825507421758)	1.0	z	0.916265
23	M	A	M	A	N	N	B	B	A	8	3	shapes	A	7	True	73	(7.9218033964234102, 0.48566859770086346)	(-6.0620483383028878, 7.1486991159898849)	(6.3140851572513519, -4.5817338236727441)	(1.4446127984547896, 2.5778972814727261)	1.0	slash	1.56147
24	N	B	M	M					M	4	2	shapes	M	7	True	73	(-7.1912144903692612, 8.6013553070184301)	(-5.3711273679225924, -1.4744006193090744)	(5.3226063484987538, 3.1032009966313154)	(7.3428759320542731, -0.833767462756561)	1.0	z	0.93155
25	N	A	B	B	N	M	A	M	M	8	7	shapes	M	7	True	73	(-4.5984959300379291, 2.6002257434931124)	(-1.2889774820227275, -4.051748773247553)	(1.1965158079785567, 6.2202805559100476)	(-0.88251092596748215, 0.32587258725792267)	1.0	z	0.685196
26	M	B	B	M	A	N	N	A	M	8	3	shapes	M	7	True	73	(7.3697325423870055, -3.737408145015368)	(5.2915661561932001, 7.8989335140759778)	(-0.27595190587754281, -7.5908373008105237)	(8.6255936887478519, 1.4177867927931072)	1.0	z	0.864871
27	N	B	M	N					B	4	1	shapes	B	7	True	73	(6.3858554728999195, -6.6543017658595467)	(-1.9131672206085204, 0.24416963877028763)	(7.6707853595729176, 1.9752543117864185)	(-3.4379324354500334, -4.7417070585781094)	1.0	slash	0.638974
28	M	A	N	M	A	N	B	B	N	8	1	shapes	A	7	False	73	(-0.035305952142785202, -0.36064592160809994)	(-8.025012019247777, -1.1285890313554194)	(4.6287447519493945, 5.640414418076821)	(7.7958507254403884, -0.71473562247811451)	1.0	slash	0.956002
29	N	B	M	M	A	N	A	B	A	8	6	shapes	A	7	True	73	(-7.1308682317125394, 6.8405838338753586)	(4.5513953213528158, -3.8625630000709261)	(5.3472509701043691, 5.9544332176786092)	(-0.22133395608429218, 7.5918462805572062)	1.0	slash	0.985913
30	M	A	A	B					B	4	0	shapes	M	7	False	73	(0.72294585596451988, 5.7085682169173904)	(-6.7303191963816431, 0.11117858816699133)	(2.5820433117834085, -2.5183448066411191)	(-4.2962117521381753, -3.1553998502497711)	1.0	slash	0.837445
31	M	B	B	M					M	4	0	shapes	M	7	True	73	(8.5630609650300009, 4.9178426109483944)	(-2.630337520449805, -6.8028310806335064)	(-2.587432949634314, 2.3456408147530414)	(5.70169925551623, -1.0605941612075052)	1.0	z	1.40703
32	N	A	N	A					M	4	1	shapes	A	7	False	73	(-1.1367240040699036, 6.7867960963654603)	(7.9899751672413366, 8.1792834391419902)	(-7.1502849593422129, -7.7343960151691302)	(6.167520777838174, -3.7489299878178217)	1.0	slash	1.21451
1	N	B	N	B					B	4	3	shapes	B	8	True	73	(-7.6980219768453724, -7.1240533874116219)	(5.123998207174024, -7.7737189593092175)	(-0.65357775541221486, 1.8293836503094685)	(5.586608059963881, 0.74019608549227733)	1.0	z	1.00833
2	N	B	N	B	A	M	M	A	B	8	2	shapes	N	8	False	73	(7.7890530921767649, 4.8802443123717136)	(-1.7788866076005094, 3.1145639920067225)	(2.5119602815344795, -7.8290999865831292)	(4.5639329799226616, -1.7028119037842817)	1.0	slash	1.03344
3	M	B	B	A	A	M	N	N	N	8	7	shapes	N	8	True	73	(-1.2337036308045564, 1.414919405119921)	(-3.7094133203949458, -7.8794378363970559)	(-6.1210471902012689, 0.96990694583136161)	(6.4465167037813149, -3.3529885139599971)	1.0	slash	0.939589
4	N	B	N	A					A	4	3	shapes	A	8	True	73	(-6.1617469931309277, -8.2963547822236698)	(6.1090057152126356, -1.8146720328071391)	(-0.98362868812303628, 4.3995897070893051)	(8.1775938071723786, 7.6915258850358548)	1.0	slash	1.69727
5	N	B	N	M					A	4	3	shapes	M	8	False	73	(-8.1230986142553778, 5.166306390857601)	(-2.693259072904489, -2.876370790064823)	(6.4119699861209902, -8.4848887935474941)	(2.6812682299861326, 8.3306126746947839)	1.0	z	0.832781
6	M	B	M	N					N	4	3	shapes	N	8	True	73	(0.74809487857277368, 8.1416370916551166)	(7.8620194018447513, -0.91341824348800404)	(-1.2318808008908411, -1.9993194650137465)	(-3.3590626309816054, 2.6399403345746428)	1.0	z	1.1481
7	N	B	M	B	M	N	A	A	B	8	1	shapes	B	8	True	73	(5.2556742828270284, 0.040586281940708346)	(-2.9989930802114708, 4.3100425662404902)	(-6.2011710114090874, -8.5936028955204993)	(1.5920415060569102, -3.4640490938973549)	1.0	z	0.988156
8	M	B	A	M					A	4	3	shapes	M	8	False	73	(3.095525797722626, -2.0709115699344869)	(-7.5468711944241846, -1.2179552877592101)	(-3.6710029860822271, 4.8595620764653358)	(5.3671936506361533, 1.6327045085475334)	1.0	slash	0.887587
9	N	A	B	M	M	N	B	A	A	8	2	shapes	B	8	False	73	(4.8674787321242654, 6.2258147524342284)	(1.3486108180019372, -2.5806600066743535)	(-8.5019963934726341, -6.3079591715585295)	(7.7024213756334845, -0.9631958771180118)	1.0	slash	1.00338
10	M	A	A	N	B	B	N	M	B	8	5	shapes	B	8	True	73	(-1.7335118265676153, 2.2701187582823774)	(-2.0908076840415992, 7.6093421137797819)	(6.1419250194678288, 3.5402047976316844)	(6.8948814209739506, -6.7736375447392065)	1.0	slash	0.862943
11	N	A	N	M					N	4	0	shapes	N	8	True	73	(-6.399151645941128, 8.5159654249176917)	(5.8922277189329844, 6.1000585986690457)	(-1.5412440870257242, -1.745548000823935)	(1.5529277192298085, -6.8855329928898197)	1.0	slash	0.852757
12	M	A	A	B					A	4	2	shapes	A	8	True	73	(-8.744435510066296, 8.4846185454125305)	(-0.44888805982379232, -5.032134173322885)	(4.3580586858578414, 3.2503996670805737)	(3.7123936515381306, -6.1817425006885713)	1.0	z	1.10033
13	N	B	A	M	M	N	A	B	A	8	7	shapes	B	8	False	73	(7.89302525154962, 5.2990093436298391)	(1.3564979161751207, 7.1757626756484214)	(-1.8246144535549309, 0.73177620133811594)	(5.8590469558691893, -4.1831148937153584)	1.0	slash	0.846252
14	M	B	B	M					B	4	1	shapes	B	8	True	73	(3.7051973948958139, 5.6350581679574745)	(-2.9522028238665277, 0.01986148882090788)	(2.2351280478321236, -8.6579036288844957)	(-8.6665863871020399, -2.7284239569584443)	1.0	z	0.767519
15	M	A	B	M	N	N	A	B	B	8	4	shapes	N	8	False	73	(2.9510567133277821, 4.3852570960471553)	(-5.212736358017894, -5.7676430965486727)	(7.5269015922827514, 8.0590261862687278)	(4.7725357402937423, -2.8682042315250111)	1.0	slash	0.739471
16	N	B	B	M	N	A	M	A	B	8	0	shapes	N	8	False	73	(2.0663617701028798, -5.3825368438904482)	(-5.3963486574389838, 8.6058172668357322)	(6.4733723564564034, -3.0627821576893286)	(-8.6157442644431281, -8.378860453635717)	1.0	slash	1.0611
17	N	B	N	B	M	A	M	A	B	8	4	shapes	M	8	False	73	(8.0181924563337006, -1.9294568599010304)	(3.3763479131881233, -8.3891732667876724)	(-5.0147252168057088, -2.8960598946540523)	(-4.006761310690818, 7.5807657285995198)	1.0	z	1.31645
18	N	A	M	N	B	B	A	M	M	8	7	shapes	M	8	True	73	(-0.13328640255173951, -1.7001182703753113)	(2.6693894207953885, 4.674502759389382)	(5.4811852107936669, -3.0995219920152177)	(7.5394073952476148, 8.020525778031427)	1.0	slash	0.970367
19	M	B	N	B	A	A	M	N	B	8	3	shapes	B	8	True	73	(-6.0797326127488063, -7.7790819678194909)	(2.2336862770098929, 6.3968358056805723)	(2.1611392690991469, -6.5312313911405386)	(-2.4958236954508326, 4.7947045407500042)	1.0	slash	0.867691
20	M	B	A	N					B	4	1	shapes	B	8	True	73	(7.8499875840241522, 6.4281431791275825)	(0.41067347432168155, -7.9752437800187339)	(-8.4536961224936746, 2.3846202648119696)	(-1.1629154693670261, -2.221844505993495)	1.0	slash	1.07159
21	N	A	M	N					A	4	3	shapes	N	8	False	73	(6.7310186179625564, 5.583081124049718)	(-1.168909833914376, -1.8694131151327023)	(-1.0696808789529353, 3.3610833327731573)	(4.0963164539195702, -6.2879683915446147)	1.0	slash	1.01093
22	M	B	B	N	A	M	A	N	B	8	5	shapes	M	8	False	73	(-2.3006489677741833, 1.9129576520820155)	(-2.7259236323805665, -3.59086109010744)	(-7.9194708002827854, -4.6315863705048095)	(0.20065461184985622, -7.6659803686496311)	1.0	slash	1.12464
23	M	B	B	N	M	A	N	A	A	8	7	shapes	A	8	True	73	(8.4773010631231074, 2.3650673285323123)	(-8.2085095200849381, -2.126895440124164)	(-1.3848568015479552, 0.95613903891476326)	(2.9372028632172373, -6.0539383111788787)	1.0	slash	0.880374
24	N	A	M	M					A	4	2	shapes	M	8	False	73	(-1.1215669428444048, 2.6189931033060585)	(3.7660412819834086, 5.0049524713720928)	(0.88923593496559938, -6.2053945528142549)	(-8.4900865490760751, -7.4527189884536211)	1.0	slash	1.13803
25	M	A	N	M					A	4	3	shapes	M	8	False	73	(-7.5837778920105396, -4.4810800167777058)	(7.2949790275605011, -1.9753168890079902)	(7.1406095268906942, 4.0980897434498402)	(-5.9348148672680994, 8.4693901152961182)	1.0	z	1.16764
26	M	A	A	N	M	N	B	B	M	8	0	shapes	M	8	True	73	(-6.832296527725255, 8.3989293503102473)	(5.612021597369738, -0.42416349644531515)	(8.0044477766546365, -7.5360228693526619)	(-1.394145724271298, 3.5493029740948305)	1.0	slash	0.883313
27	M	A	N	A	M	B	N	B	N	8	6	shapes	N	8	True	73	(8.3627839467679479, -0.08211903671028864)	(-0.86605693089001345, 0.72738455185048068)	(-3.6830554605920147, 6.5377833151318736)	(7.611317461478734, -4.0968124030338711)	1.0	z	1.21473
28	M	B	N	N					A	4	3	shapes	N	8	False	73	(-0.019052739275773334, 3.8925114062287687)	(7.1406047217320268, 1.6566765478222631)	(-1.6802737271363535, -6.4650866293706235)	(7.2933643220852353, -5.395335848207707)	1.0	slash	0.982453
29	M	B	B	N					M	4	0	shapes	M	8	True	73	(8.1287922715065761, -1.3330276332591424)	(-5.6825967328205831, 3.8098769232894636)	(8.4221572675546597, 7.1164506706520765)	(-6.2050572349612212, -4.9172327924124319)	1.0	slash	0.948239
30	M	A	N	B					B	4	0	shapes	M	8	False	73	(-7.6722906883485225, -2.7976188578781835)	(-2.7934386291974134, 2.1508063932530952)	(7.8402985811807824, 6.6614370129314793)	(3.372791897506886, -1.7671854243899858)	1.0	slash	1.0794
31	N	A	N	M	A	B	M	B	A	8	7	shapes	B	8	False	73	(-0.49905582081346012, 2.9585914327426845)	(-4.1996154755437214, -1.2663808911116572)	(-2.8406509942138225, -8.515834489641211)	(7.3341558233346902, 8.7251978954575975)	1.0	slash	0.907436
32	M	B	M	B					N	4	3	shapes	B	8	False	73	(2.0311318745648705, 7.4318809848837759)	(7.4082560404193529, -5.2368970756968718)	(-5.8243116796679724, 6.465993782466084)	(-7.9396321336798419, -1.765459707973104)	1.0	slash	0.831132
