TrialNumber	stim0	stim1	stim2	stim3	stim4	stim5	stim6	stim7	stim.probe	ttl.stims	corr.num	trial.type	stim.corr	block	match	Subject	stim.pos0	stim.pos1	stim.pos2	stim.pos3	ran	resp	RT
1	N	A	A	B					A	4	3	shapes	B	Practice	False	75	(-0.97736655173786069, 0.33056433674788188)	(1.2227332874669052, 7.4870853787129157)	(3.8891264578646556, -3.8886435417775091)	(-7.2872126324109221, -8.2512746817849152)	1.0	z	1.29065
2	M	A	M	B					B	4	3	shapes	B	Practice	True	75	(-3.1887322520617651, -5.0789369918443157)	(1.2325193866958699, 5.2464610333644615)	(-6.7410161880556903, 6.2324742492543592)	(4.3860361888324721, -5.5841480733112876)	1.0	slash	1.26614
3	N	A	B	M	B	M	N	A	M	8	3	shapes	M	Practice	True	75	(0.56982303135988843, -6.2408676286285942)	(2.8428035410354973, 7.5798744088975489)	(-7.1250724118015514, -3.3359730568856962)	(-3.4738971830993535, -1.4573776910198699)	1.0	z	0.729882
4	M	B	B	N	A	A	N	M	M	8	6	shapes	N	Practice	False	75	(-5.4942703805302404, 2.8102728617022308)	(-1.1131569728177064, 0.78038211275999636)	(-7.5254341997903538, -3.2656957053914972)	(4.2696813018470969, 5.8133748511733359)	1.0	slash	1.12551
5	M	B	N	M	B	N	A	A	M	8	0	shapes	M	Practice	True	75	(6.0268384190490565, -1.7870012405920175)	(-0.079928077080319682, 8.2585467832966089)	(-0.62471667111751294, -1.4099012192591651)	(-2.6099507459904032, 4.9187716720285835)	1.0	z	0.807214
6	M	A	N	A					A	4	3	shapes	A	Practice	True	75	(-5.5056593382404309, -5.4756076082744976)	(2.4432608165229386, 0.027043036303064483)	(-2.9585380857267474, 1.7977879621066002)	(1.4224271089786242, -6.6417387575711038)	1.0	z	0.792692
7	N	B	A	B	M	A	N	M	A	8	7	shapes	M	Practice	False	75	(1.7498896686892653, 1.5156781737642095)	(5.406194758513772, 8.5624162926862226)	(5.0904897982185719, -6.5741408997528845)	(-1.5802152677298293, -4.3088968966543275)	1.0	slash	0.806517
8	M	B	M	A					N	4	2	shapes	M	Practice	False	75	(0.93812227098662504, 4.5253797537238789)	(-3.230724656803444, -0.86075196131770415)	(-5.7133260314037111, 4.492729060305944)	(7.1258705133233118, -8.1173326482387846)	1.0	z	0.864189
1	M	B	A	M					N	4	1	shapes	B	0	False	75	(2.2464841273141314, -5.239037661071265)	(-1.4922705533933422, -6.7420414173576413)	(5.4753338361195922, 6.3080416344772168)	(-7.3260896569453564, 3.4890120137253291)	1.0	z	0.606737
2	N	B	M	A	M	B	N	A	A	8	7	shapes	A	0	True	75	(-2.4944347999590386, 6.9391319987438216)	(5.6566766974567084, -1.5437986034143902)	(2.4707241349715634, -4.168988151096034)	(-6.3386657196277376, -3.5262417378331206)	1.0	z	0.536361
3	M	A	N	M					B	4	2	shapes	N	0	False	75	(-0.21774907660220322, 6.9675368304474468)	(6.5512782462386987, -3.921132531695191)	(7.3794987408875912, 0.89837675763300595)	(-2.1952010423474269, -4.0478331890664725)	1.0	z	0.736058
4	M	B	N	A					B	4	1	shapes	B	0	True	75	(-3.3697192965535274, 6.9642732597051911)	(2.8236522511254147, -2.641290041230504)	(-7.5003837412581911, -7.4310732669482018)	(7.8958660064222492, 4.0134866609215258)	1.0	z	0.495662
5	M	B	N	A					M	4	1	shapes	B	0	False	75	(8.1700462577450601, -3.7684679217839694)	(-3.5857336501802912, 0.26786119666370567)	(-1.689588980618816, -8.2981221847464006)	(5.8526931616626836, 2.6572916292308459)	1.0	slash	0.639312
6	N	A	M	M	B	N	A	B	A	8	1	shapes	A	0	True	75	(2.7244150290685401, -6.5983668481482161)	(-2.428853480177481, -4.533017183085815)	(2.3866131019466525, 0.30786537994034013)	(8.0744184134539125, 8.080660863234133)	1.0	slash	0.749013
7	N	B	M	N	B	M	A	A	A	8	0	shapes	N	0	False	75	(2.7886650213530206, -6.248732130143158)	(-6.807980994872322, -6.2598309086013639)	(-2.3662198719115635, -7.2054517465643766)	(3.2286400267517976, 1.133539556050831)	1.0	slash	0.682651
8	N	A	B	A	B	N	M	M	M	8	6	shapes	M	0	True	75	(-0.085983086122148222, -7.5339585094142141)	(-3.748118170742365, 2.956084582956688)	(0.93028641953400282, -2.1452668250711797)	(-0.86702359338544621, 8.5828278031329184)	1.0	slash	0.404396
9	N	B	B	N					B	4	2	shapes	B	0	True	75	(1.0735009849176596, -2.3742929935382566)	(-4.9616413460722972, -5.2300345075007133)	(-3.6981040164437244, 1.2810196647895786)	(3.3172455107112846, 2.6948464402459926)	1.0	z	0.454107
10	M	A	N	N	B	M	A	B	A	8	7	shapes	B	0	False	75	(-7.0956615007765969, -1.5702139071055621)	(7.0717988008079491, 7.6880269350942321)	(6.3205573245231026, 2.0699826175445146)	(-8.5304843051154311, 3.8964927291880596)	1.0	z	0.511721
11	M	B	A	N					N	4	3	shapes	N	0	True	75	(-6.3673648818196389, 0.87356321610077714)	(4.9329119491741729, 7.6324324966311501)	(-6.7543777951406732, -6.4059345129378844)	(7.0097959037200788, -4.3503325277839178)	1.0	z	0.475164
12	M	B	A	N					N	4	0	shapes	M	0	False	75	(-0.92480312249538787, 5.9599371515003554)	(2.9086297757689472, 0.061681601494141702)	(-0.51443671246734546, -6.197824065459475)	(7.2333826852014713, -6.9565985789834413)	1.0	slash	0.487211
13	N	B	M	N					B	4	0	shapes	N	0	False	75	(-1.2258923538186162, 6.9943211027279517)	(7.4529740356348384, 2.260121007165294)	(-0.86499133352519131, -6.5022347363144881)	(6.0039176721278231, -2.8389180401509133)	1.0	z	0.456985
14	M	B	A	N	N	A	M	B	M	8	5	shapes	A	0	False	75	(7.3079708268258088, 7.0498508757470137)	(0.48349618132701799, -5.6154944695752587)	(-5.5648066266662433, -7.8928930905295562)	(-3.5699826752959645, -2.6172203043713944)	1.0	slash	0.49591
15	M	A	A	N					A	4	2	shapes	A	0	True	75	(-5.8035762674582605, -5.839377665554407)	(1.3989403595110659, -5.5127218217147664)	(4.6428541204889378, 2.3384465268984655)	(-5.299349212089254, 6.1625309109833442)	1.0	slash	0.542151
16	N	B	N	M					M	4	0	shapes	N	0	False	75	(0.85902360988454163, 2.6721193217546428)	(8.7410364074660976, -2.0864792104905936)	(-3.3034201260542204, 5.3837297345286146)	(-5.6638298668461999, -5.6499581280846582)	1.0	slash	0.531849
17	N	B	A	M					B	4	1	shapes	B	0	True	75	(-1.2957048136431144, -7.5024302704725123)	(-2.6948937043538734, 6.4929645607899964)	(1.5048287036601256, 7.10184826594055)	(4.2714173047913242, -1.8330658753276854)	1.0	z	0.435718
18	N	B	A	N	M	M	B	A	N	8	3	shapes	N	0	True	75	(2.5159980065729624, -8.1930672697947102)	(4.8002895956724796, 1.2528319289324017)	(8.0843413463079337, -3.4718486801779322)	(-2.6887509106609073, 1.2456318381952567)	1.0	slash	0.449001
19	N	B	N	A					A	4	3	shapes	A	0	True	75	(0.093238289906478755, 8.3584796408082482)	(-2.4520293375489723, 3.7616456171297692)	(-7.489570144868539, -6.5475708401447523)	(6.4017019983501164, -4.9296124979318137)	1.0	z	0.664741
20	N	B	M	N	M	A	A	B	A	8	5	shapes	A	0	True	75	(3.6090110827261466, -6.2976641424071431)	(8.4380319995684658, -0.50804794873100434)	(1.5166828940078201, 7.3925323637940714)	(1.6845352166610592, 1.5855172353950913)	1.0	slash	0.488089
21	N	A	A	B					A	4	2	shapes	A	0	True	75	(6.8910316420286346, -1.3339088162288295)	(-3.1179764086985884, -7.9425423618010447)	(-8.0139524476424704, 7.7494524778978224)	(3.4954394165061515, 2.7251361179228066)	1.0	z	0.744217
22	N	B	M	M	B	N	A	A	N	8	7	shapes	A	0	False	75	(7.6294877198174937, -3.6039642750908083)	(3.1694336813897355, -0.25871804223888439)	(3.7243933207606954, 8.5985102596616656)	(-8.0845394053859128, -6.1457355809413752)	1.0	z	0.517698
23	N	B	N	A	B	M	A	M	A	8	6	shapes	A	0	True	75	(-3.910809442325573, 2.8346044917920352)	(1.9093739722587024, 3.9055729672789727)	(-1.4898805485126374, -0.93695962430360247)	(1.567378063767972, 8.5850064295075654)	1.0	slash	0.411452
24	N	B	M	N	B	A	M	A	N	8	1	shapes	B	0	False	75	(-2.1644303230854476, 7.2379445063576462)	(-5.4006196955716455, 0.62386646694486103)	(-2.3808687373653337, -5.7767282967267128)	(7.8963308474724379, -1.7208152175404763)	1.0	z	0.415292
25	N	A	B	A					A	4	0	shapes	N	0	False	75	(-3.5455996432070904, -7.1741018275490918)	(-7.8266726779489977, 6.2592362912256032)	(5.2322703595705367, -1.0050787447227645)	(8.699860035333149, 1.406912248429073)	1.0	z	0.574918
26	N	A	A	M	B	N	M	B	A	8	2	shapes	A	0	True	75	(-7.7487443265592049, 4.914541482053691)	(8.5758332441061391, 7.8959646738430393)	(0.80893764926043232, -3.8282588994804243)	(5.1230775365387462, -0.60580792070242317)	1.0	z	0.421979
27	M	B	M	A					B	4	3	shapes	A	0	False	75	(5.6571483494647481, -8.270203072466261)	(-1.521765083537904, 1.2720277707389336)	(3.3532219382894599, 5.8791268208425596)	(-2.4971767019365645, -7.8588269068080452)	1.0	z	0.348233
28	N	A	M	N	A	M	B	B	A	8	6	shapes	B	0	False	75	(-3.6145535508635636, 6.6275792952109907)	(1.4994335105156278, -8.0728827053484018)	(-1.2605148128226373, -3.5604314271392106)	(-3.0814270147284173, 1.3133027992790964)	1.0	z	0.441791
29	M	B	B	A	M	A	N	N	M	8	3	shapes	A	0	False	75	(7.1937401111162149, 8.1365525418896567)	(0.38154445696550177, 4.8549458418775693)	(-7.0964767551736596, 2.9615148462120491)	(0.32645823700664955, -0.83285727630454609)	1.0	slash	0.509596
30	N	B	B	M	M	N	A	A	M	8	4	shapes	M	0	True	75	(-6.0986038108711549, 0.020668375978441844)	(-1.1769776168554529, 7.301361163613926)	(1.3216980211405147, -8.2431450365687642)	(-6.7359029788736908, -5.3498894089805225)	1.0	slash	0.587179
31	N	A	M	M					N	4	0	shapes	N	0	True	75	(0.52663242880976924, 6.5240150118765659)	(-5.3086626675713502, 2.9160362167311806)	(-6.398356702753258, -4.3623665762977577)	(2.2602851887801378, -7.2758657526567303)	1.0	z	0.481026
32	N	A	A	M	M	N	B	B	A	8	3	shapes	M	0	False	75	(0.42287721360160191, -2.2539544506961642)	(-7.5599775019366504, -2.8312873227985396)	(-8.5995052479389926, 3.5732522912678455)	(-2.0919133262023291, 2.3662079900848418)	1.0	z	0.788646
1	N	A	M	A	N	B	B	M	M	8	7	shapes	M	1	True	75	(-3.5507440171595963, -1.3715134860427654)	(3.0049248538826525, -5.9777132100174564)	(4.8335751724337683, 5.5476614308361825)	(-6.2147868475158345, -8.3137515665069053)	1.0	z	0.616334
2	N	B	A	A					N	4	0	shapes	N	1	True	75	(8.7038446025470968, 7.9336383227423504)	(-5.6378958480623833, 0.3494757061921856)	(-2.5131519197813716, -7.7536996723319627)	(1.8685729630678427, -4.1814376642963573)	1.0	z	0.439974
3	N	A	N	M	M	B	B	A	N	8	1	shapes	A	1	False	75	(4.4557323522650218, -0.5431483755602855)	(0.41118838806240987, -5.8039972351294011)	(-7.5209368685113498, 5.4655075175503089)	(1.6473452444950656, 2.6182971753389594)	1.0	z	0.627628
4	N	B	N	M	M	B	A	A	N	8	2	shapes	N	1	True	75	(-2.8528248668218943, -2.2092399295933536)	(1.0864741655364689, 4.2786588824568916)	(7.2259429678970353, 5.3053963242028903)	(-8.5277643796770484, -1.6556904820949825)	1.0	z	0.625251
5	M	A	A	N	M	N	B	B	A	8	3	shapes	N	1	False	75	(-7.3489620572970038, 0.022607415594157132)	(5.6974897889867115, 6.4594692732696313)	(4.5379629557667762, -6.4563927560835026)	(-3.521734599060431, 6.3284999413561938)	1.0	slash	0.905082
6	N	A	B	M	B	A	N	M	M	8	5	shapes	A	1	False	75	(5.3411999288549765, 7.2629150753545311)	(2.0987140017127413, -7.7369032487143059)	(3.775923135593759, -0.94373307053593436)	(-4.767493758868377, -1.5789041725950934)	1.0	slash	0.840684
7	N	A	A	M	M	N	B	B	B	8	6	shapes	B	1	True	75	(2.9096595169358608, 3.1850151094516974)	(8.0298779554468815, 1.4379996664475083)	(0.089603784106962792, -6.4311837326294263)	(-3.7828136340084928, -2.1550489258603545)	1.0	z	0.630184
8	M	B	M	N					B	4	1	shapes	B	1	True	75	(4.6320703703707071, 0.8864497615975413)	(0.97752086489405698, -7.2925454489944812)	(-5.1375200407380781, 8.2530099901324476)	(-6.8563685329017821, -1.3949580330644693)	1.0	z	0.713758
9	M	A	A	B					B	4	3	shapes	B	1	True	75	(8.1463136728494732, -4.7670883940037658)	(-5.5240824649873694, -2.7156658033488235)	(0.23768233656669224, 8.5054752706488337)	(-3.2244775278875721, 4.7465958671593)	1.0	z	0.493493
10	M	A	N	M	A	N	B	B	M	8	0	shapes	M	1	True	75	(2.5713709262322872, 2.6052607437843029)	(-4.6029683516026463, 0.51319362299021343)	(8.7460047577781737, -4.8979188124033302)	(6.8967271583510037, -8.6572142257457223)	1.0	z	0.541216
11	M	A	A	M					A	4	2	shapes	A	1	True	75	(3.565770734261223, -7.8636671552575228)	(-6.3933644012503432, -1.4129227673157994)	(-3.7091874644017127, 1.8718043283202093)	(6.9067545495253828, 6.5419558054103337)	1.0	z	0.48281
12	M	A	A	B					B	4	3	shapes	B	1	True	75	(6.4737985590544849, -7.647408284272954)	(-8.5130192962095901, 5.8676328018552582)	(8.5666374833299024, 6.7848562214741008)	(-0.73930014175389402, -5.8926113737338897)	1.0	z	0.500545
13	M	B	M	B					N	4	2	shapes	M	1	False	75	(-4.1861605660752534, -7.3204479047391935)	(0.054088918279783016, 8.1412002524380718)	(3.1898215652722417, -6.9291798366283714)	(-4.058843839179378, 4.4388273556856461)	1.0	z	0.618306
14	N	B	M	B					M	4	0	shapes	N	1	False	75	(-6.550451381608327, -3.5084084654387997)	(-6.3092829520301921, 1.299472096414819)	(4.9186467872518271, 1.6532937909632874)	(7.1834970059154095, -5.3167461883049558)	1.0	slash	0.591866
15	M	B	N	A	B	N	M	A	B	8	4	shapes	B	1	True	75	(-7.0690099522530598, -0.40596662875485912)	(-5.3873702495343654, 7.3152819183645903)	(-5.7174601378368228, -7.4050802059924354)	(6.6550603309759389, 5.7416144237682794)	1.0	slash	0.531566
16	M	A	N	M					B	4	0	shapes	M	1	False	75	(-3.8987255472037115, -7.3151187210187043)	(-8.2312766574896123, 8.4917914579276221)	(7.4680767955126939, 2.1734512741871796)	(2.0084404844105972, -3.4760835012749673)	1.0	slash	0.683275
17	N	A	B	M					M	4	2	shapes	B	1	False	75	(3.0404693665036735, 4.0053240735582545)	(-3.6821600673349817, 5.8292938457577623)	(-5.2482632188582974, -7.3220090409650851)	(0.57979515221142996, -7.3100804361312388)	1.0	slash	0.660792
18	N	A	N	M	M	A	B	B	M	8	2	shapes	N	1	False	75	(6.3785096875159102, -4.5115507631857019)	(1.3982689622943383, 4.493987815216963)	(7.6986421546108588, 1.1085349402649243)	(5.3481453780495727, -8.5086919201586095)	1.0	slash	0.484723
19	N	A	M	B					M	4	2	shapes	M	1	True	75	(-5.8685995079582423, 1.5894715031947957)	(2.7488961102123053, -5.4072961788246383)	(6.3529207164949923, 7.8044537657204067)	(-8.2670724198746974, -7.3759359982129897)	1.0	slash	0.422364
20	N	B	M	A	A	N	B	M	M	8	0	shapes	N	1	False	75	(-7.1434262287657884, 1.7412992295871899)	(-1.4714266374688512, -0.044785770450699758)	(7.189170367213995, -1.2916977192779777)	(4.4316771326105329, -7.6527587740704091)	1.0	slash	0.635405
21	N	B	M	B	M	N	A	A	A	8	2	shapes	M	1	False	75	(6.1291917225558272, 8.734309622021442)	(5.677121973264363, 2.8076723307984999)	(-1.6549814905548192, -8.4316228459353404)	(-8.0005939982524907, -4.6605593696619199)	1.0	slash	0.615657
22	N	A	A	N	B	B	M	M	B	8	4	shapes	B	1	True	75	(-3.5924082654064282, -0.61507439360507021)	(3.1871391739681858, -1.7354983497580667)	(-8.5406826271573966, -4.0868824575615799)	(2.3129287774211598, 8.7083903585325473)	1.0	slash	0.480515
23	N	A	B	B					B	4	2	shapes	B	1	True	75	(-1.8395367128815217, -1.1432286903951168)	(3.9601026766780976, 7.5243997113858292)	(2.4291527201861243, -1.0124432622057249)	(-1.3099077103383099, 4.0868435521944662)	1.0	z	0.563029
24	M	A	A	B	B	M	N	N	N	8	6	shapes	N	1	True	75	(-4.447498721989394, -7.1598353970197977)	(-7.0416279010176543, -0.54958110157366491)	(2.6436705799584477, -0.56701262557432131)	(2.2952948755517539, -8.3700705344938662)	1.0	slash	0.566632
25	N	B	A	B	A	N	M	M	N	8	0	shapes	N	1	True	75	(5.8112250994696488, 5.4063565356963714)	(-3.2677590513422263, 2.1295837603142864)	(6.6638475430177078, -3.2246275069128734)	(0.1810922123430867, -1.2200258330651774)	1.0	z	0.624239
26	M	A	N	A	N	B	M	B	N	8	1	shapes	A	1	False	75	(-3.8849335659355493, -6.5740875167151955)	(-8.2267000197932401, -1.8117208740511979)	(-4.9248644545652489, 7.3785707284457835)	(1.906346210946225, 7.4053467089558644)	1.0	z	0.512067
27	N	B	N	B					A	4	2	shapes	N	1	False	75	(-5.3774558397539014, -5.4637691419086263)	(7.8145033862084681, -2.3931023323898746)	(-3.921309382628773, 7.5449466022468172)	(6.8040933740664329, 2.2985369072180806)	1.0	slash	0.699713
28	N	B	N	B					B	4	3	shapes	B	1	True	75	(-1.6531250872869681, 0.024286801565608584)	(3.6046828595889053, -1.3350643804357061)	(-7.4815879064468023, -8.1085255232264934)	(1.9643137605350169, 7.0414556062755445)	1.0	z	0.617305
29	N	A	B	M					A	4	0	shapes	N	1	False	75	(-2.5605446263434457, 0.11428657342979065)	(7.1989976332993848, 4.4190988268428342)	(2.0973638861676545, -5.350693713437793)	(-3.8646375883031245, -6.8512744389427551)	1.0	slash	0.632984
30	N	A	M	N					B	4	0	shapes	N	1	False	75	(4.8619738920995399, 8.4650286421442082)	(-0.7801924202535746, -1.7906075112748834)	(-7.6700694422085904, 7.0175844977767792)	(6.4042833532529642, -3.3385599100628101)	1.0	slash	0.644752
31	N	A	N	A					N	4	3	shapes	A	1	False	75	(5.0733939076609591, 7.4424394486397283)	(3.7213875240253458, -4.871484450353238)	(-7.3573394711848934, 8.2481526202548991)	(-0.21584218982380854, -7.5385422132613424)	1.0	slash	0.710388
32	M	A	N	M	B	B	N	A	B	8	0	shapes	M	1	False	75	(3.0467013454491862, 2.8865292740164428)	(-3.515715265788014, -1.1259866964720233)	(8.1843809290219092, -6.9542794616260837)	(-2.8187799613951752, 7.360616202881733)	1.0	slash	0.677992
1	N	A	M	B	B	A	N	M	A	8	7	shapes	M	2	False	75	(1.1158457467975644, -7.1937512815474989)	(5.9775281380917491, -3.2433476066595093)	(-6.9859585290223185, -0.60374937607650736)	(8.1921724469516874, 2.4567378069922121)	1.0	slash	0.759629
2	M	A	N	A	B	M	B	N	N	8	2	shapes	N	2	True	75	(-0.79065367608575787, -4.4816873976100116)	(3.1172488332811668, 4.5043631933977064)	(-7.6065575834144985, 4.6820689398078663)	(-1.3004142501114808, 7.4377059357094275)	1.0	z	0.645611
3	N	B	B	N					M	4	0	shapes	N	2	False	75	(6.9327885317567954, -4.0190583583145383)	(-1.1358085920084626, -6.6665121845890951)	(7.9096231354902535, 2.0623289278381378)	(-7.4088909108255203, 3.6182529143589299)	1.0	slash	0.614904
4	M	A	B	N	N	M	A	B	A	8	1	shapes	A	2	True	75	(7.3396101020622559, -6.6870051517752165)	(-4.7483050594522753, 5.1187128931752337)	(-4.2453099468343316, 0.87465955094333125)	(1.6368650715904831, -0.31785484521760843)	1.0	z	0.488692
5	M	B	M	A					N	4	2	shapes	M	2	False	75	(2.7811107248505103, -7.4736649773733985)	(4.0541931426231717, 6.7887810155664869)	(-3.5538233355150011, -7.9310952182943906)	(-5.6343294724301174, 1.840452965522509)	1.0	slash	0.616294
6	N	A	N	M	B	A	M	B	N	8	0	shapes	N	2	True	75	(-3.7244820735521751, -0.56648655370789136)	(-8.5992523466696333, -5.0449315901884182)	(-4.4112966869644294, 6.6692004909190725)	(2.6401342792980476, 7.2644836935600807)	1.0	z	0.817505
7	N	A	N	M					N	4	3	shapes	M	2	False	75	(-2.887456742269034, -2.3478388351568658)	(7.7625110683217393, -3.7890436991419607)	(6.6663159845871629, 2.115924710236607)	(-3.0975226568281213, 3.7401806928125865)	1.0	slash	0.553914
8	N	B	B	M	A	M	A	N	N	8	2	shapes	B	2	False	75	(3.9876329868024687, -3.0000065481502007)	(8.3686450564422294, -6.6811233118215316)	(-1.6782512057920131, -1.9042523715543718)	(-6.5837242462817311, -1.1696552379455865)	1.0	slash	0.53534
9	N	A	A	B	N	M	B	M	A	8	4	shapes	N	2	False	75	(6.124491724611298, -8.1264034054247176)	(0.17807836391774323, 2.8047242682352405)	(-0.76198735301219322, -4.8430990425162985)	(1.4911914459751046, 8.54343848691056)	1.0	z	0.519051
10	N	B	A	A	B	M	M	N	B	8	6	shapes	M	2	False	75	(-2.5848438599789141, -3.6016667661716371)	(-8.4747765494150773, -1.2484302674048973)	(-6.4010012222120762, 2.854432684365257)	(-1.850530469700864, 4.8521527020894339)	1.0	slash	0.730608
11	N	A	B	B					B	4	2	shapes	B	2	True	75	(4.2691882967838168, -4.2159196896069222)	(7.5223732376140546, 8.6795297727616685)	(-6.9707682287510409, 1.2386154948899932)	(-1.3600819153210146, -0.5067728646591938)	1.0	z	0.505152
12	M	B	N	N					A	4	1	shapes	B	2	False	75	(2.8339670621755957, 6.1112957330683031)	(6.1750603278033847, -7.7054931475405972)	(-2.9126318817107437, 3.1341418192081374)	(-2.2916260809350231, -8.1209436342311463)	1.0	slash	0.487937
13	N	A	B	A					N	4	0	shapes	N	2	True	75	(-8.5888009160739802, 8.0113816489034591)	(5.3832484655162922, -1.7564098377281709)	(-0.69110881044696981, -5.4639749664540496)	(5.7681154686930878, 6.2711536730931297)	1.0	z	0.815543
14	M	B	A	N	B	N	M	A	N	8	1	shapes	B	2	False	75	(1.0053243038806627, 0.26635802834267785)	(3.4538951659825941, -3.7929801625124782)	(0.37668364701337964, 6.1033221059881306)	(-7.855452255734404, 1.2561573935412333)	1.0	slash	0.784753
15	N	A	B	M					N	4	2	shapes	B	2	False	75	(4.2861729447096444, -7.4369495084021704)	(2.7679799744655522, 3.4356828656729874)	(-2.4974442440203353, 4.7902837714637165)	(-7.1580166777946079, -5.6203134618327155)	1.0	slash	0.550998
16	M	B	A	M	B	A	N	N	B	8	4	shapes	B	2	True	75	(-1.8990724942022137, 2.1043565925400767)	(4.30198298835756, 3.8359547387615542)	(-5.0947809063831109, -3.2983924015073152)	(-2.4209177521388616, 7.0458779466065273)	1.0	slash	0.854239
17	M	B	M	N	N	A	B	A	M	8	6	shapes	B	2	False	75	(0.34814812190473532, -1.1528026131529705)	(-1.7422179118447048, 3.0795594073363031)	(-2.7179121873751608, -8.0889386905416583)	(5.0724890050352229, 5.4098296254242921)	1.0	slash	0.725646
18	N	B	N	A					N	4	2	shapes	N	2	True	75	(2.8968190117420605, 3.1916723680584873)	(5.7197720930994578, -8.6457198704147817)	(-2.5734352923404398, -6.9389580196181004)	(-2.8388852641320339, 3.0540909993647603)	1.0	z	0.447929
19	M	A	N	N					A	4	1	shapes	A	2	True	75	(1.5048843074005696, 4.2335419330995254)	(8.2944938632920859, -3.8473030158815105)	(-8.0169226954045367, -2.6747644035571101)	(-4.6941033066878335, 4.9399450865415364)	1.0	slash	0.465757
20	N	A	A	M					M	4	3	shapes	M	2	True	75	(-0.4701875926639083, 6.9339332951925492)	(-2.1752873673513076, -1.4804779008050035)	(7.5059151599032568, -5.2022441871156868)	(4.0622630117088363, 4.1658151518557744)	1.0	slash	0.599376
21	N	B	A	M	A	B	N	M	M	8	6	shapes	N	2	False	75	(-7.1496739511651715, 4.6158677372102588)	(1.3501414688675144, 0.82600289669236027)	(5.3448784035547092, -4.8442522378578392)	(-1.6944523125616611, 5.556891480116418)	1.0	slash	0.619007
22	M	B	A	A					B	4	1	shapes	B	2	True	75	(-7.1841274177985763, 4.5647047655799664)	(7.2308201468735156, 1.1134188997537375)	(4.9211915691827954, -7.4420200463150028)	(-6.4604368881325716, -8.6768133080160474)	1.0	z	3.55247
23	M	A	A	N	M	B	N	B	M	8	0	shapes	M	2	True	75	(-7.6901393110408378, -6.9323605638519119)	(2.4617361004207172, -1.2094345086331755)	(7.8594712377147218, -4.4626851668993526)	(2.1453835722796626, 2.9493569766358032)	1.0	z	0.405625
24	M	B	M	B					A	4	0	shapes	M	2	False	75	(-4.4264038299798623, 0.94922242044417082)	(5.9379803548642247, -4.1781791764544822)	(-7.5675955678589748, -3.753517756809666)	(8.6586898576009936, 1.7884284717105139)	1.0	slash	0.439655
25	M	A	N	N	B	B	M	A	A	8	1	shapes	A	2	True	75	(3.9486830625840135, 1.5512871523421499)	(-4.9279284145359519, 8.6050672803386448)	(-8.5513138410761567, -7.3232524049139203)	(0.20540238495033414, -6.1159114451869421)	1.0	z	0.507564
26	M	B	M	B	A	N	A	N	A	8	7	shapes	N	2	False	75	(2.4230269885510367, 2.5688441577404806)	(2.9821260544983215, -6.8439376104436098)	(-5.8658781257502728, 7.1058149041505008)	(-7.8282516460957376, -5.2780298494800952)	1.0	slash	0.546575
27	M	A	M	A	N	B	N	B	N	8	4	shapes	N	2	True	75	(0.63831885903906382, 4.4879644617425249)	(-4.1571246266876605, 7.0929022615090016)	(1.6196425405651365, -8.2521638056167266)	(5.5476756091858768, 5.9315036330661997)	1.0	slash	0.467161
28	M	B	N	M					N	4	0	shapes	M	2	False	75	(6.9322821169124538, 5.8515790343323832)	(-7.2810571620871398, -6.8807261550705769)	(-2.9933937852955115, 8.3083361453017872)	(1.3183022768562136, -4.0645148429531206)	1.0	slash	0.673132
29	M	A	B	N					N	4	3	shapes	N	2	True	75	(-0.48411684996362503, -2.5659246307836208)	(7.5901211684287304, -7.1780783748421264)	(-5.6256898638878052, 4.7396698195330682)	(1.9468361046405835, 5.074066230013198)	1.0	z	0.660143
30	M	A	M	N					N	4	1	shapes	A	2	False	75	(7.316243787611981, -6.8315055277616015)	(-3.4706266359766609, -2.5183968215394135)	(4.0833709203845938, 8.7048522242089561)	(-5.6111727679493626, 3.9673480065431832)	1.0	slash	0.801856
31	M	B	B	A					A	4	3	shapes	A	2	True	75	(3.6897662713836645, -2.7581197693182329)	(-3.1860688166037949, -7.2597298511781254)	(-7.4087854715130099, 8.6498920969490349)	(7.4594745944862808, 2.9108921465425386)	1.0	slash	0.387546
32	M	B	B	N	N	M	A	A	A	8	6	shapes	A	2	True	75	(-5.3582392097646707, 5.9698707724272637)	(0.45594291848642854, -1.6625871210772472)	(-8.6859605571313789, -5.2833752290949452)	(-7.2136663979682822, -0.01965816604830195)	1.0	z	0.66516
1	M	A	N	M					B	4	2	shapes	N	3	False	75	(-8.4700713139778312, -4.6740779320206052)	(-7.3001883333946607, 1.9931057537837091)	(4.6430940989395157, 3.742611719338937)	(0.2937459525164261, -5.3381225316071079)	1.0	slash	0.47681
2	N	B	M	M	B	N	A	A	N	8	0	shapes	N	3	True	75	(6.8693068761879932, 5.7543102949758289)	(-6.9487848779214723, 6.9810441026998795)	(4.693374514411552, 1.3632913945510818)	(7.9803482590739847, -3.4788337308353592)	1.0	z	0.634382
3	M	B	M	A					B	4	2	shapes	M	3	False	75	(4.1887057057077044, 4.4574589462846941)	(7.0541762049876731, -4.8912902557931179)	(-8.2489301918905156, 4.9882231793552254)	(-0.349834494584778, -7.0814374532281699)	1.0	slash	0.534186
4	M	B	M	N	B	N	A	A	A	8	7	shapes	A	3	True	75	(3.2412886063944555, 6.0551117396612621)	(-3.8368412200562982, -7.9236954476509549)	(6.7302732030671688, -3.1596020881073237)	(-3.6544552006781785, -1.8517558435128887)	1.0	slash	0.719082
5	N	A	M	M					M	4	3	shapes	M	3	True	75	(6.2930962604696745, 8.0918045833944312)	(-7.796121865500095, -7.8375569459929526)	(-5.9377713118712023, 7.6844184120900607)	(6.8554486937888388, -4.4765973857966905)	1.0	z	0.761502
6	N	A	A	M	B	N	M	B	N	8	4	shapes	B	3	False	75	(1.6906483193726682, 7.5246253451854486)	(2.1898769290534581, -0.92225375987115665)	(-1.240077955556429, 2.4383795038738008)	(5.7951041560014502, -6.7162125370642034)	1.0	slash	0.615228
7	N	B	N	M	M	A	B	A	M	8	3	shapes	M	3	True	75	(-3.8101009962269652, -2.2115632222749726)	(-5.304423153523425, 5.5533488374070039)	(-1.8030115961347777, 3.3617968378025065)	(5.1983206002652746, -0.033453482666301326)	1.0	z	0.694596
8	N	A	B	N					A	4	0	shapes	N	3	False	75	(-7.177641639823503, -5.643947580229371)	(-5.6601122884769923, 5.4299230572514201)	(0.89293982549332007, -1.0421596430112574)	(7.2925975338360089, 5.9131242166559748)	1.0	slash	0.742445
9	N	B	N	B					A	4	0	shapes	N	3	False	75	(6.0320349982914045, 3.4862780899435677)	(-0.43150008648349569, 4.5554764119644435)	(-6.6114009572105825, -3.5592646155003882)	(3.023207376029502, -8.532260378530939)	1.0	slash	0.70827
10	M	A	A	B					A	4	1	shapes	A	3	True	75	(2.0550949960680711, -0.53769793797139975)	(-0.8141430244943777, 6.9108260034656404)	(-0.030933009440087034, -6.914039838980468)	(6.335768395736757, 5.9070564296202388)	1.0	z	0.415855
11	N	B	N	A					N	4	2	shapes	N	3	True	75	(0.077734135087242251, -6.8294490706871551)	(-7.5064397435871815, 1.0240691921162419)	(-4.110144538732186, -7.4938994668996521)	(3.8232457916382643, 3.802263684615145)	1.0	slash	1.31946
12	M	B	B	N					B	4	3	shapes	N	3	False	75	(1.9503625577297079, -3.5862173899054302)	(-7.6258187821403407, -2.9252643644840184)	(-7.915046938430617, 2.9213181123591614)	(6.5288077980224823, 7.4305992277266633)	1.0	slash	0.649193
13	N	A	M	M					M	4	3	shapes	M	3	True	75	(-3.853475851066249, -4.528276491897536)	(3.8509998224494542, 5.7539614590509931)	(4.6185734117945394, -8.7398399122500017)	(-2.1813420320105887, 6.391315691095425)	1.0	z	0.430676
14	N	A	N	A	M	M	B	B	M	8	7	shapes	B	3	False	75	(-0.7712520252823909, 5.4503450604167742)	(-7.1215009538076934, 7.2644728859016503)	(4.6616731236098961, 7.2764547738973988)	(2.2580080479221731, -7.8608431939778614)	1.0	slash	0.342497
15	N	A	M	A					N	4	2	shapes	M	3	False	75	(-5.7876818062147564, -2.5902218346599568)	(-2.1276365042018437, 3.8992933811754646)	(1.3175408109123072, 1.5934800171409726)	(8.6912708211889687, -3.9068679131653301)	1.0	z	0.564161
16	N	A	N	B	A	M	B	M	M	8	2	shapes	N	3	False	75	(8.3428341102215313, -2.0065039127086486)	(-0.6044122713800224, -1.3500577230165733)	(-6.3883702540162268, 7.9838455372278148)	(-2.6544778437250125, -7.7826753328464227)	1.0	slash	0.697176
17	N	A	N	M					N	4	2	shapes	N	3	True	75	(8.7064226553941921, 6.9102634082785261)	(-2.0530216496291604, 4.9739544741529933)	(-8.0526726238132902, -1.960451444864157)	(4.7582471639282531, -0.23118525740923701)	1.0	z	0.657416
18	M	B	M	B					A	4	2	shapes	M	3	False	75	(4.7887603678300703, -6.0714523382138106)	(-5.4978243211638311, -6.1987025360644035)	(7.3754995895056332, 3.026272143727228)	(-7.2169971333146066, 1.8541018333006019)	1.0	slash	0.545069
19	M	B	A	N	B	M	N	A	M	8	5	shapes	M	3	True	75	(1.2669680211589771, 2.1779004601950156)	(-1.6486264183091128, 8.5225594790224299)	(0.73315403317138994, -3.9199388227402432)	(0.2665072096005634, -8.1544343821459773)	1.0	z	0.70491
20	M	A	N	N	A	M	B	B	A	8	7	shapes	B	3	False	75	(-2.1066860753887164, -8.0676308516209474)	(5.1568139523811283, -0.61084326795579358)	(1.7738365955265678, -3.0125292977707279)	(-8.666808139473094, -0.65273230241859714)	1.0	slash	0.694371
21	M	B	B	A	A	M	N	N	B	8	0	shapes	M	3	False	75	(8.4869449300084874, 0.71017490704382169)	(2.3076825530248009, 3.9886415654596608)	(-6.9005952837832059, 1.2139619622860174)	(-4.5376140043562003, 5.178385787415948)	1.0	z	0.632046
22	M	B	N	B	A	A	M	N	N	8	3	shapes	B	3	False	75	(5.8801488425078059, -1.6139721950637735)	(6.4603955426315469, -8.0339157129144354)	(-6.3618016940561271, -8.5150975580255093)	(-7.672682823860133, 2.6875990841599506)	1.0	slash	0.429318
23	M	A	B	A					A	4	2	shapes	B	3	False	75	(1.652677086509426, -5.2672675020787043)	(-7.855196809264835, 8.4318234548131379)	(4.8819074890179053, 8.1237681983897367)	(-1.5863400994646648, -1.6312038485893421)	1.0	slash	0.705479
24	N	A	M	B	A	M	N	B	M	8	5	shapes	M	3	True	75	(4.2943752884152335, -6.5005876749453826)	(-1.0944767406239304, 4.569816276771725)	(4.9941630477933074, 5.2472652512896651)	(-7.9981709677427126, -0.5052737811495831)	1.0	z	0.417207
25	M	B	M	B	A	A	N	N	M	8	0	shapes	M	3	True	75	(-2.4052957082488868, -7.3509118276090932)	(-8.6237378388488715, -4.7672507991519151)	(-0.45443424279931577, 7.874711641335324)	(4.5476121375940632, 3.7833826469647107)	1.0	z	0.698419
26	N	A	B	M	B	M	A	N	A	8	6	shapes	A	3	True	75	(-4.56785042984332, -6.9254335461904182)	(-2.849160489586545, -3.0117998428714978)	(5.9407399933082488, -6.3398793587287008)	(2.3765317661261154, -3.9172379326206253)	1.0	slash	0.86835
27	N	A	N	M					A	4	1	shapes	A	3	True	75	(-6.0924620451352061, -4.1200405262982134)	(-0.68936858430079972, 4.1715056717250363)	(7.4962970008185117, 3.8396613977595955)	(7.0149896684072743, -7.2793996372664447)	1.0	z	0.760084
28	M	B	M	N					M	4	2	shapes	M	3	True	75	(5.1531263865446846, 4.5688285670498185)	(-1.45129885819218, 5.4387775302033852)	(-5.3565287728105559, -3.6598496925297308)	(5.4002649406408647, -6.0475370657731951)	1.0	z	0.513853
29	N	B	N	M	B	M	A	A	M	8	5	shapes	M	3	True	75	(7.7788733992048016, 1.4195557773188927)	(0.67547773008243617, 1.8018584461552294)	(3.7487069988497606, -1.2968737381015032)	(-1.2841349470325776, -2.5411253481611729)	1.0	z	0.997029
30	N	A	N	B	M	M	B	A	B	8	0	shapes	N	3	False	75	(2.5763927484026325, 3.7709481996268437)	(4.7818418479953593, -6.9872628102583416)	(7.5498829461760266, -3.1688629691851524)	(6.758867647846154, 3.2680395318384257)	1.0	slash	0.643161
31	N	A	M	N	A	M	B	B	A	8	7	shapes	B	3	False	75	(1.5949933732543471, -7.9663099798273773)	(6.2559895834863131, -1.020511298565606)	(8.14460747401764, 4.0569918547413124)	(-4.3116660913358205, -5.3537162722090237)	1.0	z	0.604733
32	N	B	A	B					B	4	3	shapes	B	3	True	75	(6.4117470111889947, -4.0317736664709294)	(3.5524278889637912, 7.8197700968535599)	(-3.038245906995944, -5.5781977806108527)	(-5.1836660264834755, 8.5696420373901141)	1.0	z	0.558537
1	N	B	B	A	A	M	M	N	M	8	5	shapes	M	4	True	75	(-1.8150464046377115, 4.0673659401059705)	(4.5418926715909418, -4.8123839102827013)	(3.5160842815938178, 6.178399601070673)	(-4.9309598436594957, -8.7063147500968867)	1.0	slash	0.542293
2	M	B	N	M	B	A	N	A	B	8	1	shapes	B	4	True	75	(7.0929491432654608, 5.31307058723905)	(0.42508235826533713, 6.7356427190522723)	(-7.3667412507828587, -8.7201434930632278)	(-0.55962304584170042, -0.47100651106289781)	1.0	slash	0.733626
3	N	B	M	N	B	M	A	A	N	8	1	shapes	B	4	False	75	(7.2515115066676117, 5.4159550180739977)	(-5.9817846500641281, -2.0755536961991625)	(-1.4680707945408207, 5.9437975709271207)	(4.6098322239335019, -8.3699886683061262)	1.0	z	0.477342
4	N	B	A	N	A	B	M	M	N	8	6	shapes	M	4	False	75	(4.6114864222046172, 0.31258389433269862)	(-5.7617535155568227, 1.8891390144669167)	(-2.0296655214097878, -5.6256764226798062)	(6.3238284994534038, -7.9850450251170484)	1.0	slash	0.641218
5	N	B	M	N	B	A	M	A	N	8	5	shapes	A	4	False	75	(1.3842250824443045, 0.1126754928131728)	(5.8226141702257053, 5.0832812685618212)	(7.6906999323859289, -3.2506571117738865)	(-7.9722235503564258, 0.051872305219635706)	1.0	slash	0.630892
6	N	A	B	A	B	N	M	M	B	8	4	shapes	B	4	True	75	(7.0378056753331197, -7.3231766145044146)	(6.8853034938949556, -3.1164094391650012)	(-8.0411236472143219, -7.1191433883292614)	(-3.8096019460054995, -1.0120982450763423)	1.0	z	0.692556
7	M	B	B	N	M	N	A	A	A	8	7	shapes	A	4	True	75	(2.7334261660138459, 8.6592497407859454)	(0.60860444080813103, 0.065271938689374309)	(-3.6877731518711538, 3.1446079273780505)	(3.9985843883462842, -3.2016651898154009)	1.0	z	0.747941
8	N	B	B	N					N	4	0	shapes	N	4	True	75	(-5.0006506747782078, 4.0927312463966175)	(8.6367048281911458, 8.1346605671939045)	(-7.921347119142955, -2.4421161344026654)	(4.8568260568212835, -1.5048981495445952)	1.0	z	0.529811
9	N	A	B	B	N	A	M	M	B	8	2	shapes	B	4	True	75	(-3.2860368550878061, -6.1238910916316769)	(-5.8227934711908045, 5.2245113143922435)	(2.3362942691194633, 0.62012948139900459)	(6.6411881557168364, -7.2913730261412635)	1.0	z	0.540805
10	M	A	B	A	B	M	N	N	N	8	7	shapes	N	4	True	75	(6.6425677638418144, 5.4619921953121136)	(3.9578859836795051, -1.6566987727398335)	(-5.4417890607968884, -1.8830979185488044)	(-0.9232884942777746, -5.3261252571377691)	1.0	z	0.429101
11	N	A	B	N					B	4	1	shapes	A	4	False	75	(-0.94015210869134247, 4.8113920852085226)	(8.4809569175350283, -4.0828612997338949)	(7.2004885897715045, 0.8070369337873089)	(-5.6513024468053352, -1.591911412991684)	1.0	slash	0.774783
12	N	A	A	B					N	4	0	shapes	N	4	True	75	(-3.6972443100996513, 6.9127806906646434)	(-1.7373872304423355, -4.9824438385012346)	(3.1704533095718581, -4.3852027301826766)	(7.6638405559639082, 3.4727285287036409)	1.0	z	0.518349
13	N	B	N	B	M	M	A	A	A	8	4	shapes	M	4	False	75	(2.6820004999183773, -7.3960810366838352)	(-2.4018543471788583, -8.2516814227556488)	(-3.0962219117733429, 6.6649713816663905)	(-3.3617565709411741, -2.4668635093610893)	1.0	z	0.529747
14	M	A	N	N					B	4	3	shapes	N	4	False	75	(1.4819152266272155, 3.7738450466263078)	(-0.74963852280277266, -4.1137976167984185)	(7.9797770542043054, -0.97082087691409047)	(-4.8618696443312039, 1.493484200261868)	1.0	z	0.449903
15	N	B	M	M					M	4	1	shapes	B	4	False	75	(3.4520965204262168, -8.0516099092011562)	(5.5957803866313309, 0.60224364592382607)	(-2.1871458261891199, 6.3481312725713543)	(-4.3382067353513047, -4.935554478250145)	1.0	slash	0.713523
16	N	A	B	M	N	A	M	B	B	8	1	shapes	A	4	False	75	(1.954858633265351, -4.3417043784314062)	(4.6581712452330848, 7.1422993160988)	(-6.3316487287135494, 5.280245966152826)	(-6.928825271442177, -3.3396720450580926)	1.0	slash	0.790799
17	M	B	N	B	M	N	A	A	M	8	0	shapes	M	4	True	75	(4.7854602283603196, 0.45512157146021792)	(-8.219950130681358, -2.022575552452591)	(-2.356465737656845, -3.6162018062074681)	(-1.3374280837376649, 0.30955267905011574)	1.0	z	0.478616
18	M	A	N	A					A	4	1	shapes	A	4	True	75	(-7.0211913157973616, 3.193761315013294)	(8.4630722739904947, 4.9222510628285079)	(-2.7689661091105577, -7.5662091309451585)	(3.577343718395996, -2.7478545233380451)	1.0	z	0.592671
19	N	B	B	M					B	4	1	shapes	B	4	True	75	(-0.33183863874272923, 4.1867582099143004)	(2.7276946741177479, -5.1628167739051039)	(1.3895743651808701, 8.198907815761757)	(-1.7438932294556002, -6.5537665085753023)	1.0	z	0.516026
20	N	B	M	B					M	4	1	shapes	B	4	False	75	(8.2409200100643361, -2.4967390798381555)	(-0.19087951201797537, -3.9936890029468799)	(-5.9906259087028104, 5.9785780900606387)	(4.227877457473177, 6.0283522519002748)	1.0	slash	0.711892
21	N	B	A	B					M	4	2	shapes	A	4	False	75	(-7.6739208487337187, -5.6671054865263875)	(1.1153629180269355, 0.37599794198365721)	(-5.7435769825150471, 8.6016544797297527)	(6.1600737753180219, -3.5247329559400358)	1.0	z	0.451508
22	M	A	B	N					A	4	2	shapes	B	4	False	75	(-2.9814733328070888, -6.7419190925971773)	(3.8863337511921134, -1.5583575556349052)	(-0.25207118318849098, 8.1642296479183933)	(7.2380484907156184, 6.0930294917176724)	1.0	slash	0.562992
23	M	B	B	M					B	4	1	shapes	B	4	True	75	(-8.3590334896445384, -8.4806346852729799)	(-2.9295506905709709, 3.119081617519063)	(5.0255093947434215, 6.3440278711681977)	(5.3651750329729992, -7.9144662496898599)	1.0	z	0.420863
24	N	A	B	N					B	4	2	shapes	B	4	True	75	(-1.6781923636152047, 6.0399563823875049)	(1.9324706031533765, -6.2232405053204474)	(7.3950666665564349, 4.0574712964445556)	(-2.2259855677213309, -2.9116189914069057)	1.0	z	0.690545
25	M	A	N	B					B	4	1	shapes	A	4	False	75	(6.7893077201833485, -5.8816746323117641)	(1.0494117276823456, 3.3061237061126896)	(-5.6706535177404644, -8.6704708033369986)	(-4.0876335387054938, 7.8823364240627498)	1.0	slash	0.611781
26	N	A	N	M	M	B	A	B	M	8	2	shapes	N	4	False	75	(-3.1469107332965374, -6.8391902200897512)	(-7.1586096248259912, -2.0643394391091556)	(2.6646192189396487, -5.337530124114906)	(-6.3272627394611298, 7.0671282261019801)	1.0	slash	0.729952
27	M	B	M	A					N	4	0	shapes	M	4	False	75	(7.0258371479153094, 6.5695876704999971)	(-5.4777307542820015, 6.9389037978888393)	(4.6967594281779963, -6.4121772418712766)	(-3.583775280032679, -5.6988026148937418)	1.0	z	0.665531
28	N	B	M	A					M	4	2	shapes	M	4	True	75	(2.8119663057658268, 3.9995819058524269)	(-2.834833600901729, -3.5234328768748417)	(1.2924347493272847, -8.2747339377800362)	(-4.5186290271505296, 7.8738157258510455)	1.0	z	0.671205
29	M	B	A	A	M	B	N	N	N	8	6	shapes	N	4	True	75	(-3.2314893130959659, -4.0700367612036379)	(-3.4676811825135854, 8.4406655822177328)	(0.89890078515255212, -8.0055123014107448)	(8.5557033281379979, -4.4278280651702797)	1.0	z	0.532844
30	N	B	A	N					N	4	3	shapes	N	4	True	75	(0.328333824668114, -5.2519927636425825)	(-1.8595415360991474, 2.7814851769736038)	(5.9942752172403484, 1.0987178512058531)	(-8.5454346254462692, -5.7298890966073168)	1.0	z	1.07658
31	M	B	M	A	N	N	A	B	M	8	1	shapes	B	4	False	75	(-6.5513703701139976, -0.60798165290565898)	(2.2707203986129905, -3.8101020207856209)	(-8.4581086948703099, 4.3720350472683869)	(-2.3161228375791181, 3.6636202280792673)	1.0	slash	0.586079
32	N	A	B	M	N	M	A	B	A	8	5	shapes	M	4	False	75	(3.0245497414087801, 0.97736626473805899)	(0.38916338053812716, 4.6996559619834191)	(7.1004870489753777, -2.1977225463356342)	(-5.0361593744304933, 8.2840981549665784)	1.0	z	0.791789
1	N	A	B	N	A	M	B	M	A	8	2	shapes	B	5	False	75	(-0.14157692204392269, -0.29215191085462067)	(-3.7685112489740478, -4.9790052198845096)	(1.1896796014351612, 4.7838806885042917)	(-5.7836367020660084, 1.0846526513136574)	1.0	z	1.12751
2	M	A	A	M					M	4	3	shapes	M	5	True	75	(-7.8760703678275821, -5.4421586402832087)	(-0.65723706867915865, 7.8147037348871109)	(8.503908009121627, 1.8309366448632911)	(2.6308471700376597, -7.7589052914376087)	1.0	slash	1.00691
3	N	A	N	A					A	4	3	shapes	A	5	True	75	(-8.645041538880232, 7.8565537543961703)	(-0.63932511455116625, -7.2230285977648867)	(6.2228722580753253, -7.1888259163763379)	(5.2189208911044815, 3.9757524921931822)	1.0	z	0.632729
4	N	A	B	B					B	4	1	shapes	A	5	False	75	(-0.41118179977550007, 0.61799155706359166)	(5.8023289941180121, -8.0389071533830077)	(-4.1175755866237287, -6.9267149586338412)	(5.665061746863481, 8.2760037133712316)	1.0	slash	0.812762
5	M	A	M	A	B	B	N	N	N	8	7	shapes	N	5	True	75	(2.8353079629677609, 2.385125798403136)	(6.7460175072158748, -5.574693730946592)	(0.83277487789067273, -1.3565273067928434)	(-8.5811089539654581, -3.8271103684284737)	1.0	z	0.612084
6	M	B	B	M					B	4	1	shapes	B	5	True	75	(6.3887250120844499, 0.89624513401548533)	(-4.3795031414880885, -1.6873925146431015)	(6.5159157305107041, -3.4722596248820672)	(-6.4707084528948746, 3.8415323766944915)	1.0	z	0.619773
7	M	B	A	B	A	M	N	N	A	8	0	shapes	M	5	False	75	(-5.8259224658971833, -3.2685777981007531)	(3.3096313334683298, -2.0462912589652813)	(-2.8022875489849515, -8.6118971870237413)	(-0.91354498416239593, 8.332009183973863)	1.0	z	0.818838
8	M	B	N	M					M	4	3	shapes	M	5	True	75	(8.4757054065366511, 5.6296246326446333)	(4.0137059405335869, -4.4451535056387694)	(-7.2758988771482285, 6.962165812079613)	(-2.4626492024769311, -4.23056497609437)	1.0	z	0.376999
9	N	B	B	A					N	4	1	shapes	B	5	False	75	(0.88610380093938801, -4.4111462646785409)	(-1.8020246889978875, 8.5166641841048261)	(5.0241481087365596, 8.6671129566761742)	(-4.0933141218156512, -7.4562351088052292)	1.0	slash	0.61685
10	M	B	M	A					B	4	1	shapes	B	5	True	75	(-3.8563706663598065, 4.6738352576429421)	(4.7605023348390798, -2.4338740122730842)	(-7.5591816740088635, -8.4298666252038412)	(3.2932047186451907, 7.9969106231383336)	1.0	z	0.603159
11	N	B	N	A	A	B	M	M	N	8	2	shapes	N	5	True	75	(7.3764921604229841, -5.2701591756477333)	(-3.5801463954905373, 4.3255159642896146)	(2.2556474553065691, -2.6347486984508137)	(1.1931589899215123, 6.4943641131344467)	1.0	z	0.42785
12	M	A	B	M					M	4	0	shapes	M	5	True	75	(7.9528313846397083, -4.4137102763797866)	(-3.5525048092004452, 1.6268270119626536)	(2.0151618062011707, 6.2135065261247)	(-7.4752288294865776, -5.3168383554072598)	1.0	z	0.631766
13	M	A	B	A	N	M	N	B	N	8	4	shapes	N	5	True	75	(0.78193009016201742, 3.5400408447452261)	(6.1136822046323758, 1.8569826332115937)	(-4.2930854731856734, 6.4433453759713988)	(-2.8389774415474163, -6.6462626089216581)	1.0	z	0.565055
14	M	B	N	M	A	A	B	N	B	8	1	shapes	B	5	True	75	(-8.3077782756497101, -0.81484187767360439)	(-2.4786224244881057, 0.072608528163774722)	(7.7639238239294492, 8.1713995059485356)	(-4.6892249469273546, 6.001333714009494)	1.0	z	0.551006
15	M	B	B	N	N	M	A	A	M	8	4	shapes	N	5	False	75	(4.0382850131780881, 8.1819601383663638)	(-5.5019595447498446, -7.8788530351096453)	(-4.8087472321196465, -2.0060274103331155)	(8.3622193706849544, -3.2252305950062716)	1.0	z	0.670272
16	M	B	B	N					M	4	1	shapes	B	5	False	75	(4.9401651560515258, 2.6046863116394281)	(-2.7643898481887863, -6.3153811489579521)	(-1.2927964729224186, 1.5241160566775189)	(2.3550881333517459, -1.9341224628478546)	1.0	slash	0.551895
17	M	B	B	A					A	4	1	shapes	B	5	False	75	(4.0648709506939671, 4.375275703160062)	(5.2510882422643856, -2.4069810054613825)	(-7.2208586537376265, -6.7224441083946926)	(-1.8425567037788202, 2.4205749082370662)	1.0	slash	0.676131
18	N	B	M	M					B	4	3	shapes	M	5	False	75	(6.261956767588412, -8.2521559229887611)	(-0.15387204193385173, 4.4857173599837026)	(-6.2614331895359117, -8.628705724653507)	(8.4920284114974862, 3.0834010101187257)	1.0	z	0.903746
19	M	B	B	A					B	4	1	shapes	B	5	True	75	(4.5480353270978586, -6.9511805450268032)	(-5.4929959998554931, 7.4279950297692885)	(1.7073073554611611, 4.3318195177599588)	(-7.3596093597282088, -6.6807380805954732)	1.0	z	0.357458
20	N	A	M	B	M	B	N	A	N	8	6	shapes	N	5	True	75	(-2.0255556183188368, -7.2910680516879598)	(6.2247963346873689, 5.4009751322708297)	(-8.5649973650135056, -3.5109529756171645)	(8.6543968888474332, -3.8665449288980263)	1.0	z	0.440613
21	M	A	B	N					B	4	2	shapes	B	5	True	75	(0.34356505493231104, -7.0635971769702195)	(-8.3535103904973802, 5.724048058875729)	(5.5545142456255263, 2.0376921455004364)	(-3.4323037763901905, -2.2147996791288689)	1.0	slash	0.586842
22	N	A	M	B	B	A	N	M	A	8	0	shapes	N	5	False	75	(-3.7047034514225521, 3.4825731752110123)	(2.8174817674900421, -7.5094182862975094)	(-1.0599311600099437, -3.1393702049720726)	(-5.9867076630180662, -0.023164653986405881)	1.0	z	0.400479
23	N	B	N	A					B	4	3	shapes	A	5	False	75	(-2.5982940285829343, 1.6582595299219136)	(-2.8192000618157103, -3.3955451155503598)	(2.1931508570010401, -7.0142609978792336)	(7.6152330707643472, 3.8272652728430874)	1.0	slash	0.858256
24	M	A	M	N	B	A	B	N	M	8	5	shapes	A	5	False	75	(5.1539374009551562, -5.8892453676053336)	(2.8100238801440867, -1.0005147282403701)	(4.3322082166957721, 7.7965665809334936)	(-5.3942945705923115, 5.427078440525186)	1.0	slash	0.603958
25	M	B	M	N					N	4	1	shapes	B	5	False	75	(3.6693895314410305, -3.2851790179267644)	(-6.0268518336873829, 4.5929308990447879)	(7.1927764099814979, 5.8384631550511141)	(-2.5533915088135757, -5.8489770340821412)	1.0	z	0.587368
26	N	B	A	B	N	A	M	M	N	8	4	shapes	N	5	True	75	(-5.1967888051477775, -0.85020870411615412)	(0.3895760886720101, -2.311414668050511)	(-7.5128250585382581, -4.7872645515031129)	(-3.0119488191464736, 3.0247365102344776)	1.0	z	0.427107
27	M	B	N	A	B	M	A	N	B	8	2	shapes	N	5	False	75	(-2.8112696258130816, -6.4728271223989093)	(7.4658182607477883, 2.5879395454795944)	(8.6944995452347165, -8.3609929885934076)	(4.5330802733809161, -3.0553290347873192)	1.0	z	0.836098
28	M	A	N	M					B	4	3	shapes	M	5	False	75	(1.6591720783659607, -8.6143842289769808)	(-4.4863052529811727, -1.3843025581156088)	(7.7385241413959491, 6.4651058167177791)	(-2.6091719562316342, 3.7299419911319518)	1.0	slash	0.652482
29	M	B	N	A	M	N	A	B	N	8	4	shapes	M	5	False	75	(-8.3575341531439218, -5.0602139212581108)	(-8.3020623885487712, 6.8017782132873688)	(-5.7970875192939726, 2.0046519172605439)	(1.2875887409857985, -0.36560394156576592)	1.0	z	0.812194
30	M	A	A	N	N	B	M	B	A	8	2	shapes	A	5	True	75	(0.60356565373008664, 4.2976900969373286)	(5.7261483232302517, -4.2774917555837879)	(-6.3607595216557549, -1.9446383647528078)	(-2.8841800407765188, 0.84739154691872187)	1.0	z	0.717172
31	N	A	M	M	N	A	B	B	M	8	2	shapes	M	5	True	75	(2.7870217930759935, -1.1329438112430763)	(-2.4859450554727625, -3.5901013976336271)	(4.7026114790641991, 7.3601250733463353)	(-8.2209842315659145, -5.0014080461215524)	1.0	slash	0.705442
32	N	B	M	N	B	A	M	A	A	8	1	shapes	B	5	False	75	(-7.955499798192692, 6.0512920860236701)	(1.3238328893439384, -5.5924194478848346)	(8.2757451331645058, -4.4375025851993319)	(2.636788940314883, 8.0293567438348745)	1.0	z	0.608592
1	N	A	M	N					A	4	1	shapes	A	6	True	75	(7.5351307156897924, -5.6143582146329596)	(-4.6114447048445149, -2.8786356984060619)	(7.2690712800108699, 1.8744192926309022)	(-3.5467114430820903, 3.4667298277203251)	1.0	z	0.494888
2	M	B	N	N					B	4	3	shapes	N	6	False	75	(3.6456089431613297, -1.8579163232285083)	(1.7719443571689375, 3.0606271355533572)	(-0.85379680750195952, -1.4805001107933542)	(-1.1411723902410928, 8.529500110468355)	1.0	slash	0.550381
3	M	A	A	B	B	M	N	N	B	8	3	shapes	B	6	True	75	(2.5614778734565018, 2.3110780607801811)	(1.0871714088257161, 6.2256577459102402)	(-7.7576570185653573, -0.068340478082779654)	(-4.1119510480648884, -3.3158132193591419)	1.0	z	0.542149
4	M	B	M	A	B	N	N	A	M	8	2	shapes	M	6	True	75	(3.9460611609452059, 5.3570080168599699)	(2.3611651022348568, -3.7235370447845586)	(6.9088036025218322, -4.581720128856043)	(-3.9220594127044075, -6.2235858014627023)	1.0	slash	0.98937
5	M	B	A	B	A	M	N	N	N	8	7	shapes	N	6	True	75	(1.0848018141020521, -2.7081683657992572)	(-7.4715027865661305, 6.3691184622745727)	(4.0393486870084487, 6.9917536965950848)	(-6.4613870634683757, -0.73410650379165432)	1.0	z	0.819074
6	M	B	N	A					B	4	3	shapes	A	6	False	75	(-7.7084898666247259, -8.7072350829451235)	(4.536221979606422, -6.4857466182412846)	(7.1992068298515584, 6.1149585255575172)	(-5.6999009745562113, 2.1720996358833027)	1.0	slash	0.561081
7	N	A	M	B					B	4	3	shapes	B	6	True	75	(2.0588623279753726, -5.1330169778222894)	(1.6178577235452583, 0.92935319474249489)	(-7.3566974800044331, -3.0396243563618484)	(-0.068200856632786966, 6.5098349922994156)	1.0	z	0.818658
8	N	B	A	M	A	B	N	M	M	8	1	shapes	B	6	False	75	(-0.77760548915624739, 7.1511571198758936)	(-1.7103957136514838, 1.0030389638673078)	(7.5355113753829031, -1.5296398690384372)	(-6.4311472179852114, -0.84477565261073639)	1.0	z	0.562475
9	N	A	A	B	M	M	N	B	N	8	7	shapes	B	6	False	75	(-8.1083704621258761, 0.67422628738921198)	(6.4932690287766164, 5.2079758390550115)	(-6.5083562812359004, -7.8687022319268358)	(-0.84393039912441026, 2.3696512766310764)	1.0	slash	0.57347
10	N	A	N	A	B	M	M	B	B	8	2	shapes	N	6	False	75	(-3.3586052429793956, 0.21116678975915626)	(-1.2836242499503037, 5.5283185606281968)	(-1.8255697202917229, -6.2192611172043577)	(6.992420769085463, 5.2623956161126131)	1.0	slash	0.607379
11	M	B	B	A					A	4	3	shapes	A	6	True	75	(0.27889804547037933, 7.4954193310067581)	(-3.7767256870512655, -0.59380226074765652)	(4.9979337017890888, -7.9584461441945908)	(-8.4479346235787105, 1.0723405066141449)	1.0	z	0.553385
12	N	A	A	N					M	4	0	shapes	N	6	False	75	(-8.5531889447601941, 7.3546257714652867)	(1.0060100281594799, 8.0232067886895067)	(-6.9583383549626969, -0.29053061780577139)	(3.277985393442691, -0.99682374816858399)	1.0	slash	0.629006
13	N	A	M	B					M	4	0	shapes	N	6	False	75	(4.3175970613108881, -2.0289471513289818)	(1.2617000061031209, 3.714900845748442)	(-7.7559481671341963, 7.5262298211628114)	(-2.1527856173836524, -3.4941487110043266)	1.0	slash	0.560706
14	N	B	A	B					A	4	3	shapes	B	6	False	75	(6.5332353768319393, 4.2069342417554303)	(-7.2685629605211357, 6.9221397638612263)	(0.15265603826919616, -1.5859835460384337)	(-1.6930552735540765, -7.0093879449919907)	1.0	slash	0.85023
15	N	A	M	B					M	4	0	shapes	N	6	False	75	(-6.5151020208787047, -7.7925476812947174)	(3.4371170733272436, -3.2827464121598577)	(8.4761888433296697, 5.9046206777310495)	(-3.3394427397742703, 5.82822877037691)	1.0	z	0.872112
16	M	B	B	A	M	A	N	N	A	8	4	shapes	M	6	False	75	(-6.3422883624530613, -4.1747740811261131)	(0.085225374915760099, 5.1192921332816752)	(-3.3827715873833526, -8.0487459170685511)	(-5.9526616422601695, 1.1764070976122447)	1.0	slash	0.6939
17	N	B	B	A	N	M	M	A	A	8	5	shapes	M	6	False	75	(3.8598680900620987, -0.95858331513591644)	(8.2345802048336765, -5.5333703637362976)	(-3.4875612128895543, 0.67227975917356098)	(-8.6412705049160934, -2.1710900011442975)	1.0	slash	0.766899
18	N	A	N	B					A	4	3	shapes	B	6	False	75	(-1.2352651937440324, -0.68876318692905514)	(0.36369713246228841, 4.5902124666836919)	(5.2279846581181157, -6.9022298060235361)	(-3.8547828822902188, 7.9226734379950443)	1.0	z	0.695094
19	M	A	N	B					M	4	0	shapes	M	6	True	75	(8.3861683424625184, -1.0119774124384193)	(-7.4949527635661957, 5.8905814947821078)	(-5.6329829564906451, -7.1633845074662306)	(2.156496968105694, 6.5868949425449816)	1.0	z	0.830908
20	N	A	A	N	M	M	B	B	M	8	5	shapes	M	6	True	75	(-2.8338803998969073, -1.8819139759522185)	(-4.9351808660640586, 1.9650674470701901)	(7.0546977136765179, 4.6957388814488059)	(-0.58223467489780489, -6.3981009395236654)	1.0	z	0.806474
21	N	B	M	B	N	A	A	M	A	8	6	shapes	A	6	True	75	(-0.60955997691729635, 6.5566358926455344)	(-4.7494720880294219, 0.80644448944454972)	(2.9513241733495263, -8.4617658233932129)	(6.3011029304157464, 2.9228656168640033)	1.0	z	0.663992
22	N	A	N	M	M	A	B	B	N	8	0	shapes	N	6	True	75	(-3.8856187696417601, 0.83532303697531951)	(4.9959022566183648, 6.7319390863837949)	(-7.3776822660750989, -1.3448445198164825)	(5.3950464661214586, -1.9131355559931)	1.0	z	0.719577
23	N	A	A	B	N	M	M	B	M	8	6	shapes	M	6	True	75	(-7.7698161802581698, -7.5620849007056998)	(1.5307433199890212, 2.4606095056058042)	(-3.2420269532136299, -7.5312392941010042)	(-7.2338670582354405, 7.6872966935903229)	1.0	z	0.636236
24	N	A	B	B	M	N	A	M	M	8	1	shapes	A	6	False	75	(-1.1289793501969934, -0.86238547595135095)	(3.6028337732457949, -3.8938035412329146)	(-7.0693127319581173, -6.6466616448423732)	(-7.5490305244527205, 5.9207936259778595)	1.0	z	0.71094
25	N	B	N	A	M	B	A	M	M	8	2	shapes	N	6	False	75	(-1.9469022276422407, -6.006549868658305)	(8.1725227939975191, 0.48121873877093968)	(-7.7947393781414185, -6.9149734875934978)	(-5.8166970522613504, 6.5557785231688683)	1.0	slash	0.548828
26	M	B	M	N					M	4	0	shapes	M	6	True	75	(4.1379331258022916, -4.0511947347685915)	(-6.9919965104558202, -1.7300388638049808)	(3.1013418116604825, 1.3955310568561075)	(-0.53152270531909807, 4.9840698535868633)	1.0	z	2.62411
27	N	A	A	B					A	4	2	shapes	A	6	True	75	(2.1000172243300366, -6.1147111566109063)	(-5.0267309055495986, 3.3974642777903217)	(-4.6297931733503841, -6.2705785592965428)	(8.5365431346917795, 7.3911526532526075)	1.0	z	0.469824
28	N	B	A	N					A	4	0	shapes	N	6	False	75	(-7.3608587970039245, 8.6255367088147814)	(-2.7132346095054318, -0.92332435029236315)	(7.0011604688259368, -5.8006279902426412)	(4.6171217438223788, 2.8594537773285129)	1.0	slash	0.577564
29	N	B	A	N	A	B	M	M	N	8	4	shapes	A	6	False	75	(1.914755751206199, -3.5394258427346701)	(-1.126536179248089, 5.0534441934267864)	(-8.3772461967482812, 1.1764240255394309)	(-3.2925418493882868, -8.524112800493711)	1.0	slash	0.795307
30	M	A	M	A	N	B	N	B	B	8	7	shapes	B	6	True	75	(3.7841201713569124, -8.1520382097107618)	(-2.9002265055198846, 8.0150109426682228)	(-0.78390896451172232, -0.076397456781213791)	(3.8436591370853144, 8.3970331802003848)	1.0	z	0.66497
31	M	B	M	A					A	4	3	shapes	A	6	True	75	(8.2613581407475145, 5.2171579994137556)	(-6.075523179341964, 5.5607796224895036)	(-3.0506582102457669, -2.698326233057049)	(3.5681718327624026, -2.8500761854050563)	1.0	z	0.414672
32	M	B	N	N					B	4	1	shapes	B	6	True	75	(-1.9252303725257214, -4.7380950343962276)	(-0.035950023178669355, 4.9679370073318871)	(8.5288004429472544, 2.3963731246636648)	(6.4531751724315463, -4.3155393242062017)	1.0	z	0.590288
1	N	B	N	M					B	4	0	shapes	N	7	False	75	(-7.679647987936888, -4.3801866194894252)	(4.3563379334091081, 5.901162715579698)	(-0.35751668895305144, 5.4722635703748637)	(1.6278269893480921, -8.5170726801425047)	1.0	z	0.447854
2	M	B	N	N					N	4	3	shapes	N	7	True	75	(6.9222852600031448, -5.7014139189596698)	(-4.4487664536995348, -7.4898825760258418)	(-3.5915597059822115, 7.0348095804801591)	(1.7514831814757095, 4.9186259046199954)	1.0	z	0.343779
3	M	A	M	N					A	4	1	shapes	A	7	True	75	(7.4555737648658926, 4.8210091757783893)	(6.3021506363863544, -3.063956178297043)	(-0.37503257563310832, -7.3902899501981869)	(-7.6924716731972538, 1.4334070757242561)	1.0	slash	0.644988
4	N	B	N	M	M	B	A	A	A	8	5	shapes	B	7	False	75	(-3.7351720999276221, 8.361112557956492)	(-7.6675360754910926, 3.8325379892537672)	(0.52536884808244189, 8.1117431595702492)	(0.71659580082330621, -1.0564557471269795)	1.0	z	0.432285
5	M	B	A	M	A	N	N	B	M	8	0	shapes	M	7	True	75	(-6.8488090874839127, 1.52430127406293)	(-7.6917354056835112, -4.1672222716872307)	(7.5612299293649912, 0.80581180974884781)	(-0.17449964288233666, 6.0423790399228903)	1.0	z	0.644088
6	M	A	A	B	M	N	N	B	M	8	1	shapes	A	7	False	75	(7.3100091043148865, 7.2050014497165868)	(-5.53730721563198, -1.0341026069005776)	(2.6564465496741683, -7.5411953572318335)	(7.1128901033011704, -4.2706986734035679)	1.0	slash	0.918175
7	N	B	A	A					N	4	1	shapes	B	7	False	75	(3.218545312967855, -7.218708148164156)	(-0.35834819829135256, 7.5921940761652884)	(3.9097015487751356, 6.9572529088221433)	(-0.58689108492721509, -0.42457325222408748)	1.0	z	0.845975
8	N	A	M	M					A	4	2	shapes	M	7	False	75	(6.2971899436096344, 8.4685369103464829)	(1.894142403136863, -6.4165702431004199)	(-0.64640299348400276, -1.6806898063084477)	(-3.7887045721089851, 6.472111699839127)	1.0	slash	0.639672
9	M	A	A	M					B	4	2	shapes	A	7	False	75	(-6.2308497714176312, -5.0356781821549452)	(-4.6640504877929532, 3.365574907702241)	(5.3655729593371895, -6.0134213790413291)	(8.6035198499111267, 7.5255452952659212)	1.0	z	0.553203
10	M	B	B	M	N	A	A	N	A	8	6	shapes	A	7	True	75	(1.4278381546730738, 7.5118164167808743)	(6.9870298910943625, -8.5146613647127989)	(-5.7143748493760036, -4.0534272738186221)	(-0.17477542211831576, 3.6015220853333361)	1.0	z	0.620885
11	N	B	B	M					B	4	1	shapes	B	7	True	75	(8.6286462627471998, 4.4179405489183239)	(-2.3814070080199166, 7.4743385469257468)	(2.5241378904287526, -5.272689790480233)	(-3.8380375845132093, -0.19625859823481839)	1.0	z	0.658678
12	N	A	N	M	M	A	B	B	M	8	4	shapes	M	7	True	75	(0.46731327235623077, -6.5692502620342008)	(-8.1772713266038757, 3.1031888684932731)	(6.1636360555637939, 6.724593283479928)	(-3.9177029870774867, 5.8355002352588059)	1.0	z	0.531922
13	N	A	A	N					M	4	0	shapes	N	7	False	75	(-2.7853180958370265, 6.7927738260823123)	(3.3356561579317248, 1.5834565397886315)	(7.9409723553374256, -3.9945518778282292)	(-7.8832952123620208, -3.33183004585673)	1.0	z	0.515915
14	M	A	A	N	M	N	B	B	B	8	6	shapes	B	7	True	75	(-4.6242201355749835, 6.3129953455878436)	(-4.1631481960576977, -7.0476882136817647)	(4.470373270936701, -1.6472935972174225)	(-0.75069959729176894, -2.2667308851955807)	1.0	slash	0.689083
15	M	A	A	M	B	N	N	B	B	8	4	shapes	B	7	True	75	(-2.3211872089542398, -3.9083820890611785)	(-6.1589187084549897, -7.5375928536239822)	(4.8130062121393706, 2.2123720859049918)	(-4.7732490282710707, 4.7811860031789077)	1.0	z	0.685225
16	N	B	A	M					A	4	0	shapes	N	7	False	75	(-4.3348606999031576, 8.7299473511757597)	(-7.1888450598126168, -3.0411145905877168)	(0.56461950898843405, -0.92924160846177184)	(5.9478224683321628, 7.57977689940682)	1.0	slash	0.53519
17	M	B	M	N	N	A	A	B	B	8	4	shapes	N	7	False	75	(6.7026395921219848, -3.9647154684507075)	(5.9677736445190668, 4.9270295590930075)	(-3.7023991278328712, -2.642722380578876)	(5.8668745265257769, -8.224548805522808)	1.0	z	0.526719
18	N	A	N	A	M	B	M	B	M	8	3	shapes	A	7	False	75	(-4.2561645849143508, 3.1996258786185514)	(6.9081165500617345, 1.884945946224871)	(-2.3021253460028168, -4.6525552491328757)	(7.5750085912799463, -3.2024687184292917)	1.0	slash	0.586324
19	N	B	B	A					A	4	3	shapes	A	7	True	75	(-7.5421956798892147, -3.9231606332899247)	(-5.2270945231354862, 2.3322837430412893)	(5.8172625383489347, -3.9877142366040168)	(2.0162610824981311, 2.976087294040326)	1.0	z	0.496049
20	M	B	A	B					M	4	0	shapes	M	7	True	75	(8.2642684494515244, -2.038669990936083)	(-4.7281374638939822, 3.6441215848042532)	(-2.2036624520006605, -4.9643233740862929)	(3.3685547165894327, 6.7772423703380813)	1.0	slash	0.463723
21	M	A	B	M					A	4	1	shapes	A	7	True	75	(8.230442337066453, 7.2868011511164319)	(-7.2173405739224865, 1.7446778661141149)	(-7.7699672501369923, -7.4047165865387985)	(7.4035731353686138, -0.93455303580233462)	1.0	z	0.581424
22	M	A	M	N					M	4	3	shapes	N	7	False	75	(6.4137991124922209, 4.4556682186477357)	(-5.6700232177398089, 1.928586876538267)	(-2.5386383529733481, -4.8976854097544322)	(7.3308826825207483, -1.3271165563116147)	1.0	slash	0.674948
23	M	B	A	M					N	4	0	shapes	M	7	False	75	(4.2622892876343652, -3.693807765084653)	(-7.4857392237776077, 6.8892126350641458)	(4.0575260929865387, 5.6474207930295268)	(-3.9889422205535361, -8.1154982552535078)	1.0	slash	0.580601
24	N	B	B	M	A	M	N	A	M	8	6	shapes	N	7	False	75	(-3.7202755961867648, -0.60443669528678612)	(-6.7019995067525713, -3.5533821439376361)	(2.6845468822368961, -6.5153341061870016)	(6.0034779457210288, 2.8458103295530854)	1.0	z	0.739748
25	M	A	M	A					M	4	0	shapes	M	7	True	75	(8.1851134657464968, 2.0338280906777584)	(-0.11959995713732496, 1.7134499764754185)	(0.97909144174309404, -4.0757501576653894)	(-5.1030550720773125, -0.86469215441945124)	1.0	z	0.562059
26	M	B	A	A	M	N	B	N	M	8	7	shapes	N	7	False	75	(8.106385841783581, 7.0174666382237447)	(-4.9571611693141691, 4.6478082972431469)	(-1.4073606886828456, -7.5327207609177194)	(8.7376979015982883, 0.95354725819964692)	1.0	z	0.701754
27	N	B	N	A	B	A	M	M	A	8	3	shapes	A	7	True	75	(-3.8355038158446373, -5.698007504514667)	(1.8981530107152462, 2.5122895988885716)	(-6.8231468432919931, 4.1230482055647393)	(2.2591582275517634, -7.4681318559448631)	1.0	z	0.629229
28	N	A	B	B	M	A	M	N	A	8	0	shapes	N	7	False	75	(-7.2555464599118089, 1.4011518181940232)	(-0.58727335775182787, 6.7769529805374802)	(6.8298034948760069, -3.5705099806709875)	(8.3816400925785892, 1.5632592800344582)	1.0	slash	0.754466
29	M	A	M	A	B	B	N	N	M	8	1	shapes	A	7	False	75	(-2.6210212305951464, 0.84189686635969885)	(7.1763018814672765, -2.3791308091300269)	(2.3214430932835892, 4.4738024615587673)	(7.0808978262945157, 6.3307369228983568)	1.0	slash	0.822676
30	N	A	B	M	A	N	B	M	M	8	7	shapes	M	7	True	75	(-0.15183544000114679, 2.1550205428772049)	(7.5245300219645017, -6.089627595236256)	(2.7719099287142974, -5.1027436074640233)	(-6.1187410588910147, 0.40770385850385082)	1.0	slash	0.830335
31	M	B	N	N					M	4	0	shapes	M	7	True	75	(4.8105301303600605, 5.2215753296423451)	(7.421035214740531, -8.5036626462887082)	(-0.77784572652750317, -7.3689644047608631)	(-3.183363937229073, 2.0815996046394662)	1.0	z	0.537766
32	N	A	B	B	N	A	M	M	B	8	2	shapes	B	7	True	75	(-7.6504795548248019, -1.0334322424147091)	(-8.0489540404616537, -5.5027923768448535)	(1.7396787841007768, 7.5227175827601727)	(1.143667598727836, 3.094163802936329)	1.0	z	0.411093
1	N	B	N	A	B	A	M	M	A	8	5	shapes	A	8	True	75	(2.333700215332783, 7.3630397374445415)	(-4.9570392294282355, -5.4226958508530725)	(-5.0721543187540323, 1.8897937224531294)	(-7.728569123482627, 8.6917332396265117)	1.0	z	0.39263
2	N	A	A	M	B	B	N	M	M	8	7	shapes	M	8	True	75	(-8.3977742296229163, 7.1343890504394114)	(0.44882480467398089, -8.1014556777862783)	(6.0253739740419796, 1.7641078880399537)	(-5.2554232506297378, 2.3415866394482769)	1.0	slash	0.734501
3	N	A	N	M	B	B	M	A	N	8	4	shapes	B	8	False	75	(-8.310459578037845, 5.1545621571318012)	(-2.5252440043875195, -3.9352404225176363)	(1.9998620896593255, 8.5732491398234778)	(5.7693659045728563, -0.40262533980801329)	1.0	slash	1.07268
4	N	B	A	N					M	4	0	shapes	N	8	False	75	(-3.8608453543388075, 8.1891039945763069)	(8.551648847156585, -6.0246044895595823)	(-4.3803399338074263, -3.9363948495611814)	(2.8791645402677446, 4.3265253102123449)	1.0	slash	0.636058
5	N	B	M	N	M	B	A	A	M	8	4	shapes	M	8	True	75	(0.34844885152690885, 0.14675532102432776)	(-3.4606348703733421, -3.4108210771317644)	(5.0469213661996939, -3.31423413909644)	(-5.8156751208099955, 7.9816914240067511)	1.0	z	0.754012
6	M	A	B	B					B	4	0	shapes	M	8	False	75	(-0.061479602614161522, 5.0225104064174886)	(8.1408870355609935, -6.6640709557041431)	(-4.7613238833944145, -1.3028981859235067)	(6.6437019420335073, 7.3404021763603957)	1.0	slash	0.966
7	N	B	M	A	N	B	M	A	B	8	3	shapes	A	8	False	75	(-7.4760458332050668, -6.1837721459221537)	(4.4916347897773523, 7.3429215502250926)	(5.371265149062463, -3.0862011250808878)	(-7.2874590420326992, -1.8271741533370989)	1.0	z	0.521267
8	M	B	M	A	B	A	N	N	N	8	0	shapes	M	8	False	75	(6.7666321641341121, -4.956642855715101)	(8.4800481162785566, 1.3570287833764496)	(-3.5972031617398992, 1.8676145808186213)	(4.0964759850765944, 2.1695366089438242)	1.0	slash	0.628932
9	M	B	A	N	M	A	B	N	M	8	2	shapes	A	8	False	75	(-0.72452476825160339, 2.8012939594736146)	(-7.8635820100314069, 3.9995866338205666)	(1.9622075169974096, -4.0295378743569632)	(-5.3540662532136505, -5.6600003263336998)	1.0	z	0.611915
10	N	B	M	B					B	4	0	shapes	N	8	False	75	(-8.0458864658462375, 4.2169527744093411)	(-8.0620345143672356, -6.7570921454281017)	(1.1270454217325625, 3.610165422815216)	(8.6056826490663454, -2.7681392549513522)	1.0	slash	0.660094
11	M	B	A	B					M	4	1	shapes	B	8	False	75	(-8.461970761034582, -8.4457659500330067)	(6.7939803514541985, -8.0027151978154834)	(2.0578301651630859, 2.2936008205710952)	(-5.8332849028851035, 2.6808280079281346)	1.0	z	0.519929
12	M	B	N	M	A	A	B	N	A	8	6	shapes	B	8	False	75	(1.9548349545798338, -8.4399371675199504)	(8.5956194320738639, 3.4238833417349088)	(-8.4609253602464918, -1.5335917647157924)	(-6.6567395396931293, 8.5842455373141746)	1.0	z	0.8115
13	N	A	A	M					N	4	3	shapes	M	8	False	75	(-3.783451393643638, -0.89861695682743203)	(3.4059623299696593, -3.4111327122955135)	(8.1937550868654654, 8.2936175365460052)	(-7.0682654241225276, 4.2314296093643602)	1.0	slash	0.715323
14	N	A	N	B					N	4	2	shapes	N	8	True	75	(3.1726902406268263, -0.80885334379105611)	(-2.8723864298117761, 7.8379568742470376)	(5.6327693230184206, 6.9894604846951367)	(-5.630963415686292, -1.0002265850739525)	1.0	z	0.702856
15	M	B	M	N					N	4	3	shapes	N	8	True	75	(0.78427274421398785, 4.3840314616710927)	(8.3432241244583487, -6.4785864957627339)	(-0.68440951692306662, -6.3309705136911312)	(-6.8476030349632175, 0.53029572656173407)	1.0	z	0.684566
16	N	B	A	N					M	4	2	shapes	A	8	False	75	(3.9521951835005318, -1.4375145823801212)	(0.43978483773175192, 1.9610560264151751)	(-7.797979119622255, 6.5421787152705608)	(-7.6048829343994395, -5.1802445299113771)	1.0	z	0.950198
17	N	B	B	M					M	4	3	shapes	M	8	True	75	(1.7859137757943397, 4.5399494522002453)	(-5.6089917012164978, 6.9644368062780515)	(6.1888243086370611, -4.1510564998800898)	(-6.7306961114505235, -8.5166538616244338)	1.0	z	0.457677
18	M	B	A	N	A	N	B	M	N	8	3	shapes	N	8	True	75	(8.6254374190812939, 5.4399050803419051)	(0.73533002300199968, -7.0264416456210999)	(-1.352703028656868, -0.71603641281704888)	(8.6271041609976926, -3.3892454930000024)	1.0	z	0.739593
19	M	B	A	A	B	M	N	N	N	8	7	shapes	N	8	True	75	(-7.8041573553646737, 0.7171064598082868)	(-7.4115573119097826, -7.4966084126567818)	(-7.8763317676820792, 8.3299191790367324)	(-1.479295520706267, -2.4356983895778246)	1.0	slash	0.731169
20	N	A	B	M					B	4	0	shapes	N	8	False	75	(-3.6198903695771296, -0.30532283966633855)	(-7.4310705976223321, 3.984133177538137)	(4.4838981988853188, 1.4779457882858011)	(1.7710658233299519, -1.8377318764669219)	1.0	slash	0.898665
21	N	A	B	N					A	4	1	shapes	A	8	True	75	(-0.39316626318709247, -0.04414522798983711)	(5.5040442071666362, -1.7503706017301521)	(-0.9778491072505755, 7.4945885023279679)	(4.4447988784276298, 8.2340970433666421)	1.0	z	0.528292
22	N	B	A	A					A	4	2	shapes	A	8	True	75	(-4.5968085665754694, -7.6496834303139591)	(6.5119657020138408, -5.1524593015891273)	(6.3123041283697425, 0.47995280200612989)	(-5.5491447122868962, 6.0799788314370318)	1.0	z	0.608136
23	M	A	N	B					N	4	2	shapes	N	8	True	75	(-4.4983533199758359, -1.2973373662932595)	(1.2153309640670837, -6.2220946348627155)	(7.8931895374191754, 2.802325403263735)	(-8.5452981612730738, 4.2469415260545347)	1.0	z	0.431805
24	N	B	N	M	A	A	B	M	B	8	4	shapes	A	8	False	75	(5.6305956531179735, 0.73222947258999938)	(-3.1648837672146151, -1.593215749496375)	(-1.3036535892347345, -7.0246789394835183)	(1.8203574305892385, -1.4833778865088831)	1.0	slash	0.751054
25	M	A	A	N	B	B	N	M	B	8	5	shapes	B	8	True	75	(6.6522121644181098, -2.5120981434451251)	(3.289712348406475, -5.0937183917854103)	(-7.226897424639759, 5.105731834673179)	(-2.4095893461078699, -7.5960742141495521)	1.0	slash	0.759125
26	N	A	B	A					B	4	2	shapes	B	8	True	75	(5.3999052378153678, 3.4232333111191995)	(3.9498418074542716, -6.3067880691489693)	(-5.7412485853285036, 3.2440383577406191)	(-0.42353291071637145, -0.33842431609943269)	1.0	z	0.712819
27	M	A	A	B	M	B	N	N	B	8	0	shapes	M	8	False	75	(6.5922694004244438, 5.3307780903608357)	(-2.2001445173141922, -7.9166035624911091)	(3.0886697590127667, -7.7578877901916172)	(-4.9247170500279811, -1.8869476111975878)	1.0	z	0.980567
28	N	B	A	M	B	A	M	N	M	8	6	shapes	M	8	True	75	(5.3131065406418063, -2.6528083319784486)	(-0.53533725111063113, 2.39560947201781)	(6.7140063171866924, 2.1706619804081715)	(-1.9097386864458148, -2.5998261377316645)	1.0	z	0.821366
29	N	A	M	N	B	M	A	B	B	8	3	shapes	N	8	False	75	(-4.8932033378670958, 7.3426525072410733)	(8.644908454757708, -5.9133707944714615)	(-6.4528810310418603, -0.67899825575882389)	(5.6489666985597022, 3.6023589733944874)	1.0	z	0.623728
30	M	A	N	M					A	4	1	shapes	A	8	True	75	(-4.2738890349848884, -5.9241453404008846)	(-2.3537058250247718, 8.6870415676701924)	(6.3556898886685911, 0.74846240677937814)	(8.1332476939338818, -2.9436446179444067)	1.0	slash	0.821504
31	M	A	N	M	B	N	B	A	A	8	7	shapes	A	8	True	75	(1.1371683184802599, -0.94522795679724414)	(-8.3171552072246886, 4.7349321539053832)	(7.3683340421070902, 6.1786626648157696)	(-2.1473959961142324, 1.6940934662433467)	1.0	slash	0.754508
32	N	A	B	N					A	4	2	shapes	B	8	False	75	(7.0056321196928995, -8.3763633926913705)	(-0.33608433028030049, 2.5299667781883599)	(7.195057372117784, 4.8520171179728244)	(-8.2525546730772579, -1.6630666385712649)	1.0	z	0.828636
