TrialNumber	stim0	stim1	stim2	stim3	stim4	stim5	stim6	stim7	stim.probe	ttl.stims	corr.num	trial.type	stim.corr	block	match	Subject	stim.pos0	stim.pos1	stim.pos2	stim.pos3	ran	resp	RT
1	N	A	A	N					N	4	0	shapes	N	Practice	True	76	(6.6470392966616298, -7.8442405363997425)	(-0.33062839993259452, 1.9259075784221373)	(7.5053528699628238, 4.7573721418476307)	(-8.7249963433706306, -6.2323882594802242)	1.0	z	18.1499
2	N	B	M	M	B	A	A	N	B	8	1	shapes	B	Practice	True	76	(-5.8674733170976126, -3.7850519001408713)	(3.524500821939494, -4.6294087649093285)	(-0.81562716177338945, -6.5788637166285646)	(-8.2535960013134435, 1.9151154518001761)	1.0	z	1.70889
3	N	B	N	B					A	4	0	shapes	N	Practice	False	76	(5.173337290263806, 6.8059767015980484)	(-6.5902315738745472, 1.4595346278821246)	(3.9308680632284645, -0.68327636089512289)	(-0.83706568198596099, -7.9923681928765458)	1.0	slash	2.14436
4	N	A	A	N	M	M	B	B	M	8	2	shapes	A	Practice	False	76	(-7.0353216544571282, 3.9656656009351767)	(-3.5340439980760854, -5.2815707075659208)	(-2.2823831566960191, 1.884187683487065)	(1.0869831931465246, 5.4603693409869436)	1.0	slash	1.0001
5	N	B	A	N					N	4	2	shapes	A	Practice	False	76	(1.5052219174369128, -1.1649995899039425)	(-4.8859748615903609, -7.4222574406983366)	(-3.3820943958108449, 5.1154943462574813)	(6.8606825219923451, 3.1005772885532004)	1.0	slash	0.697771
6	M	A	N	A	B	N	B	M	A	8	6	shapes	B	Practice	False	76	(-3.8734999358200914, 2.0859989776436834)	(-1.920251629518253, -7.6116153677917833)	(-7.7168103310821827, 6.4137569923336102)	(5.8522736634317987, 1.5031754889645121)	1.0	slash	11.683
7	M	B	B	N	M	A	A	N	A	8	5	shapes	A	Practice	True	76	(3.2498592681182483, 0.32280256673065466)	(-1.5225957726864028, 4.9636679192140409)	(6.0109119108394271, -5.4315748995274777)	(-5.2340287553121243, 7.7249720587167552)	1.0	z	1.22804
8	M	B	N	A					M	4	0	shapes	M	Practice	True	76	(-4.5429268559780445, 3.3423746726686208)	(-7.8755293489122788, -4.6113516147770195)	(2.9877500135734874, -8.4473490944091996)	(2.7118138276853827, 5.2573101614482063)	1.0	z	1.17587
1	M	B	N	M	B	A	N	A	B	8	2	shapes	N	0	False	76	(-6.9872247536660144, -6.528029955686911)	(5.4569485471387971, -3.7216378894381839)	(-2.3293696702556463, 1.8147472868328567)	(5.7865948103449405, 2.419420929165037)	1.0	slash	0.750077
2	N	A	N	B	M	B	M	A	N	8	0	shapes	N	0	True	76	(6.0186375000133019, 7.4811769578352596)	(2.0104772727557574, 1.9207486333942061)	(7.1809007382616645, -2.5847422806072888)	(-8.4383637383250854, -2.0703407381858474)	1.0	slash	0.942001
3	N	B	B	M					B	4	3	shapes	M	0	False	76	(2.0494845866565008, -7.007690231777433)	(-6.5998520919086658, 3.232005397249047)	(2.9868578062474285, 7.5007167336698011)	(-8.649203070306827, -4.194828545494472)	1.0	slash	0.891523
4	N	A	B	B					B	4	3	shapes	B	0	True	76	(-5.0562367271152659, -1.4192825246245366)	(-4.9476396506654456, 7.5354555329463047)	(6.525463056301696, -0.78849207194742021)	(2.9899657992612045, 3.8829717052730235)	1.0	z	0.835214
5	M	A	A	B	B	N	N	M	M	8	0	shapes	M	0	True	76	(-7.6474407841165295, -3.9816431617483934)	(8.5725914188333086, 7.9430684146949844)	(-2.2183848464849847, 3.6058779801750234)	(3.7647596853425611, 6.6889976730520733)	1.0	z	1.18489
6	N	B	B	A	N	A	M	M	B	8	0	shapes	N	0	False	76	(-2.9495656321825123, 0.014873106409831749)	(7.4345416930243857, 7.0661875657446238)	(7.2079876613440277, -2.0497509222120742)	(-6.8725981614761888, -2.5328500608284381)	1.0	z	0.992471
7	M	A	A	B	N	M	B	N	B	8	2	shapes	A	0	False	76	(-1.0987256063391655, 7.689343561148668)	(7.508377567962853, 7.2472174042439015)	(2.95341491402983, 1.3891761335909489)	(-4.9977295941915774, 0.36958688129777784)	1.0	z	0.832073
8	M	A	A	B					M	4	0	shapes	M	0	True	76	(2.7099584471369411, -3.0395484738946559)	(6.8751228155290107, 1.2771748136018584)	(-5.2198814452103148, -2.5422575969636654)	(-1.9246850210119781, 7.5341314223724609)	1.0	z	0.579825
9	N	B	M	B	A	M	N	A	B	8	1	shapes	B	0	True	76	(1.9374155851603767, -4.8964017360633232)	(-4.1010120541383159, 4.017585960062382)	(3.1964289171955418, 6.5783620279630703)	(-2.6717370953123218, -0.92036396528895636)	1.0	z	0.675349
10	N	A	N	A	M	B	M	B	N	8	7	shapes	B	0	False	76	(-2.7284796211559463, -6.3793069388826469)	(6.473574331774838, 2.1615565297245229)	(2.0463102516469256, -7.6139282098690675)	(-7.7840537578040276, -3.1217335755302722)	1.0	slash	0.673197
11	N	B	A	M					N	4	1	shapes	B	0	False	76	(-7.9879692321482088, -2.1517906992754048)	(8.4062697871287213, -7.9567187770282146)	(4.4868399284502658, 5.2874172822822256)	(-3.3738538380503336, 0.80787428581973231)	1.0	slash	0.69282
12	M	B	M	N					M	4	0	shapes	M	0	True	76	(-8.3159568809867466, 1.6575145804548015)	(8.1703572178148534, -6.1301579356912761)	(-1.4091200891912559, -5.3716984759681621)	(6.6132325893833155, 1.944887391794067)	1.0	z	0.706502
13	M	B	B	M					N	4	2	shapes	B	0	False	76	(-4.1925462071417368, 7.1488410575071999)	(6.7229354051187329, 6.5898830342381469)	(-4.6769692997801258, -8.6340000406098039)	(0.24063659285625683, -3.4432922482056272)	1.0	slash	0.751649
14	M	A	M	B					A	4	1	shapes	A	0	True	76	(-5.8496877575254391, -6.5889159001384936)	(4.3775640961218105, -0.79357453554704804)	(0.65912529624544547, 6.504898962241473)	(-1.7026743729685032, 0.85101657035533229)	1.0	slash	0.843731
15	N	B	B	N	A	A	M	M	B	8	4	shapes	A	0	False	76	(-4.662027087632354, -0.15830833923416954)	(7.1021251918070742, 1.9173740211086834)	(1.9519619917126896, 7.6128759732198326)	(6.0668329674794226, -5.0598891863034421)	1.0	z	0.79128
16	N	B	A	B					B	4	1	shapes	B	0	True	76	(0.7654710048159874, -5.18053736639758)	(-3.6492314391180649, 7.5680857766090917)	(6.8385872302880326, 4.3110647108187496)	(-8.3286433509706459, -2.2636640863397544)	1.0	z	0.63519
17	N	B	N	A					A	4	2	shapes	N	0	False	76	(-3.6708081981043144, -6.5111771804860687)	(1.2759323620280725, 3.9947093338701869)	(-4.035428491308573, 5.741515011502841)	(3.0009868835367239, -5.1688867568031158)	1.0	slash	0.622702
18	M	A	M	N					M	4	2	shapes	M	0	True	76	(-1.9626994903500403, 5.9490093999644547)	(2.7087917259728478, 6.9691904587145164)	(-3.7317497175896746, -1.1703231345518113)	(3.9906883930075328, -7.331948155255712)	1.0	z	0.660308
19	N	A	B	M	N	B	M	A	N	8	0	shapes	N	0	True	76	(0.49404619065326116, -0.23821097823428694)	(-5.9066638795553139, -7.7723490653623308)	(8.4852787281483515, 3.4559483545414267)	(-5.6261183047907979, -1.9546359157553992)	1.0	slash	0.982193
20	N	A	A	M	M	N	B	B	A	8	3	shapes	M	0	False	76	(7.9393446675096015, 1.4644260072867024)	(-5.7245571221299718, -4.8605584587502912)	(-1.7221185102941323, -1.7026374377934461)	(-6.9809238642942306, 6.5421008468164406)	1.0	slash	0.789702
21	N	B	B	N	A	A	M	M	M	8	7	shapes	M	0	True	76	(-2.6723769492888518, 7.1071716541000889)	(5.147665287335931, -8.1174174573086528)	(5.0709329644298524, 6.7398065194645653)	(-8.3452767648699648, 0.51179071164356671)	1.0	slash	0.733229
22	M	A	M	A					M	4	0	shapes	M	0	True	76	(4.6693701512052321, -4.2933407328152278)	(-0.44168182080080953, 6.9810491651702797)	(4.3170922017597615, 7.7284117935013761)	(-2.0848600576275205, -6.9358526836887204)	1.0	z	0.733004
23	N	A	B	M	M	A	N	B	A	8	6	shapes	N	0	False	76	(0.48861643287511747, 6.3504070943000031)	(-8.3575524080782504, -3.9558488660886777)	(-3.6970482863162442, 7.5011121602386766)	(0.13264742155968001, -3.9437428471259413)	1.0	z	0.719395
24	M	A	N	N					B	4	3	shapes	N	0	False	76	(-7.1063014413466519, -2.9154097650699917)	(-4.2804503295468379, 5.9352055783883699)	(3.697360152118641, -8.7492531557262723)	(2.0161377775250973, 5.4155540191510223)	1.0	slash	0.656421
25	M	B	N	M	N	B	A	A	B	8	5	shapes	B	0	True	76	(0.90412881399918099, 2.6939914235562714)	(8.0212536363323501, 6.7940446701815098)	(4.1951535938219227, -5.9171458104578232)	(-6.2970295634382314, 8.6560595176077477)	1.0	z	1.13011
26	N	B	N	M	A	B	A	M	A	8	6	shapes	A	0	True	76	(-1.3466530736758511, -1.6232960943015859)	(3.4774077097522529, 7.0841009314858923)	(6.12268943990453, -5.629017720827342)	(-2.9669146754480176, 5.9530566815147079)	1.0	slash	0.877239
27	M	B	B	N					A	4	1	shapes	B	0	False	76	(6.3629298508919199, -5.7299814959378992)	(-1.8459013782239513, 2.3186209600028569)	(-5.291656614005916, -3.7942877063142202)	(2.6635467817758283, 4.2065733802659011)	1.0	slash	0.649293
28	N	B	N	B	A	M	A	M	N	8	0	shapes	N	0	True	76	(6.1091193621777435, 0.92815454810009257)	(-6.9907808045691553, 2.3118329200192829)	(1.4801645418136502, 2.2217111405743051)	(-2.1127409824735448, -6.9792029024627329)	1.0	z	0.716302
29	N	A	A	N	M	M	B	B	B	8	1	shapes	A	0	False	76	(-5.1874048283857599, 0.086383789275215506)	(-1.752854802195964, -6.8348844078533091)	(2.0330103719860215, -2.4532361274629881)	(3.5216023765883673, -8.2382542493899251)	1.0	z	0.932727
30	M	B	A	M					A	4	2	shapes	A	0	True	76	(-4.7441588911737504, -0.88669240846961994)	(4.0213215871710943, 2.5623888933773209)	(-0.1098508176378914, 0.22008162327707481)	(7.1914898974208121, -5.4335694813408839)	1.0	z	0.740273
31	M	B	M	B					N	4	3	shapes	B	0	False	76	(-7.2945341896870293, -5.1716117567550874)	(5.7624720184135363, 0.966406506986214)	(-3.5072474826827511, 8.4683417833461299)	(3.1804888501439752, -3.7703886221717546)	1.0	slash	0.489912
32	N	B	N	B					N	4	3	shapes	B	0	False	76	(-8.1337867491919056, 5.7557898046161249)	(2.8658699067228426, 7.4543142966612592)	(8.6591789112933562, -1.8405223968836815)	(-0.39510116968970621, -1.4764801616331491)	1.0	slash	0.641703
1	M	B	N	A	N	A	M	B	B	8	6	shapes	M	1	False	76	(2.9583650236854933, -4.1194067691271945)	(4.5283993250441537, 4.8506012258008688)	(-7.9014412867084003, 7.6168428902824772)	(-1.7531770892884362, -1.9160345666278262)	1.0	slash	0.495328
2	N	A	B	M					B	4	1	shapes	A	1	False	76	(-3.2766380027793272, 0.73726059363971963)	(1.0976842566563363, 7.8234064804770966)	(-6.4959091776385147, -7.9850726237455456)	(0.32215295401346467, -2.1112171466035692)	1.0	slash	0.646871
3	N	B	B	N					A	4	3	shapes	N	1	False	76	(1.2597665447156423, 1.7249682761754492)	(1.5424189833345565, -3.187487045158365)	(-6.3221411347672607, 7.8707464005891801)	(-1.9408795604054792, -7.4822466534326306)	1.0	slash	0.680437
4	N	A	M	M					M	4	3	shapes	M	1	True	76	(2.9952416177219909, -6.7124984646052628)	(-6.565725128334881, -0.89139595682626993)	(1.0865642258138521, 6.3906628572895698)	(-3.0120313624689103, 7.2310083927962694)	1.0	z	1.32211
5	N	A	N	A	B	M	B	M	M	8	3	shapes	A	1	False	76	(8.488029838930327, -5.3557932538699795)	(-3.9136499205622943, 0.22947875786339544)	(0.66303798411357384, 1.3941735339792576)	(-8.6570228941758298, -0.15329773732023)	1.0	slash	0.605786
6	M	B	B	N					N	4	3	shapes	N	1	True	76	(-5.6669641013505192, 2.6352726063199761)	(3.0785296932089814, 8.6325877168719245)	(5.8002658831500788, -2.9656293905310953)	(-3.2671230528109589, -7.2323877261369596)	1.0	z	0.655382
7	M	B	B	N					M	4	0	shapes	M	1	True	76	(-4.453595353198649, 1.6881900420086691)	(6.3868507663039757, 8.6873905638817241)	(-2.4145477505617086, -2.971519879926551)	(4.3619795538624082, -2.2978808612271031)	1.0	z	0.647242
8	N	B	B	N					A	4	0	shapes	N	1	False	76	(-2.6205828337081423, 7.8197148779395143)	(0.34591935218587366, -0.44454057488967358)	(-1.0328809881675145, -6.0905278080223431)	(7.8842612073947684, 4.8852498196306939)	1.0	slash	0.616935
9	N	A	M	M	N	B	A	B	A	8	1	shapes	A	1	True	76	(-5.3171783292572634, 8.3007004465496657)	(6.8364725208306094, -4.552565727868239)	(3.3987640263757779, 2.3211126318956623)	(-0.28969627149100141, -2.8407652464716184)	1.0	z	0.970507
10	N	A	N	M	B	B	A	M	M	8	7	shapes	M	1	True	76	(-4.2238570233089474, 1.623149962602044)	(1.8561497120424892, -2.2719986551147988)	(3.3098259103603329, 2.2148469146122061)	(-1.0475637732458729, -7.4900746555167057)	1.0	z	0.950167
11	N	A	N	B					N	4	2	shapes	N	1	True	76	(-3.5872675439360409, -7.9921283633704387)	(0.84738610112457913, 2.5655633237084405)	(2.1737684229290775, -2.2753427484532942)	(-4.4962926548168118, 4.966371024580889)	1.0	z	1.1059
12	N	A	N	A					N	4	0	shapes	N	1	True	76	(-0.88842581865684878, 8.5784173737160501)	(2.1050073366578896, -2.6348681929240829)	(-7.5650251615441766, -3.9600551633270173)	(5.9743239557072538, 8.2914059027699736)	1.0	z	0.66167
13	N	A	B	N					N	4	0	shapes	N	1	True	76	(1.661706656998895, 0.012163131658603277)	(-7.319653026431248, 4.5684838747540386)	(2.0169804916697132, -6.2003438362777921)	(-3.4823127659103701, -4.0582014121802921)	1.0	z	0.755154
14	M	A	A	N					A	4	2	shapes	A	1	True	76	(-2.0097306661940859, -8.6004359218732951)	(6.5518330413694947, -3.0163141716863544)	(-1.3527369461756882, 1.6125590522862527)	(4.9365619612436866, 5.5616957902805595)	1.0	z	0.438788
15	N	A	A	N	M	B	M	B	B	8	0	shapes	N	1	False	76	(2.473792840290427, -4.5697181246117884)	(8.1536634945382822, 4.1858679085557533)	(-8.0462292148009134, -1.6192226617938985)	(-8.1792236793182873, 2.5193262745094902)	1.0	z	1.14044
16	M	B	A	M	A	N	N	B	M	8	3	shapes	M	1	True	76	(-2.1704989084792645, 2.2948263310513948)	(-1.7722162662078764, -7.3373781297650149)	(7.4166715256817746, 4.6046423167616393)	(6.8413696286167074, -4.1710074620880677)	1.0	slash	0.814125
17	M	B	M	B	A	N	A	N	A	8	7	shapes	N	1	False	76	(-1.1418580409096863, -4.5794928332413063)	(-8.2512730305208546, 5.2913794295056746)	(-1.1101841049286341, 0.0087174710260704558)	(7.9761516565411767, -0.46184885025159872)	1.0	slash	0.839845
18	M	B	B	N	A	M	A	N	A	8	2	shapes	B	1	False	76	(-2.719639807774759, 7.4185553858350026)	(4.2939560466652456, -6.6365897102766933)	(-3.8129921802740832, -8.0478748010266035)	(-3.7767785501287738, 3.5269550465663908)	1.0	z	0.989398
19	M	B	M	N	B	A	A	N	B	8	3	shapes	N	1	False	76	(7.1008619500756573, -1.8050684748371051)	(0.13579287564145481, -7.3269924573992729)	(3.9292367330416234, 6.1327746343548597)	(-3.3403161091685796, -3.5207648200327224)	1.0	slash	1.01296
20	N	A	M	M	A	B	N	B	N	8	6	shapes	N	1	True	76	(-2.9243823944650114, -5.9283480887068114)	(-3.8855972435892703, 5.2561919467867444)	(1.6784263581628842, -7.9255268405449115)	(1.7310345485451251, 4.0899451611632553)	1.0	z	0.686641
21	M	A	A	N					B	4	2	shapes	A	1	False	76	(-1.703004797892758, -7.8776098130278926)	(6.201515248816639, -2.935050892829266)	(-3.4270828632369135, 0.44904026680399411)	(2.2821938688925325, 1.4897608327039507)	1.0	slash	0.640282
22	M	A	A	B					N	4	3	shapes	B	1	False	76	(-1.9428251314974165, -7.5005987293164491)	(-0.18677738277056122, 5.4636026054479458)	(4.0216196825368407, 5.7146305162001187)	(0.048123668467320968, -1.5279247992563043)	1.0	slash	0.570037
23	N	A	N	M	M	B	B	A	A	8	1	shapes	A	1	True	76	(0.02377216023475448, 8.4585134177648129)	(-5.6800103014874104, 3.2394582779211643)	(5.1085296165252885, -8.049041715422188)	(-7.4128625904892154, -8.5515211282855468)	1.0	z	0.877697
24	N	B	M	N	B	A	M	A	A	8	0	shapes	N	1	False	76	(5.6033031985207948, 4.5458916962169873)	(0.21833537667910363, 2.3149113486164108)	(7.1476896623794932, -4.1958221970093259)	(-2.3949196457155253, -4.297005744173279)	1.0	slash	0.611268
25	N	A	N	A	B	B	M	M	M	8	7	shapes	M	1	True	76	(5.4841193258228458, -0.9262494230665812)	(-1.6271050086492478, -6.9213697088359645)	(2.0167048971010608, 5.3510459635768992)	(-6.8760113922941439, 1.8351007214932515)	1.0	z	0.742888
26	N	A	B	N					B	4	1	shapes	A	1	False	76	(5.7190297642326424, 7.5044042392669397)	(-8.0399707252699812, -2.5758592173855464)	(-4.5588278903425135, 7.0023445372827346)	(6.4172252843595601, -3.6032191970501586)	1.0	z	0.828624
27	N	B	B	A	M	A	M	N	B	8	1	shapes	B	1	True	76	(5.2914282652324349, 3.6956168091949078)	(-6.2128250838331702, -0.11506897537522676)	(-3.2317833476342734, 4.8745331529648634)	(6.9961244387530908, -5.2164362562236901)	1.0	z	0.700211
28	M	B	N	M	A	B	N	A	M	8	2	shapes	N	1	False	76	(-4.4252091828419173, 5.7417975568468016)	(4.3833539253530489, 0.24457893848144074)	(-3.5745606085084702, -5.7087100853762989)	(-8.3303792214097907, 8.4084282743648266)	1.0	z	0.845938
29	N	B	N	A	M	M	A	B	B	8	1	shapes	B	1	True	76	(-5.7467261845337116, 2.8773649890783393)	(3.6023641467837244, 1.3767990993037156)	(-1.3863100804662949, 2.0379927879158934)	(1.1083696702319301, 6.5710739392464408)	1.0	z	0.903377
30	M	B	B	M					M	4	0	shapes	M	1	True	76	(0.61251678522454966, 4.8646441406023673)	(-7.0140585047832493, -0.55278002675161275)	(2.0931375321607977, -2.5452165188630547)	(-2.6703965947946795, 0.27622256020074865)	1.0	z	0.56517
31	N	B	M	N					B	4	3	shapes	N	1	False	76	(4.5763595400319037, -2.0625221439428882)	(-3.4640357769735708, 7.7982985508798208)	(-2.3461795996617241, -8.5644998033215973)	(3.7614383541538867, 2.8963902525930472)	1.0	slash	0.606885
32	M	A	M	N					M	4	3	shapes	N	1	False	76	(-0.54407003338601534, -6.5095269042658632)	(8.2608273928735905, 1.0424693341768592)	(-6.9246090973792196, 7.866323894941484)	(1.511536894217846, -1.7820881329755052)	1.0	slash	0.720571
1	M	A	A	M					B	4	3	shapes	M	2	False	76	(-1.7186256293195656, 7.9058184341800875)	(6.0586601505935729, 5.7197445024267317)	(-8.6230918024888918, -4.3848237529055334)	(5.536463841879689, -2.9238587489827346)	1.0	slash	0.508156
2	N	B	A	M					N	4	2	shapes	A	2	False	76	(-7.056180940202859, 7.8932114150167259)	(-6.2320788980206467, -8.3439775749540708)	(0.47760052531417152, -8.4899987165555935)	(0.086234345151305902, 6.2588872823040624)	1.0	slash	0.847933
3	N	A	A	M	N	B	B	M	M	8	2	shapes	A	2	False	76	(-4.5186704547189009, 7.5971850503409719)	(-5.155060324514869, -2.15922421699862)	(4.5929112304431499, 2.5376517394075009)	(3.3996230489242372, -1.9608095691369183)	1.0	slash	0.755594
4	N	B	B	A	N	A	M	M	M	8	7	shapes	M	2	True	76	(8.1053169299970911, -6.3066564861247896)	(-0.99490356996113771, 1.2012427722841696)	(-0.62879339901717834, 6.7327486123593374)	(1.6597204941239738, -7.5886094714847951)	1.0	z	0.817268
5	N	A	A	N					M	4	0	shapes	N	2	False	76	(-3.3112861671976974, 3.9829195953026364)	(2.7500658014890007, -6.8720409462435521)	(5.4142784018836885, 2.6122760749128293)	(-5.0398522668736065, -7.5693343629739172)	1.0	slash	0.632803
6	M	A	B	B	N	A	N	M	N	8	4	shapes	N	2	True	76	(1.6012881396492613, 5.9686960094303565)	(5.5764558128282733, -2.7301187423552653)	(-1.478175588962479, -7.1613914439525281)	(7.0050897436463782, 2.640012812923187)	1.0	z	0.830516
7	M	A	N	N					N	4	2	shapes	N	2	True	76	(-4.9566838165713731, 5.5123942439281031)	(4.3908489103922932, -8.2489783127231391)	(-4.3209722357049687, -8.167666975800115)	(0.84602655670224358, 0.322124308914848)	1.0	z	0.690208
8	N	A	N	M	B	M	A	B	A	8	1	shapes	A	2	True	76	(-1.476479393565838, 4.1718741281469534)	(5.2225654545900273, -1.5050892455650446)	(-6.4543521124207626, -2.89705766115818)	(-3.3051259828014086, 0.3664376706192094)	1.0	z	0.965862
9	N	A	M	M	B	B	N	A	N	8	6	shapes	N	2	True	76	(-4.1281293271563388, -3.5876585940252816)	(-5.9716112736071647, -7.5357454448309644)	(-2.8142832228762158, 0.56019931565245251)	(0.031592257932906875, 7.0503253369452832)	1.0	z	0.617367
10	N	B	N	B					B	4	1	shapes	B	2	True	76	(-5.6106498960565379, -5.875620130333008)	(5.6025051382465314, 3.998040096977995)	(7.6564104202850416, -4.3105775465336933)	(-2.0616124554216935, 6.3244989194145127)	1.0	z	0.625191
11	M	A	N	A					A	4	0	shapes	M	2	False	76	(-4.5099704556625726, -3.512694822955539)	(-8.0373184791260286, 8.5683268502328112)	(4.5041577113301194, -3.105255689475368)	(7.3318787428954373, 5.0074395844142856)	1.0	slash	0.542853
12	M	A	B	B	N	A	N	M	N	8	5	shapes	A	2	False	76	(-2.9301101267101455, -4.5760074858739568)	(-7.926113859348817, -5.5790954127642642)	(7.3795900475820275, 2.4324384801229844)	(4.369669780437162, -2.9615098166071814)	1.0	slash	0.856536
13	N	B	M	A	N	M	A	B	A	8	0	shapes	N	2	False	76	(0.1132582714939474, 3.9906682231221762)	(-8.4682514993422551, 6.2357167705420693)	(5.9564534243362175, -1.4586587608852923)	(-3.4332246705994613, -4.732116633859639)	1.0	slash	0.666182
14	N	B	B	N					N	4	0	shapes	N	2	True	76	(-7.86758774734776, 8.7312486861627043)	(-6.1117477158093374, -6.3314796793948007)	(4.104942058896178, 8.2130757379456689)	(4.7678104133618504, -0.75382040555013141)	1.0	slash	0.581861
15	M	B	N	M	A	N	A	B	N	8	4	shapes	A	2	False	76	(-5.6425241604133305, -8.4389700016230726)	(0.69816456348764078, -4.5692380257975058)	(1.5710700874820702, 3.8338646897706123)	(6.528476591360036, -8.2748482333999576)	1.0	slash	0.763452
16	N	B	A	N					B	4	1	shapes	B	2	True	76	(4.4819409243114325, -1.3943237952023599)	(-8.723194934408756, 5.2947166578584302)	(-1.696747018266465, -0.531099237127858)	(3.8967261412763126, 8.7354237905613736)	1.0	z	0.613052
17	N	B	N	M					M	4	1	shapes	B	2	False	76	(1.2872639727123403, 7.9624988369230927)	(-2.8395115902885015, 6.0549813355967199)	(-6.098828484938128, -5.9188124898576202)	(7.8725011088316244, -5.0319056874682122)	1.0	slash	0.804642
18	M	A	A	N	N	M	B	B	N	8	7	shapes	B	2	False	76	(4.6300472215629735, 0.46217890972980236)	(-4.8083409630784235, 2.663041623833891)	(6.997966796572852, 7.4473959095312949)	(-1.0172090341839208, 7.1826403337094344)	1.0	slash	0.704552
19	N	B	A	B					N	4	2	shapes	A	2	False	76	(3.7089417463754017, -6.8638348124790873)	(-3.1939941365746805, -7.5964038164064247)	(3.9109952841354616, 4.2589617444041536)	(-8.5926031113589971, 4.7354729138175493)	1.0	slash	0.630101
20	M	B	B	A	A	N	M	N	B	8	1	shapes	B	2	True	76	(3.983658161351995, 1.6132694543285986)	(4.5307288347621899, 6.2657672815869176)	(8.0202978492593715, -7.7461989756882144)	(4.9828476302166962, -3.9271182810036684)	1.0	slash	0.749833
21	M	B	M	N					N	4	3	shapes	N	2	True	76	(0.92555713620665436, 0.74824475713552374)	(-5.6582498388007529, 4.354193220453995)	(-4.1322162655029233, -1.6816096557604867)	(3.1996454254393409, -5.9932450302983717)	1.0	z	0.609247
22	N	B	N	M	M	A	B	A	A	8	5	shapes	A	2	True	76	(3.265453484247665, 4.9409102966934029)	(-2.4821334362119032, -6.7249437919932262)	(1.9372300841908121, -0.59926259963614825)	(8.3209991173471636, -6.2262193977129776)	1.0	z	0.877081
23	N	B	A	N					N	4	1	shapes	B	2	False	76	(7.6083155905645334, 4.5632452326802024)	(-6.844101695285385, 0.74176983614729153)	(-6.323322451873171, -7.6816622320688994)	(0.41672258961227904, -2.2572196864006617)	1.0	slash	0.728737
24	M	A	A	N	M	N	B	B	N	8	6	shapes	B	2	False	76	(7.8718136828413776, 3.668007924857017)	(-7.809037493756434, -4.1221144487888512)	(-4.5759074868088732, 8.2979858214571642)	(2.6178035283209304, 5.9443704515295046)	1.0	slash	0.811899
25	M	B	A	A					A	4	3	shapes	A	2	True	76	(0.30282810021231299, 1.2795747042863272)	(-6.8813785261374028, -5.4472434977961051)	(4.1143846229864138, -6.3066742928992561)	(-3.2169886724570693, 5.7679825474036512)	1.0	z	1.14006
26	N	B	N	B	A	M	A	M	N	8	2	shapes	N	2	True	76	(3.048586727456442, -3.8814823593214234)	(6.0216216173949348, 0.26371694563223969)	(-4.9948951220350892, 1.5532493092712496)	(-6.0108576743672746, 6.6535045106010795)	1.0	z	0.911658
27	M	A	B	N					M	4	0	shapes	M	2	True	76	(-5.0195362145123186, 7.1129695896310583)	(-1.8403079891512757, -0.6572952016735254)	(6.3993054974283652, -4.3205112196366695)	(3.4178666699450861, 4.8785584493194118)	1.0	z	0.65134
28	N	B	B	A					A	4	3	shapes	A	2	True	76	(5.2540793151135681, -5.8661898787886155)	(8.6613331658897188, 2.8699943306277103)	(-5.1715849236563622, -2.7305997657676908)	(-7.9387592495449661, 1.7829236808048066)	1.0	z	0.747004
29	N	A	M	A	B	M	B	N	A	8	3	shapes	A	2	True	76	(-5.9567858626857806, -1.4553176829082375)	(2.8646644937889025, -2.3754729036306257)	(-6.309427746454169, -8.3637965246820212)	(2.2358465847354694, -8.1058607101393196)	1.0	z	0.850644
30	M	A	A	N					N	4	0	shapes	M	2	False	76	(-7.3697545492289436, 0.63385123802424204)	(0.69979211916989925, 4.4316984549245948)	(0.024985375977644608, -3.330243321508334)	(-4.9357320572508625, -8.5542002008610343)	1.0	z	0.796321
31	M	B	B	M	A	N	A	N	N	8	2	shapes	B	2	False	76	(-6.068633060984129, -4.3118367144288916)	(1.1371698987191365, -6.694939387496726)	(1.5956818361862872, 2.1676439385285082)	(-6.3690950753957623, 7.3270425182530552)	1.0	slash	0.690291
32	M	A	A	B	M	B	N	N	B	8	0	shapes	M	2	False	76	(0.71681952180716912, 6.3622879797456697)	(6.4958524769350756, 7.0977609434197557)	(7.2666379692996124, -0.14524114304333224)	(0.65898917356929942, -0.36958803947656271)	1.0	slash	0.531528
1	N	A	N	A	B	M	B	M	A	8	2	shapes	N	3	False	76	(-5.7866855707796763, -5.2772776199817528)	(4.8900605319126811, -7.3982147271730287)	(-6.2445916126872421, 5.0437014503630095)	(-0.86543861171239733, 1.5742541074402663)	1.0	slash	0.801174
2	N	A	M	M	B	N	B	A	B	8	6	shapes	B	3	True	76	(-4.0565407561285252, 0.99080731199556205)	(5.1856918377133709, -6.2955395572018329)	(2.9162354335090033, 6.9136424209592846)	(-0.28816885444454243, -6.7827678543067123)	1.0	z	1.16679
3	N	A	B	M					A	4	0	shapes	N	3	False	76	(-6.1107419934682001, 5.2209774890000009)	(-6.6539712598040133, -0.76993466030034607)	(6.9658524477878956, 1.7128891028460576)	(3.2229514741875018, -0.12332757820455598)	1.0	slash	0.576342
4	N	A	A	M	B	B	M	N	B	8	4	shapes	B	3	True	76	(6.4792496729246043, -4.4976791805132113)	(-0.20176456930833098, 2.3066936923111445)	(8.0483781424640739, 7.2399686654330946)	(-4.9881533170228147, -8.4767018732767117)	1.0	z	0.954165
5	M	B	N	B	M	A	N	A	N	8	6	shapes	N	3	True	76	(5.24839595175618, 6.4038345165703703)	(4.0546676176313241, -1.436500525910712)	(1.5609506101389314, 8.6940154292948186)	(-2.7702399258728674, -3.4999013653920805)	1.0	z	0.583689
6	M	B	A	A					B	4	1	shapes	B	3	True	76	(-2.2006652558403887, 6.4009774363591898)	(7.0291374545490228, 7.3278246316105431)	(-8.4238402374326586, -8.1788961568601728)	(4.5945033944326426, -3.5995530711993799)	1.0	z	0.797386
7	M	A	A	N	M	N	B	B	A	8	7	shapes	B	3	False	76	(-3.6583226362112855, -2.5969706472761489)	(2.2618172858798715, -7.4304855818164404)	(-4.7461283992276666, 7.5830241959405136)	(-8.2681178522809944, 1.7149023293542491)	1.0	z	0.84307
8	M	B	B	N	M	N	A	A	B	8	0	shapes	M	3	False	76	(8.5304821325189479, -6.7247183305459881)	(7.9476662250849373, 6.965496217373472)	(-5.5208777366394832, -8.4659245646918677)	(4.035705106032319, 0.5638741119226367)	1.0	slash	0.990701
9	M	A	N	B					N	4	1	shapes	A	3	False	76	(-0.83437463816469215, -3.8395379704597117)	(3.1686098093249804, -4.3014739789311891)	(-2.1228962335985049, 4.7227775734800499)	(4.786861470674376, 0.080233009557272084)	1.0	slash	0.698552
10	M	A	N	M					M	4	3	shapes	M	3	True	76	(-6.6682296260355667, -4.1633159165779094)	(3.8066342659735124, 4.0425143359604352)	(8.0593897466680389, -1.2265364001711676)	(-3.9267240949066142, 2.3409694491307782)	1.0	z	0.67999
11	M	A	A	M	N	B	N	B	A	8	2	shapes	A	3	True	76	(-5.2793607605700696, 2.0121671297825987)	(4.9360345716227325, -3.4482201906499323)	(-0.20528378347920473, 8.0655956183937079)	(-6.4505931019500169, -5.7910632353011158)	1.0	z	0.80573
12	M	A	A	M					N	4	3	shapes	M	3	False	76	(-0.18124150273317596, -0.0094647335317201708)	(-0.61921393083929388, 5.1835077646628811)	(4.8978113204774107, -2.7970027015962051)	(7.178997047411924, 7.0274171663905971)	1.0	z	0.807333
13	M	B	A	B					B	4	1	shapes	B	3	True	76	(-7.2798184967291704, -6.1719402116434114)	(-3.7170994709286651, 1.0571390109163943)	(7.2519789369386167, 1.9868650624528996)	(5.4407586983040108, -2.030742491474463)	1.0	z	0.576987
14	M	B	N	B					M	4	3	shapes	B	3	False	76	(-8.1930965071155892, 2.4109795208866931)	(-1.8033995218453613, -8.5411505012801303)	(3.8187154417167992, -3.4351578950663688)	(8.385012057059587, 4.2177977192331575)	1.0	slash	0.812555
15	M	A	M	B	A	N	N	B	A	8	1	shapes	A	3	True	76	(-1.9364231374931276, 3.8368000154452098)	(-8.6849039170396534, 3.3955386737603099)	(2.9899977395907271, -5.4843307905781593)	(-0.87775977745477984, -7.452889517308174)	1.0	z	0.848287
16	M	B	A	B					B	4	0	shapes	M	3	False	76	(3.0415536840351045, 2.7655725487899598)	(-4.0032113098062734, 8.2691062586349204)	(-0.52672629694125206, -5.0589063766931019)	(3.0715251600629312, -2.2363176970237246)	1.0	slash	0.847413
17	N	B	B	A	M	A	M	N	N	8	0	shapes	N	3	True	76	(-1.7128398236047353, -7.8003058651456794)	(-5.3229097085984165, 5.4399193063834392)	(1.0551076463572073, -4.2987057547328948)	(3.8730945678122968, 3.6630967726565693)	1.0	z	0.747595
18	M	A	M	B					A	4	1	shapes	A	3	True	76	(5.2460668031509456, -2.2590034089826609)	(-3.3905965650756018, 4.933057678673137)	(-4.0211861674301641, -3.2733802216446666)	(8.2757242083693754, 1.0138882012965684)	1.0	z	1.02531
19	M	B	M	A					B	4	1	shapes	B	3	True	76	(-0.59340275867890568, -0.72166169900310351)	(1.2344045555542156, -8.3732531763308558)	(5.6153165299773029, 3.2168235760001664)	(-1.5656484140627942, 5.2357977004439071)	1.0	z	0.96708
20	M	A	A	N					N	4	3	shapes	N	3	True	76	(-8.4638955704145289, 3.2457066020582985)	(0.022658613837451824, 5.4633664926902821)	(4.7887119705519279, -3.2054114105654623)	(-0.13838169843449322, -7.7414773796910996)	1.0	z	0.448631
21	N	B	N	M	M	A	B	A	N	8	2	shapes	N	3	True	76	(4.5586112676457731, -0.10010676014575104)	(-7.6858704619725282, -3.0020664198705251)	(-8.3546849446670226, 3.4848083232163471)	(1.8193165920414689, 8.0007575170376128)	1.0	z	0.740089
22	N	A	B	B					B	4	2	shapes	B	3	True	76	(0.6192633442868587, 3.4404604343902747)	(2.9879426331492098, -4.2797581658377917)	(-8.6126533287999845, -4.3624287378178108)	(-5.764922154737425, 4.1206359739117175)	1.0	z	0.522035
23	M	A	B	A					A	4	0	shapes	M	3	False	76	(8.270128603967926, -0.63100291344784054)	(6.941636562843895, 3.990574262911684)	(-1.2982313572201516, 4.6442550887495671)	(-0.32625229813131895, -4.3818884821224167)	1.0	slash	0.611598
24	N	B	M	M	B	N	A	A	B	8	4	shapes	B	3	True	76	(-2.6126493686764585, -5.0668766581230882)	(8.6110908602214522, -6.2401065264944044)	(5.6101486686832018, -2.5983865014354448)	(-6.1911707704603582, -2.060205190736653)	1.0	z	0.903258
25	N	B	B	N					A	4	1	shapes	B	3	False	76	(8.5950779628342602, 4.5366622507369971)	(-2.0012507966151922, 5.8572550178192877)	(6.6124138867491133, -5.9538135589416896)	(-2.8922851387708164, -8.2249050319920247)	1.0	slash	0.612838
26	N	B	N	B	M	A	M	A	N	8	5	shapes	A	3	False	76	(-2.9645434824524735, 0.47486451035924482)	(1.8700958788164286, 0.76548403348408378)	(7.4113067258767948, -2.6195539313160996)	(-3.9960513532283271, 5.9610177603075858)	1.0	slash	0.646491
27	N	A	M	N	A	B	B	M	M	8	4	shapes	A	3	False	76	(-8.1951817630644648, 6.472363396431529)	(-2.46731087221018, 5.4930213631160321)	(8.0489658815841842, 4.6861480514309406)	(0.36984013446815034, -1.8907047836693778)	1.0	slash	0.602283
28	M	A	A	B					N	4	2	shapes	A	3	False	76	(-4.0778832112956316, -6.8298793741038688)	(4.3869585708408536, 2.5181508064590581)	(5.6058869846470962, -6.1653004878285067)	(-6.2380601357393513, 8.2601532365387165)	1.0	slash	0.603892
29	M	A	B	M					M	4	3	shapes	M	3	True	76	(-7.5613686358952048, 7.9265646487144856)	(7.6286746641537846, -2.5508198434776101)	(-0.80926806791124317, -8.536871017115109)	(5.6758700977668646, 6.911205891848228)	1.0	z	0.701722
30	N	A	N	B	M	M	A	B	B	8	0	shapes	N	3	False	76	(-5.0963147409755019, 2.4186562093614548)	(3.6477967869073549, -3.2006395154137737)	(-8.2844071305999023, -7.9050239674445839)	(2.87373643965471, 7.0115685682864441)	1.0	slash	0.983205
31	M	A	A	B	N	N	M	B	N	8	1	shapes	A	3	False	76	(-0.68921923717455869, 4.1481261763430233)	(-5.9593101494373801, -7.4088983175848924)	(-5.5476395529977154, 6.9107689884424861)	(2.2736621381487634, -5.3617078983159558)	1.0	slash	0.695168
32	M	A	B	M	B	A	N	N	A	8	6	shapes	N	3	False	76	(-5.6709621188654511, 0.92491274146932767)	(8.0781596847155335, 4.5528010325825399)	(2.7853217432147233, 4.726584368553306)	(3.8545582766122664, -4.1079188917333784)	1.0	slash	0.660741
1	N	B	M	N	B	M	A	A	A	8	6	shapes	A	4	True	76	(3.4188501387702619, -0.95189651896806282)	(-4.007816483128372, 7.8006883986502338)	(-3.2233224474246942, -3.4524152180253145)	(-6.0196851436456029, -7.5125638093447051)	1.0	z	0.64625
2	M	B	B	M					B	4	3	shapes	M	4	False	76	(-8.1838562109425759, 0.17337709802900569)	(-5.5409640779916405, -4.8462310922096474)	(7.6535443230518005, -1.7023162432028833)	(4.8015623773709457, 6.9879039480597154)	1.0	slash	0.711936
3	M	A	B	A	M	N	N	B	B	8	2	shapes	B	4	True	76	(4.0685440343602757, 7.4001877996460266)	(-4.536300320713786, -5.0835797810962724)	(-5.5717973268229626, -0.18786562105726823)	(-4.2641552781842726, 4.0933833455193298)	1.0	z	1.05348
4	N	B	A	N	B	A	M	M	A	8	0	shapes	N	4	False	76	(5.0679004745831957, -2.9094292480861679)	(-1.2426597348558355, -3.7296009579932496)	(-0.42481675356889959, 5.7754445240643157)	(-3.3458688258630831, -8.565004121133855)	1.0	slash	0.703172
5	M	A	B	B					A	4	2	shapes	B	4	False	76	(0.82497712862463324, -0.99487658007438018)	(4.4167894780458123, 8.1555863549194143)	(-5.8884351584233201, 6.4762103033410039)	(-3.3201548791915148, -3.697540005240409)	1.0	slash	0.732813
6	N	A	M	B					A	4	1	shapes	A	4	True	76	(3.2245509712631009, -2.6089520719993446)	(-4.8265147247334701, 1.299794869838367)	(-8.3823950520317005, -7.2470975184732849)	(8.5800852442700766, 4.0107007133046348)	1.0	z	0.604521
7	M	B	B	M					M	4	3	shapes	M	4	True	76	(-3.3491916465353633, 5.5922197916090983)	(5.8068314897063651, -1.1493630890722999)	(-7.4998190808340972, -7.2452494196041881)	(6.5843474048577857, 4.2770844259275265)	1.0	z	0.798196
8	M	B	N	N	B	M	A	A	A	8	3	shapes	N	4	False	76	(3.8313012367088657, -4.6345865846253229)	(-6.4045533445673364, 3.6183289516686479)	(2.4915078822196222, 2.0897371297989817)	(-8.4397094850101286, -0.014055141968290386)	1.0	slash	0.883839
9	M	A	A	M					M	4	1	shapes	A	4	False	76	(-0.72865359218452852, -6.8053294308556493)	(-5.7900852617455314, 6.5867192985779379)	(4.6326403112536774, 8.4728866848811499)	(8.5027667411833683, -7.3234454918789567)	1.0	slash	0.701526
10	M	B	B	M					N	4	2	shapes	B	4	False	76	(-8.3558757780439592, -3.267528532214194)	(7.0844681516267443, 0.26548923448650896)	(-4.1729599583510719, 5.8189168943406546)	(6.2794031448362357, -3.9481659202105845)	1.0	slash	0.571214
11	M	A	N	M					N	4	2	shapes	N	4	True	76	(8.3484781136463688, -1.8244133831406568)	(-2.9169799041964737, -6.0256747709878846)	(-8.4228084429703998, 1.5649004341924027)	(4.4641651280999728, 4.5815196796057887)	1.0	z	0.554818
12	M	A	B	M	N	N	B	A	A	8	1	shapes	A	4	True	76	(-4.6236172085078486, 0.60301519897081057)	(4.0740998595970463, 3.9350197501678785)	(2.190603810305582, -4.0455051450263113)	(8.3897791340895012, 2.6200259459432278)	1.0	z	1.08859
13	N	A	A	M	B	N	B	M	A	8	1	shapes	A	4	True	76	(-1.9671895366728283, -0.2880470936842805)	(3.7979869334116376, -8.7247948306910139)	(1.8881669367047458, 2.5142393936025424)	(-2.5777879594877913, 8.6650484890791581)	1.0	z	1.04407
14	M	A	M	A	B	B	N	N	M	8	2	shapes	M	4	True	76	(5.4434314649892865, -6.9972075101563611)	(-5.5333909605854084, -4.702128643788213)	(6.4479013748879552, 5.869685257189122)	(2.6024680855795665, 2.0042281910169208)	1.0	z	1.10371
15	N	A	A	N	B	M	B	M	A	8	1	shapes	A	4	True	76	(-1.2858202864066097, -3.2283276233091778)	(8.0450405144713208, -1.0970841548665842)	(6.8644435218970283, 6.5053738178373663)	(8.5876045169686215, -7.8437756617304091)	1.0	slash	1.03942
16	N	B	N	B	M	M	A	A	M	8	4	shapes	M	4	True	76	(-6.6054185074680811, -2.0615984067821431)	(5.0302743127181984, -1.7312663884476853)	(-2.9196500359857405, -3.8310342455648101)	(8.3196015039914819, -5.3696300279625513)	1.0	z	0.694134
17	N	A	M	N	A	M	B	B	A	8	0	shapes	N	4	False	76	(-0.12442666443803496, 2.5772796121108126)	(0.39381126448512127, -6.5805021094811682)	(-3.9342067770691074, -4.8889597785625902)	(6.6082755990347586, 6.7694445569202486)	1.0	slash	0.790674
18	N	A	M	A					M	4	0	shapes	N	4	False	76	(4.2566479748341912, 3.5139714955033128)	(7.2118585176201684, -4.0341412106436119)	(-4.002304989258481, -0.08699970910235244)	(-8.1877983250675506, 7.0196720827256271)	1.0	slash	1.44241
19	N	B	N	A	B	M	A	M	M	8	4	shapes	B	4	False	76	(-4.5998602454530895, -2.054437871916285)	(5.8553344076242109, 2.5528983268697605)	(-7.6734267755422669, -6.6491227633374477)	(-1.422402104432317, 2.5333966700790036)	1.0	slash	0.821861
20	M	A	N	B					A	4	1	shapes	A	4	True	76	(0.10148826065378458, 5.5434996949367221)	(-6.791701845185429, -5.6643839759149568)	(7.8851915234526224, -6.3483728916166946)	(-6.3750299609021894, 2.8259348640511703)	1.0	z	0.771457
21	M	A	A	B					N	4	3	shapes	B	4	False	76	(5.9517258050180271, -1.5002091244943205)	(1.5094704600289699, 8.3396402541794536)	(-7.3895335177793431, 2.4455918185035284)	(-3.2706675771144855, -7.5786226615553272)	1.0	z	0.875195
22	N	B	N	B	A	M	A	M	M	8	7	shapes	M	4	True	76	(2.4543572330406516, -0.14621126368251325)	(0.82339495555844522, 3.659044738086811)	(7.3397155676200398, 0.82492784955026544)	(-5.3039264768958621, 0.68413059108328511)	1.0	z	0.736815
23	M	A	B	A					N	4	1	shapes	A	4	False	76	(2.1597633371794647, -8.0068870949596231)	(1.9302031259085979, 8.5791246703944815)	(-2.6599830981366051, -2.4130047673993706)	(-2.1729083938452671, 5.7170502667663268)	1.0	slash	0.592487
24	M	B	A	B	N	N	M	A	B	8	2	shapes	A	4	False	76	(-2.7628260527733186, 7.1517883755686462)	(3.7514811235304784, -2.7948348601872723)	(-0.62654364717481137, 0.29338235517934841)	(-6.2961732283800913, -7.813060628482777)	1.0	z	0.71018
25	N	A	B	M					B	4	3	shapes	M	4	False	76	(2.3041636455796102, -2.2925496530688818)	(-3.5891647000416649, 3.4673407509878427)	(-2.9238515016877908, -4.3831457638422968)	(2.4895534916747213, 7.8818880056823808)	1.0	slash	0.561756
26	M	A	A	N					A	4	1	shapes	A	4	True	76	(7.3854950835333106, -7.3154809421005718)	(-0.019005021417164869, 2.0287320646670324)	(5.7750558259039124, 2.0844223976848877)	(-2.7299234398954102, -6.3190797072121274)	1.0	z	1.89337
27	M	B	M	A	B	N	N	A	A	8	1	shapes	B	4	False	76	(-2.9028856008304382, -0.94193079780099964)	(-4.1616218599494559, -5.0817571078260837)	(-1.2972633142061794, 4.6776879141745145)	(6.7489390719854452, -1.6218103979304299)	1.0	z	0.807147
28	M	A	N	B					N	4	2	shapes	N	4	True	76	(-5.2124172885787621, 5.3213320311379881)	(0.13932685601827366, 3.707355745571812)	(-6.5322362290897473, -8.2266452280457223)	(7.9114950915373328, -7.7477101796819436)	1.0	z	0.56077
29	M	A	N	A					N	4	2	shapes	N	4	True	76	(-7.3291231165396074, 0.43978954955526994)	(1.1076827568145067, 1.2511654860787456)	(-3.9497367514331607, -6.1483425151577071)	(3.4410918129580512, -6.52030659910164)	1.0	z	0.602366
30	M	B	B	A	M	A	N	N	B	8	0	shapes	M	4	False	76	(2.394771248260561, 8.2630002080811451)	(-2.2421168821051269, -2.1910967025897499)	(-7.3751081854487914, 3.2164530316699658)	(-4.0962741898741388, -7.3661172662376142)	1.0	slash	0.790056
31	N	B	N	B	M	A	A	M	N	8	4	shapes	M	4	False	76	(-4.9370105712236487, 6.1717120157899465)	(-7.8421490075754914, -8.1569546581204424)	(-7.0744099229287354, 1.5419796550119376)	(1.2395157211184795, -3.2114792896420905)	1.0	slash	0.642594
32	N	A	B	M					M	4	3	shapes	M	4	True	76	(-6.7053277990295239, -7.0988131704772286)	(2.7248686084943952, 7.2702360108752977)	(2.0635208127978846, -6.3171453248709737)	(-2.7998238828746089, 7.5463264018355893)	1.0	z	0.917358
1	N	B	B	A					A	4	3	shapes	A	5	True	76	(5.718567181952718, 7.7841187046138742)	(2.2334158019572286, -8.1909699027983294)	(-4.6998724544150052, 6.4997025119952987)	(-3.2589678339638741, -7.1886388668146362)	1.0	z	0.720931
2	N	A	A	N	B	M	M	B	A	8	5	shapes	M	5	False	76	(5.5150518980665737, -0.50692665826782068)	(-4.9966229711582493, -7.2530160585314363)	(5.3453830071204642, -7.9320223743250402)	(3.453771158486493, 8.0352918169283321)	1.0	slash	0.622745
3	M	B	B	M					A	4	0	shapes	M	5	False	76	(2.3662952583671597, 4.9186561599580809)	(-7.7037220264153969, 4.7196340325421087)	(8.1335100538412988, -1.6032425561593264)	(-5.5418119565567228, -2.9912667817542129)	1.0	slash	0.700306
4	N	A	B	A	B	M	M	N	N	8	7	shapes	N	5	True	76	(8.5587995112963, 1.8538418893252722)	(-4.1008074189749966, -7.4161026264941796)	(0.44158375074998801, 4.9124685119980764)	(1.6221028624844305, -2.1717404209200026)	1.0	slash	1.58198
5	M	A	B	A	B	N	M	N	N	8	5	shapes	N	5	True	76	(5.7385764585981196, 3.2966468603188801)	(8.7353288393107071, -3.7408708108096498)	(-1.7425981315957095, 5.5567257954921825)	(-5.7270798249127415, -6.870419530758932)	1.0	z	1.47965
6	M	B	M	A					M	4	3	shapes	A	5	False	76	(-4.1598881677828956, 2.4229116940062543)	(7.3755855212619537, 3.7962119713256097)	(0.48333123578404802, -6.4597471167008189)	(-2.699118474136684, -2.541002735065228)	1.0	slash	0.665212
7	M	A	N	A					B	4	2	shapes	N	5	False	76	(4.9559716483206415, -4.1910913022739384)	(-3.0730194370034098, -5.9333448715320385)	(-0.12314728756357773, 5.8889061286964175)	(8.4920211740495297, 2.6973892509316535)	1.0	slash	0.614854
8	N	B	A	B	M	M	A	N	A	8	6	shapes	A	5	True	76	(-6.2064291189967351, -0.8721449685410656)	(-8.3301967934591357, -7.0934617828037387)	(-1.2981227430327573, 2.7803431998670298)	(6.3832445553142669, -2.1596084320735285)	1.0	z	1.17656
9	N	B	N	M					B	4	3	shapes	M	5	False	76	(0.098339787362505149, -3.6202604250355686)	(-3.9941157584686877, 8.457929199708591)	(0.98387264125936369, 3.7388895857428928)	(-6.757637876769067, -5.2023321074818227)	1.0	slash	0.608274
10	N	A	A	B	B	M	N	M	N	8	1	shapes	A	5	False	76	(2.8680536687229292, 1.7421222949329085)	(6.4737428036196079, 7.9309065940194579)	(-3.9981305137808842, 8.4027977961719955)	(-8.7348779140267059, 0.23685716863218964)	1.0	slash	0.627818
11	M	A	N	B	N	M	A	B	A	8	5	shapes	M	5	False	76	(3.2497134559264982, -5.9293244077163383)	(-7.9783019188876132, 8.2898105146170806)	(-1.1623660759423275, 5.9476000547578707)	(5.8347106265230497, 0.2539391965572495)	1.0	slash	0.765533
12	M	B	B	M					A	4	0	shapes	M	5	False	76	(-4.7109555826649734, -4.8018679868198788)	(0.98330115003173191, -2.1764500342509887)	(-7.2890897764118616, 1.1404396969498425)	(0.23871939294833666, 8.4794557738269098)	1.0	slash	1.53513
13	N	A	B	B	M	N	A	M	A	8	6	shapes	A	5	True	76	(1.7466299210827838, 4.4102268743559456)	(8.4426308370987115, -0.35185876175772002)	(1.4283841643825141, -3.8768230633845988)	(-3.8245484725577663, -6.8177408495064471)	1.0	z	0.728838
14	M	B	B	A	N	A	N	M	N	8	0	shapes	M	5	False	76	(4.8058452147767419, -0.72503185850033347)	(0.42004417336606537, 7.3125578468683763)	(5.5533302364330765, 3.5627225055495302)	(-2.7456801714590648, -2.2669198844897531)	1.0	slash	0.63646
15	M	B	B	N					B	4	1	shapes	B	5	True	76	(4.5214655166593705, 3.440062716597069)	(2.1392849538052374, -0.98765463137309428)	(-8.0926789085449489, 0.41374869949735604)	(-4.2994112311999269, -2.8414181356922503)	1.0	z	0.794021
16	M	B	A	A					B	4	0	shapes	M	5	False	76	(1.5269679863548884, 2.9897848244834471)	(2.0332612512478025, -5.7962702828136416)	(-6.6740022961307215, -0.69277291668270458)	(-0.26648675726077009, 7.6036703506890397)	1.0	slash	0.637578
17	M	B	N	M	N	A	B	A	N	8	6	shapes	B	5	False	76	(4.1767349950540051, 8.3378445023817989)	(0.1224488196522433, -1.2960679698218662)	(8.1666002822016281, 4.6387575252051008)	(-2.1396998132346363, 6.0503561956920837)	1.0	slash	0.619504
18	N	B	B	N	A	M	A	M	B	8	4	shapes	A	5	False	76	(5.9107673719452887, 3.501777048593171)	(0.26795194684655854, 7.2842224177427504)	(8.5606303637031438, -3.8749627138182712)	(-6.5298369487788133, 1.7338488866800716)	1.0	z	1.03696
19	N	A	N	B					N	4	1	shapes	A	5	False	76	(0.99501098666849863, -6.5183286122347504)	(-8.0463421725645148, -3.4882273758040565)	(7.1760590804424691, 6.4652642659234019)	(-0.23377040961944218, 3.6018763232924833)	1.0	slash	0.632719
20	N	B	N	B					N	4	0	shapes	N	5	True	76	(-6.9593159562339073, 7.5160885167018314)	(8.6148939366996373, -0.75350156763101062)	(-5.5758687158392224, -8.1194239217961552)	(1.7899978599992306, 4.3915493129615122)	1.0	z	0.508267
21	M	B	A	B	A	M	N	N	N	8	5	shapes	M	5	False	76	(4.540918391871763, 0.82525506781359503)	(-0.85487468306025782, 3.9947629214533755)	(-5.9549102661498825, -4.2289356069379798)	(8.2152289919340333, -1.9081871269144353)	1.0	z	1.01207
22	N	B	A	N	A	M	M	B	M	8	6	shapes	M	5	True	76	(7.1241212118585899, 5.6624062692609538)	(3.4610401280035745, 8.1938738666611073)	(-2.6092871844974024, 7.6741506061396016)	(-8.0670715364423327, 3.2362689642798887)	1.0	z	0.709685
23	N	A	M	N					N	4	3	shapes	N	5	True	76	(7.3005892682102456, -6.1675015455996247)	(-2.1029282917016427, 0.83509179563085034)	(-4.5555026639534946, -5.6032000782227831)	(0.55527835859672159, 6.9593332721640184)	1.0	z	0.665187
24	N	B	B	A	N	A	M	M	N	8	0	shapes	N	5	True	76	(0.062037642356063571, 4.9491512564199471)	(5.8537856209464394, 6.2698580224976546)	(3.411673696358628, -4.0753653303045558)	(-5.3563195399775339, -7.7394089630744221)	1.0	slash	1.00905
25	N	A	M	M	A	N	B	B	A	8	4	shapes	A	5	True	76	(-7.2680884924369771, 0.46347236531241975)	(-0.60491265907939606, 6.8297457193384687)	(2.4405298094329311, -0.900050046772364)	(7.0427267608122062, 7.4802735091279118)	1.0	z	0.54863
26	N	A	A	N	M	B	B	M	B	8	5	shapes	B	5	True	76	(3.7638118736521537, -3.9382330574780973)	(-7.4616503355566888, -5.8187767346397266)	(0.17088755089462992, 3.7162411376757873)	(-8.0017535979261343, -0.011062965207560893)	1.0	slash	0.716294
27	N	A	A	N	M	M	B	B	A	8	6	shapes	B	5	False	76	(3.1387081100792624, 2.838757803893639)	(-1.7339688279478453, 6.8047563107717011)	(-8.5455143778474341, -5.6830029151633434)	(-3.5415636203588212, -8.6170630580686112)	1.0	slash	0.769906
28	M	B	M	A					B	4	0	shapes	M	5	False	76	(2.9885289153711057, 0.88597561596701091)	(-5.7523435846492035, -0.52771358564525528)	(4.7279125350316242, -6.3613167313024856)	(-5.4856965282883898, 7.9844489964855505)	1.0	slash	8.6848
29	N	B	M	N					M	4	2	shapes	M	5	True	76	(3.4642298064207928, 0.24596914655420576)	(-2.1866939309666504, 5.1799252250894572)	(3.8025712641012728, -4.1418734534994064)	(-7.315022284251806, -7.1799198905716475)	1.0	z	24.258
30	M	A	M	B					B	4	3	shapes	B	5	True	76	(-0.79486928002172874, 3.3868801605839707)	(-3.3143602823295568, -8.710918531380182)	(7.3881556046966885, 3.7440287454249876)	(4.4883618086671824, -6.4429458767023009)	1.0	z	0.648422
31	N	A	M	B					M	4	2	shapes	M	5	True	76	(8.0468281248001432, 2.254382833420614)	(5.9170381588095999, -8.2176459222704032)	(-4.2704149009634724, -4.9976720938276369)	(-3.7943318862542101, 1.7473684319161897)	1.0	slash	0.656249
32	N	B	N	M					N	4	0	shapes	N	5	True	76	(-1.6161907127197193, 0.44321648189086105)	(2.0758614265073199, 7.1622367138523924)	(5.8050410886011523, -0.50100874311909571)	(-8.3729786373446871, -8.6211416515207464)	1.0	z	0.599814
1	M	A	M	B	B	N	N	A	B	8	5	shapes	N	6	False	76	(-2.0367266303074114, 5.623921239935342)	(4.8285808424336203, -4.6917116937609453)	(-0.061795344445254585, -4.0623227514336886)	(-3.2514476815375524, -6.5939829707950111)	1.0	slash	0.64154
2	M	A	N	N	A	M	B	B	M	8	0	shapes	M	6	True	76	(4.4840245700099466, -3.5317345353644782)	(-1.8320874067457131, -3.7720598311851958)	(-3.9559756879318195, 1.9459437805489248)	(-7.0439153516236814, 5.0237575364584295)	1.0	z	0.80715
3	M	B	B	N					A	4	0	shapes	M	6	False	76	(4.300326184898589, 1.1802322089976851)	(-5.7196449447744255, -0.92312436647810525)	(4.3546319378927585, -3.081649778578079)	(-0.15540671038099774, 1.3542608452609635)	1.0	slash	0.648657
4	N	B	A	N					B	4	0	shapes	N	6	False	76	(3.115243533493631, 0.43178301448420697)	(-2.7943853470732014, 2.3720670998411855)	(-6.1637859176685783, -0.25984810025123473)	(3.1179837071570091, -6.2458515239430437)	1.0	slash	0.696416
5	N	B	B	M					B	4	1	shapes	B	6	True	76	(6.5417016495324596, 1.1963225576797569)	(-2.6854153246568728, -0.63132538850743458)	(0.28412222907686058, -7.8016083946346058)	(-4.778333386792621, 5.869840690272083)	1.0	z	0.448163
6	M	B	B	N	M	N	A	A	N	8	4	shapes	M	6	False	76	(-0.79184666074977095, 7.0583422559360276)	(-4.581522706043347, 1.5866124307322025)	(-5.617665023401532, -2.5078952260257408)	(2.031186026813117, 2.8005651728029797)	1.0	z	0.939831
7	N	A	M	B					N	4	3	shapes	B	6	False	76	(-0.35924992535614209, 5.3605546523116256)	(-2.9893468614553793, -7.4740061889631111)	(5.1352430767903439, 3.998201701445975)	(7.8211272921814867, -6.5515269622779009)	1.0	z	0.747397
8	M	B	M	B					B	4	2	shapes	M	6	False	76	(0.62980916177171231, 1.0223164225731853)	(7.7712563608204306, -4.485263702183226)	(-2.3295260189773659, 7.554317174402609)	(-4.677126695915506, -3.4502489184917593)	1.0	slash	3.65695
9	M	B	B	M	N	N	A	A	N	8	4	shapes	N	6	True	76	(-1.6282230466731669, 7.8625869443886351)	(-1.4153158351249724, -5.1447907296926711)	(3.4656317883206089, -1.5955254976991284)	(-8.6331947838753802, -5.6257116008358565)	1.0	z	0.786591
10	M	B	B	N					M	4	0	shapes	M	6	True	76	(-4.2647874693534025, -1.3127385159815956)	(0.8430178978534677, -5.9566369674390831)	(5.604406483741629, 7.9996113069091521)	(-4.2299473995915999, 6.0863045415159025)	1.0	z	0.888094
11	M	A	B	M					B	4	2	shapes	B	6	True	76	(-1.7584944310510053, 0.10896002509801228)	(-3.450605018092384, -7.4714271676459401)	(3.3469433705860006, -0.4961699256382861)	(6.0211737553165801, 7.0277043631589784)	1.0	z	0.703912
12	M	A	N	N	B	B	M	A	A	8	7	shapes	A	6	True	76	(-4.0492936886944157, 5.8012842122140906)	(-7.1331810868976468, 3.037321025720324)	(-5.4466731224639151, -3.9151921671903329)	(8.6824578995806476, -3.3297212893871375)	1.0	z	0.616099
13	M	A	A	M	B	N	N	B	B	8	4	shapes	B	6	True	76	(-5.4262964764754784, 1.2389240542677626)	(-4.8568334995542655, -8.1939649891971502)	(4.0059770116276745, -4.1238487173115361)	(-7.2155389083998953, -4.5798892868976715)	1.0	z	1.03317
14	M	B	B	M	N	N	A	A	A	8	3	shapes	M	6	False	76	(7.0905981748895943, -5.0462465870736324)	(-1.7699614356919415, 1.7588974632046082)	(-6.0618543001139731, 6.6550638112371985)	(-8.455738460979072, -8.5033132183673796)	1.0	slash	1.39872
15	N	B	B	N					N	4	0	shapes	N	6	True	76	(-0.47857965110560841, -2.1759956422097204)	(-4.9021242982911888, 4.3204912573589738)	(4.3515368281224998, 7.7400830812887875)	(1.4323535984127744, -6.5065113704369235)	1.0	z	0.872413
16	M	A	N	B					M	4	0	shapes	M	6	True	76	(-3.0867755907322554, 1.6294541713072022)	(7.2747429442406499, 2.9785162860023924)	(0.063424297003747299, -7.8484873711359038)	(-6.9009253215030837, -8.0775604757947956)	1.0	z	0.444203
17	M	A	A	N	N	M	B	B	M	8	5	shapes	M	6	True	76	(5.9977928636102327, -2.1036183730356663)	(-7.0916463670408616, 2.9704415261915162)	(7.5006515077182279, 3.5462547288083499)	(-2.9525667945188205, -8.2823444355849034)	1.0	z	0.903614
18	M	B	M	A					M	4	3	shapes	A	6	False	76	(-7.0056929580256053, 5.6854518758802186)	(8.3452559222314093, 7.4131227259156027)	(0.21824559478519134, -3.9074675510888248)	(-2.3182286872575419, -7.930041535746529)	1.0	slash	0.581352
19	N	A	M	N	B	B	M	A	A	8	1	shapes	A	6	True	76	(1.0632335126951613, -4.4380966399206452)	(-6.4714092526025766, 7.4550979175550331)	(-2.0643670901977362, -0.65178483545818722)	(-0.59146181659874308, 5.2582577467828067)	1.0	z	0.945005
20	M	B	M	N	A	N	A	B	A	8	5	shapes	N	6	False	76	(-7.2019267493120118, -6.2026275548865799)	(3.0389681932648784, -8.3390109358721318)	(-0.42093164116255899, 0.84622838344405871)	(-6.032483904301154, 2.2641811784844439)	1.0	z	0.672849
21	M	A	N	A	M	B	N	B	B	8	0	shapes	M	6	False	76	(-6.0482338924000558, -0.21214054673993665)	(4.5790241738573876, -5.6796435559402934)	(0.93974110641028297, 7.2204112708496169)	(0.92925968736636833, -2.2901674977519297)	1.0	slash	0.694327
22	N	B	M	A					B	4	1	shapes	B	6	True	76	(-6.4826226495117201, -4.0887604911872906)	(-6.9258843920558659, 5.0667029773059493)	(1.1896809197479161, 7.3519939308493072)	(4.8129118074535384, -1.3535199830925579)	1.0	z	0.585124
23	M	A	N	B					A	4	1	shapes	A	6	True	76	(-1.5320499624891255, 1.532245512355555)	(-2.9187961721019526, -4.2226663521456214)	(8.3445757613880147, -3.4622412070507043)	(7.3039711743184554, 5.27910836897526)	1.0	z	0.786046
24	N	B	N	B	M	M	A	A	M	8	6	shapes	A	6	False	76	(7.5811905022979609, 6.1997986179219247)	(0.37713405089237817, 4.8331867795894006)	(-7.6906629969069478, -3.2545900899068858)	(-0.30349751868660491, -2.5829868766003052)	1.0	slash	0.619263
25	M	A	N	B	M	A	B	N	B	8	2	shapes	N	6	False	76	(8.5101873648726389, -7.5950435323616814)	(8.167445716111029, -2.5352910234542874)	(-1.1910114140380301, 8.7458377320978791)	(-6.4520418813781788, 5.1258639593611832)	1.0	slash	0.71696
26	M	A	N	M					N	4	3	shapes	M	6	False	76	(-6.5385200310322542, 5.7050212345783464)	(-2.2348384739389022, -0.85932992277641684)	(5.965223339233626, 0.12432757673733086)	(3.8104377021369764, -8.7045598691142558)	1.0	slash	0.696819
27	N	A	B	A	M	M	B	N	A	8	4	shapes	M	6	False	76	(-5.6304502583562801, 3.3952122037147365)	(-0.7020121832676498, -6.5191650743923795)	(-4.9416757023726063, -3.3628106550857391)	(7.2543298411131083, 2.4178234656422788)	1.0	slash	0.658376
28	M	B	M	B	N	N	A	A	N	8	5	shapes	N	6	True	76	(-4.72995951919519, -0.53097636882549892)	(3.1584871624010127, -0.64763860906009896)	(-2.6948389087962372, -8.0130614533097919)	(3.0179621919707067, 4.5425447185628123)	1.0	z	0.875998
29	M	B	A	M	A	N	B	N	M	8	3	shapes	M	6	True	76	(4.0232273345070464, 1.3478440245409491)	(-5.2948043015026283, 3.4925866067558857)	(-0.0082192207706128784, -6.8628382941490607)	(-3.9217649124180758, -3.6088890131115585)	1.0	z	0.561464
30	M	A	M	A					M	4	0	shapes	M	6	True	76	(-5.2895929833988244, -1.5622072338631643)	(-0.64151127472159963, 8.5991409941337515)	(5.8752212829389254, 2.0119231195211267)	(2.8569788282511155, -1.8756548733234286)	1.0	z	0.459304
31	N	B	M	N					B	4	0	shapes	N	6	False	76	(-3.3375904174537716, 4.2090047578205549)	(7.2759303907844242, 0.4826392866827991)	(5.8779493927545197, -3.6817310432280248)	(-7.3610710170027804, -5.9259382189806518)	1.0	slash	0.561011
32	M	A	A	M					M	4	1	shapes	A	6	False	76	(3.4888915346309837, -8.4872072791458333)	(-3.5683163991333133, 0.30937150924217249)	(4.3364744055391906, 3.2382443698847414)	(-3.93356793569862, -5.3612483866079437)	1.0	slash	0.634703
1	M	A	M	N	N	B	A	B	N	8	1	shapes	A	7	False	76	(-1.4683018255070115, -0.028132267621954199)	(-8.3022308843577868, 6.667046655297673)	(-3.0206635281535732, -6.2038891533319767)	(8.5211049390467331, 7.7391570230370306)	1.0	slash	0.84419
2	N	A	B	B	M	A	M	N	M	8	7	shapes	N	7	False	76	(2.8183452262358415, -5.6629282521234963)	(-0.58243695677978558, 8.1178138739134518)	(7.9501497046597862, -4.7176146999896478)	(-6.5342774435250259, -6.4726993560215007)	1.0	slash	0.535858
3	M	B	B	N	M	N	A	A	A	8	4	shapes	M	7	False	76	(-4.7306372963942751, -1.681751244368467)	(-4.9036092828103293, -8.1889699110899361)	(3.846191731670018, -1.802146264335633)	(-3.9464851855120777, 5.0783785396658363)	1.0	slash	0.585624
4	M	B	B	N					N	4	3	shapes	N	7	True	76	(-7.9926834982553396, -6.0348174165926514)	(-1.7003336526553854, 5.0014865072022303)	(8.6663813455848953, 1.7139255029065801)	(2.6052009999537216, -6.8162628441639761)	1.0	slash	0.935313
5	M	A	A	M	B	B	N	N	A	8	1	shapes	A	7	True	76	(-0.50668767905999346, -6.6401754288881687)	(-7.205115278761852, -4.177437087292331)	(3.5096772272358479, 5.8049103715478925)	(-5.4083830478678943, 2.774134054474592)	1.0	z	0.712824
6	N	B	B	A	A	N	M	M	N	8	3	shapes	A	7	False	76	(-2.9581767060252329, -1.7019196632866249)	(3.8145809424276251, -5.3914319997257563)	(3.8199845646143107, 4.7697363827721926)	(-0.58420021115832199, 6.6950292444532753)	1.0	slash	0.822484
7	M	A	N	B	N	B	M	A	M	8	5	shapes	B	7	False	76	(-6.8968648522146658, -2.3311281978462635)	(-2.5520625017255023, -0.8291378989323448)	(1.4425906408682483, 0.3191450540607228)	(0.24900579356466856, -3.7306922386708514)	1.0	z	0.792374
8	M	A	N	N	M	A	B	B	A	8	1	shapes	A	7	True	76	(-0.77854595124686199, -3.5013640908170593)	(-5.7736029225814525, 1.7081030642676325)	(-6.2825757214163325, 7.0633626957575952)	(5.3208876797093687, 8.1011810033851788)	1.0	slash	1.11984
9	M	B	B	A					A	4	0	shapes	M	7	False	76	(2.0860263397965664, -3.0844670445808324)	(-2.9171825906670348, -1.8733421318611425)	(7.7114485712547349, 2.4362056291786249)	(-1.9982171886990008, 3.2832025249459669)	1.0	slash	0.985388
10	N	A	A	N	M	M	B	B	M	8	6	shapes	B	7	False	76	(6.5260068901532868, 4.8980343820855445)	(3.8640489363423534, -6.8578614590357718)	(0.18608167582804747, 2.0963832857462457)	(-3.3771104669687535, 4.8926168902822926)	1.0	slash	0.871193
11	M	A	B	M					B	4	2	shapes	B	7	True	76	(0.73102802792689481, 8.1597510330522987)	(-4.0549907466488673, -6.6199605713673888)	(1.3028334064035825, -4.7933640226967)	(-7.4503455898083013, 4.7143651615027302)	1.0	z	0.730692
12	M	B	M	B	A	N	A	N	M	8	2	shapes	M	7	True	76	(-1.9996585477670381, 3.3566935893548955)	(1.971331568029747, -7.3194764439326949)	(-7.4530002168441483, 6.644475510391004)	(-5.4883721430184167, -8.4042274995202284)	1.0	z	0.870261
13	M	A	N	M					M	4	0	shapes	M	7	True	76	(-1.7490852119786311, -1.855980427384301)	(3.3186389374163916, -2.2653040265801705)	(6.2310580695130273, 5.6439310057670813)	(-7.1503513066041213, 4.6753813573950627)	1.0	z	1.61007
14	M	B	N	A					B	4	3	shapes	A	7	False	76	(5.5232989922106892, 7.6036327493450813)	(3.3265053497839467, -4.977073606099875)	(-8.5518661685807515, 1.5412635968885802)	(-7.6357268387116068, -5.3184453335759816)	1.0	z	0.761702
15	M	B	N	M					N	4	2	shapes	N	7	True	76	(4.2637448928912836, 6.7119269118793703)	(6.9968928918488569, -5.608037330843648)	(-2.3019983520654783, 2.2180006763097868)	(-0.31703950285803906, -2.9558305887143383)	1.0	z	0.45926
16	N	A	B	N					N	4	0	shapes	N	7	True	76	(-3.0091434473229235, -3.8946010796233175)	(3.4496214878192912, 4.097544062891064)	(7.7779483843718893, -3.6934914801851209)	(-5.0498321693114487, 2.2831973708491891)	1.0	z	0.521014
17	N	B	N	B					N	4	0	shapes	N	7	True	76	(-4.5932200001379204, -1.006700013853111)	(-1.878877713700998, 8.1982923068791429)	(4.8633663462003529, -4.5192690288754971)	(3.435095267079566, 1.1167107687396154)	1.0	z	0.570684
18	M	A	A	N					M	4	2	shapes	A	7	False	76	(8.6715463625310072, 8.6629287178064196)	(7.718916798561466, -8.1138053748440022)	(-7.4386572066896957, 1.7639934653419811)	(-4.4832950734634691, -5.0315957876423596)	1.0	slash	0.642358
19	N	A	M	M					M	4	1	shapes	A	7	False	76	(8.4803590039745238, -3.0187949925005011)	(5.4645121475396774, 2.2672264607917292)	(-3.6435827411162585, 4.2490901634654357)	(-0.7187740066177728, -4.6736085904089855)	1.0	slash	0.867922
20	N	B	M	M					N	4	0	shapes	N	7	True	76	(-8.094620397228601, 7.9976860704465338)	(8.498440912325357, 1.2519515575801652)	(-8.4161952961900575, -0.26432592546057876)	(4.2091472820557936, -5.0697201055944223)	1.0	z	0.433764
21	M	A	M	A					N	4	1	shapes	A	7	False	76	(-0.25893550571113799, -3.9634650780488005)	(2.2877612406715571, -7.3424963618186139)	(-1.4605340860657678, 8.5720129299730594)	(8.0628664541435597, 6.0807973250389438)	1.0	slash	0.773431
22	N	A	N	A	M	B	M	B	B	8	7	shapes	B	7	True	76	(-8.3038435730659224, 0.10562082329935407)	(4.9701169701046126, 3.6306821556188229)	(-1.3164852109770111, 4.8078342738259963)	(1.022313001211355, -3.1770996184824316)	1.0	z	0.743085
23	M	B	N	N	B	M	A	A	A	8	6	shapes	A	7	True	76	(-1.0371286991981989, -8.1921433259220464)	(5.6593774490939985, 7.1172750366363982)	(-2.2299409419753742, -0.56949744381444489)	(-6.0926017119912821, 0.78848752323391835)	1.0	z	0.730544
24	N	B	B	M	A	M	A	N	N	8	7	shapes	N	7	True	76	(-5.3427973816135452, 6.1353528729014517)	(8.2405584195658506, 0.80173141623110133)	(-8.3359382116777905, -1.7582303897056777)	(8.295713933559643, 5.7992293894926465)	1.0	z	0.514455
25	M	B	M	N					M	4	2	shapes	M	7	True	76	(8.3562040221077147, -6.5646910411478512)	(-4.7663773945380097, 1.3731044625670794)	(-0.50462898302909309, -3.9556966197820937)	(6.7819160108102192, 7.1029914764088034)	1.0	z	0.470206
26	N	B	B	N					B	4	3	shapes	N	7	False	76	(3.0552686360574253, 4.0024765407412595)	(-3.5655372100551732, 4.9696902516265684)	(2.245647655435226, -5.105983729091939)	(-3.8383623957044861, -4.0972152431322355)	1.0	z	0.38574
27	M	B	M	N	B	A	A	N	A	8	1	shapes	B	7	False	76	(-7.4481349169174962, -2.4574315020118354)	(4.5892597631941072, 4.2463367443932256)	(2.7175622695423964, -1.7569017540961447)	(-1.5530307444757812, -1.4009033814177947)	1.0	z	0.833399
28	M	B	M	A	A	B	N	N	B	8	3	shapes	A	7	False	76	(-4.5171904630247317, -2.3850404827691927)	(-1.0283296877932386, 0.78105262054859814)	(4.6627124115303893, -2.8268800808411898)	(4.6046187783242996, 2.9342191264623843)	1.0	slash	0.64707
29	M	A	B	A					N	4	2	shapes	B	7	False	76	(4.1590778248479356, -2.0259089340159777)	(-2.3326748587482973, 1.6303317896034439)	(3.2168395009848396, 2.169473318815351)	(-4.9203345724707548, -6.7054489725960558)	1.0	slash	0.632631
30	N	B	N	M	A	A	B	M	B	8	6	shapes	B	7	True	76	(-8.3853605154214996, 3.2838672749190501)	(7.001408962142559, 4.9948090805201115)	(3.3743582573240296, -0.82796051762796985)	(-5.8753026041628242, 6.9363835567149756)	1.0	z	0.86232
31	N	A	B	N	A	B	M	M	N	8	3	shapes	N	7	True	76	(0.87304488816524106, 2.4322532093048164)	(-8.7102328070239654, 8.6338555534186092)	(-8.6261649233127198, -7.5978031404803916)	(5.4630945316669468, 1.6823672160704355)	1.0	z	0.52789
32	M	A	A	M					N	4	1	shapes	A	7	False	76	(5.3379339733371545, -4.7536024561929668)	(-2.5023455543455055, -1.545558754125496)	(5.6524669355969941, 1.2450199806801141)	(-8.1054422419727121, 1.4730179406584902)	1.0	slash	0.600482
1	N	B	A	A					M	4	0	shapes	N	8	False	76	(7.8988207519184677, -0.4440358008866454)	(-0.63851198640709761, 7.6123098128014703)	(-0.24579545889838883, -6.0457110086087216)	(2.029677534953219, 0.62959902916574784)	1.0	z	0.827306
2	N	B	M	B					A	4	2	shapes	M	8	False	76	(6.5851703282806309, -3.373471168733607)	(-3.4954187858848602, -1.1983207301579242)	(0.21179778340443711, 3.0454418934924607)	(-2.2027686424803825, 7.5662211615091621)	1.0	slash	0.593016
3	N	B	B	A					A	4	0	shapes	N	8	False	76	(2.2056442132990011, 7.9397482228744529)	(-0.089728222790483869, -6.0357780626479052)	(7.9362169306536963, -6.2997202128854477)	(-0.30928285671158307, 4.5827730975085377)	1.0	slash	0.86092
4	M	B	A	M					A	4	2	shapes	A	8	True	76	(0.23787036818687035, 5.8713867193714933)	(6.381176413758725, -3.9245440040454103)	(-3.7152630509053033, 0.67329728172794567)	(-5.4556257134932107, -8.2013559671216552)	1.0	z	0.586353
5	M	A	M	B	N	A	N	B	A	8	2	shapes	M	8	False	76	(-0.65069157948694745, 2.9145033156026052)	(4.0256436859703992, -1.649932707171951)	(-6.6623387266147418, 6.849772873620843)	(4.7237260600694473, -6.3042418885151532)	1.0	slash	0.601878
6	N	B	A	B	A	N	M	M	N	8	3	shapes	B	8	False	76	(5.1210805229697627, -5.2239501271974422)	(-4.8564961315353674, -4.4404661460206487)	(7.7795898977059359, 7.3863026540219323)	(-7.7789875421680321, -0.12006373172130935)	1.0	slash	0.821698
7	M	A	B	M	A	N	N	B	M	8	3	shapes	M	8	True	76	(3.4389416714140566, 7.8149286816161592)	(-4.0890491971792455, 7.1985723309370684)	(-3.5028777397471682, 3.1578573653789963)	(-1.4855237962279579, -5.7482315300579847)	1.0	slash	1.88119
8	M	A	A	N	N	M	B	B	M	8	7	shapes	B	8	False	76	(-2.1971286574456288, -0.47029791954428113)	(4.0306249341549805, -3.7394144230815245)	(2.4606200274702186, -8.5495538855880788)	(-5.1212393952286135, 6.4620245403588505)	1.0	z	1.02087
9	N	B	B	N					N	4	3	shapes	N	8	True	76	(0.21840269936190992, 7.6037513857802068)	(5.2628637215757283, -5.871588364738594)	(-2.8004346596036473, 4.7802917638530964)	(-6.9687652102630793, -7.4096983655544886)	1.0	z	0.554483
10	N	A	A	B	B	N	M	M	M	8	5	shapes	N	8	False	76	(0.77186993194130515, 8.3393845971116782)	(-3.0845300263323461, -3.8253686124869244)	(-8.3686689610231859, -4.2327346136674766)	(6.5767615138153168, -4.3649409202450258)	1.0	z	0.896017
11	N	B	N	A					N	4	2	shapes	N	8	True	76	(-5.1555196088390423, -8.4951331726828005)	(1.4901154089436854, 6.3703864431737198)	(2.1970713699594828, -4.670654289469133)	(-4.6104985360788335, 3.0467435368135618)	1.0	z	0.487914
12	M	B	B	N	M	N	A	A	M	8	4	shapes	M	8	True	76	(-1.5074934324631677, 8.4779081816808528)	(4.0773397329553038, 6.0562720568243993)	(7.6848173967453732, -7.5583759951419225)	(-4.0542517374056724, -7.3209152984137891)	1.0	z	0.787443
13	N	A	A	M					A	4	1	shapes	A	8	True	76	(8.5337086472456818, -5.336358713535855)	(5.1567721741634802, 7.4955550921157368)	(-3.2075260630843827, -7.4701418008805787)	(-1.6356523138687686, 0.34039973224605902)	1.0	slash	1.68923
14	N	B	B	N					B	4	1	shapes	B	8	True	76	(-4.9545256964887532, -3.7639802559310063)	(0.67431540023011749, 0.24036620783719798)	(6.0088386044356135, -4.9619860422504178)	(-8.3747149145975879, 5.330242684338927)	1.0	slash	0.912619
15	N	B	M	N					M	4	1	shapes	B	8	False	76	(5.9206135427568931, -4.535552345725848)	(-6.2480354068388104, -2.8882479693781615)	(7.8696628374199022, 7.2176607682252687)	(-4.3840159557141929, 7.2085631108251551)	1.0	slash	0.748316
16	N	A	M	M					B	4	0	shapes	N	8	False	76	(-0.88601100140955236, -4.7973716787427954)	(2.5925950467484906, 2.3099172083743067)	(4.3355402250078168, -3.9970109972615786)	(-2.023803740378801, 4.8547184846953897)	1.0	slash	1.12809
17	M	B	M	B					N	4	1	shapes	B	8	False	76	(-5.502046149995925, 3.2068548032300797)	(5.6156406338929159, -6.8432479081526623)	(1.5841506153369771, 2.319849258191887)	(-2.9469058511738231, -7.9598700048072235)	1.0	slash	0.585789
18	M	B	N	M					N	4	2	shapes	N	8	True	76	(0.18335841352421944, -1.1199390356082715)	(-2.2016101962958761, -6.5962821355307053)	(6.4790522772873462, 1.9702099885608302)	(-5.4609889202955655, 2.0471372247201298)	1.0	slash	1.59941
19	N	A	M	A					M	4	2	shapes	M	8	True	76	(3.2751371003156979, -7.9788120960521738)	(6.8500406210688372, 4.6770727219535377)	(-3.62091539581421, 5.6133845621517313)	(-4.6051376335803047, -0.013952000075120097)	1.0	z	0.800753
20	N	B	N	M	A	A	M	B	N	8	0	shapes	N	8	True	76	(-0.93085680863854847, -2.0068398758597263)	(-6.3747402657450518, 8.1155481823881175)	(5.8002431578123783, -7.7841010874237204)	(4.0479677706556547, 4.4701387268537953)	1.0	z	0.664669
21	N	A	B	N					N	4	0	shapes	N	8	True	76	(1.6998549243612455, -7.1498128701989803)	(-6.9159443683624762, 8.6599812991389378)	(-2.79802245137512, -2.0432999604807538)	(3.7245151818375088, 5.1930961060618408)	1.0	z	1.01409
22	M	B	B	M	N	A	N	A	N	8	7	shapes	A	8	False	76	(5.0590537576357271, -0.80731905566238282)	(-6.7034051433510404, -7.1927952899510785)	(2.3113158148635407, -7.6507389611601502)	(-0.15304006006610571, 1.5268408701747962)	1.0	z	1.28095
23	M	A	B	B	M	N	N	A	B	8	4	shapes	M	8	False	76	(0.23831451122027048, -7.6084471890813656)	(7.28461788486252, -0.98959747951322719)	(-5.9556361157820898, -4.8674610498043558)	(-5.247335007867953, 4.0476794110981906)	1.0	slash	1.0115
24	N	A	N	A	M	B	B	M	A	8	0	shapes	N	8	False	76	(-0.96927044022954689, -5.0755022230137286)	(6.0918703169292758, 4.8643883836562214)	(-5.8006065079474984, -3.6338981605115563)	(4.8171121651890445, -5.2585345143980859)	1.0	slash	0.79453
25	M	B	A	A	B	M	N	N	B	8	1	shapes	B	8	True	76	(3.324959020283961, 7.900942095111084)	(-1.7679910821829479, 6.2404983197988191)	(-0.12744131670980785, -8.0469475204760972)	(-8.3915068543622837, -5.4720426937737479)	1.0	z	0.600641
26	N	A	A	N	M	M	B	B	A	8	1	shapes	A	8	True	76	(1.2875244818642351, -4.0798247790821884)	(-3.1898795280594268, -0.26908602470869525)	(-1.6543308352846555, 6.801846572785136)	(-8.642501105141438, -7.5540176163100625)	1.0	z	0.630332
27	M	A	A	M					N	4	3	shapes	M	8	False	76	(-1.6714351970592238, -5.0260341099571724)	(6.4833955641055443, -1.6695953968051294)	(-6.4698032948752262, 0.28087217408902454)	(7.1093294208644178, 4.5355102638321227)	1.0	slash	0.77807
28	M	B	A	M	A	B	N	N	M	8	3	shapes	M	8	True	76	(-6.0132906433458313, 7.4152386993613639)	(2.1068475078739084, -1.01894661101207)	(-5.5011187390035676, -5.760836039609142)	(-7.3893863662970762, -0.94697203886921688)	1.0	z	1.09961
29	M	A	A	B					A	4	3	shapes	B	8	False	76	(7.7121792569923784, 4.8018487373198901)	(7.7828124401454772, -0.88178774630149004)	(-5.0360471218292666, -5.1605386030749631)	(-8.1649187693878336, 7.7662465605466089)	1.0	z	1.07343
30	M	B	M	B	N	N	A	A	B	8	4	shapes	N	8	False	76	(2.5597279092972478, 6.8343506183950673)	(7.6768890959769891, 1.7381274669324878)	(-8.6928665576996451, 0.016066560214760273)	(-2.8380210977639484, 1.4657289277114618)	1.0	slash	0.838903
31	M	A	M	N	A	N	B	B	A	8	4	shapes	A	8	True	76	(2.2266356497113176, 6.3570785181910008)	(-4.4473246066924803, 8.2676574373834555)	(6.6913103195461847, -4.3500559078654639)	(1.6988631372450005, -6.1585786016866972)	1.0	z	0.916621
32	N	B	N	M	B	A	A	M	A	8	6	shapes	A	8	True	76	(-5.3950496107706325, -5.9443679901350226)	(1.9317094551492389, 7.2010079857078253)	(3.5986240841627168, 3.4291375206623549)	(-3.3182666603334514, -0.50744759567103159)	1.0	slash	1.05822
