TrialNumber	stim0	stim1	stim2	stim3	stim4	stim5	stim6	stim7	stim.probe	ttl.stims	corr.num	trial.type	stim.corr	block	match	Subject	stim.pos0	stim.pos1	stim.pos2	stim.pos3	ran	resp	RT
1	N	B	B	M	N	M	A	A	N	8	4	shapes	N	Practice	True	77	(6.5996110375121084, 0.82012108263056582)	(4.3041887562424481, -4.5760181787438095)	(-3.3699285501423688, 5.7995236966856787)	(-6.2854154763742907, -1.161653217493928)	1.0	slash	2.97299
2	M	A	A	N					B	4	1	shapes	A	Practice	False	77	(2.1681321117736285, 7.5981297412985711)	(-3.5124845302195702, 7.4900930068214819)	(2.1340471309840812, -5.1601444643990266)	(-2.7829147338796254, -6.866118435063929)	1.0	z	3.2043
3	N	B	B	M					A	4	3	shapes	M	Practice	False	77	(-1.0490986399378111, -3.2772653050152716)	(5.1744694013253127, -1.4365452565081718)	(2.2266565574830359, 2.8802291109237164)	(-4.833279468087329, 5.7448120391530164)	1.0	slash	3.5019
4	N	A	M	B					N	4	0	shapes	N	Practice	True	77	(3.3400074140070597, -0.71807518433870499)	(-0.62638418562328546, -7.8452500620905097)	(2.2357607784880429, 7.902082830897978)	(-5.2779525712838637, 2.7061989911804858)	1.0	slash	2.61946
5	N	A	A	B	M	M	N	B	A	8	5	shapes	M	Practice	False	77	(-1.6615698152638823, 2.8222029922879255)	(-8.3272410036498847, -2.9170644103071046)	(5.9899382707550632, -0.53798837244004005)	(-3.2062798467836897, -3.5931332833352112)	1.0	slash	2.53278
6	M	A	B	M	B	A	N	N	B	8	7	shapes	N	Practice	False	77	(7.6501917273363809, -3.5839148079848613)	(-2.196492036381561, 6.0021355429131411)	(3.3901252529069801, 5.4651189740003794)	(2.9357539894062015, -7.9838837194663821)	1.0	z	1.68041
7	N	A	B	N					B	4	2	shapes	B	Practice	True	77	(-5.1499572941014362, 7.2303733382599322)	(-5.084885599951698, -5.2152327537919572)	(6.9668142421711572, -1.4469006836717551)	(5.9211362353475163, 5.261930661610565)	1.0	z	1.99395
8	N	A	N	A	M	M	B	B	B	8	6	shapes	B	Practice	True	77	(-6.8739078399671332, 5.6482462746618758)	(-7.545401215180803, -7.4691564377872099)	(6.7817928001656469, 3.6696251994495324)	(7.3347431652334016, -2.8891133652867236)	1.0	slash	2.1597
1	N	A	N	A	M	B	M	B	M	8	4	shapes	M	0	True	77	(0.3803967245949611, -2.0793706345649987)	(-5.9516882588902096, -1.6690256515801041)	(-3.8716992974784858, 3.2313460401807408)	(7.7827352223509365, 7.4895415542807591)	1.0	z	1.10868
2	N	B	M	B	A	N	M	A	M	8	2	shapes	M	0	True	77	(-6.07504875841631, 2.2252033359931627)	(-1.5653320681317187, 6.6966417923534678)	(1.6052747971552161, 4.207735631064196)	(6.0088016437093188, 6.9991092406726771)	1.0	z	1.02835
3	M	A	M	A					N	4	2	shapes	M	0	False	77	(-3.6034663985257644, -6.3460912660613822)	(1.4484554199714914, -5.4386278022214221)	(5.9722786419853424, 3.2415369834017849)	(-5.9296815704702324, 1.5855882783115476)	1.0	slash	0.992027
4	M	B	N	M					N	4	2	shapes	N	0	True	77	(5.9112687037071243, -5.0216572199426039)	(7.0258483706333479, 3.7091773571656557)	(-6.7331984950699244, 6.3708758397730207)	(-5.8287810876460169, -0.65232703147713167)	1.0	z	0.779813
5	M	B	B	A					N	4	0	shapes	M	0	False	77	(-7.4321529892984435, -4.4633074036280531)	(8.3803465365318139, -6.9759120168093913)	(-4.8579009921516221, 0.42804105734987274)	(3.5168886069502392, 1.9373119325855566)	1.0	z	0.889413
6	M	B	A	M					B	4	1	shapes	B	0	True	77	(-3.4309263004511017, 6.5344747791888445)	(0.57595625148060314, 1.5007193485847026)	(-7.0791296837052915, -1.6646408965618376)	(6.0089126533399231, -2.856373506763263)	1.0	z	1.2965
7	M	B	B	A	N	M	N	A	B	8	7	shapes	A	0	False	77	(-6.3208905621985902, -6.2691987396534978)	(-6.6947856740152218, 6.766797737100271)	(-1.2043400294619024, -3.1250347175777771)	(3.6151631309634205, 0.28343220410970815)	1.0	slash	1.3947
8	M	B	A	M					M	4	1	shapes	B	0	False	77	(8.2815437720626299, 4.0820709926630467)	(0.23576053650643125, -1.1646359427330326)	(-7.4568937294231858, -1.5650486515971371)	(-7.3848954986376114, 4.8562796813232669)	1.0	slash	2.20607
9	M	B	N	M					A	4	3	shapes	M	0	False	77	(-2.1226121310006567, -6.8892863446730592)	(0.24742169019190463, 1.7607974288110686)	(7.8367366135233389, -5.9724340275888999)	(-1.032946822886343, 7.8175443543011234)	1.0	slash	1.31971
10	N	B	A	A					N	4	2	shapes	A	0	False	77	(-3.4760554077521899, -2.0460960663470633)	(8.1215027417216845, -8.2660377512052392)	(5.1371599881650454, 0.30459444480199771)	(-0.74185481392195562, 7.9447841373908297)	1.0	slash	1.20125
11	N	B	M	B	N	M	A	A	B	8	5	shapes	M	0	False	77	(-4.958797149443213, 5.7800430509437017)	(3.9774345664713859, -1.6278578293655084)	(-5.1028920665973914, -5.9338519131042364)	(-0.71686330215034033, -0.10820524777076201)	1.0	slash	1.35896
12	M	A	M	B					B	4	3	shapes	B	0	True	77	(-0.87627671345085378, 3.9238095543496492)	(1.2708918088286882, -8.3100378966324691)	(-1.7437909177042554, -2.2058301659595658)	(6.3575519300565535, 7.6823138987332591)	1.0	z	1.55251
13	M	A	B	N					B	4	2	shapes	B	0	True	77	(-1.1484535313683217, -4.2416988288136155)	(-3.0458180706695099, 0.7418735620214747)	(4.4617117008805032, -5.1711882313316115)	(1.1293922988031646, 3.3986309535477837)	1.0	z	1.3163
14	N	B	M	M	B	N	A	A	M	8	4	shapes	B	0	False	77	(-7.3459276003977729, 8.2186004219339033)	(-7.2711931415763296, -2.0196076128001774)	(5.3668818465655193, 2.8726367401544994)	(-8.2751304541952475, -6.1516456469096834)	1.0	slash	1.02556
15	N	B	B	N					N	4	1	shapes	B	0	False	77	(-3.1395297161878526, 3.5638367879969657)	(5.86598655917809, 2.4139048166327797)	(-1.4522933092943298, -6.2208646899195088)	(6.8807706274621658, -6.0828576520407083)	1.0	slash	1.38356
16	M	B	B	N					M	4	0	shapes	M	0	True	77	(2.4184605251425992, -5.6633111932472024)	(3.9630592532449906, 7.9037435505987865)	(-4.1019839254347144, -7.6879131266253742)	(-0.63260906546573814, 6.4916025183273014)	1.0	z	1.06864
17	M	B	B	N					B	4	2	shapes	B	0	True	77	(-7.4489209863216104, 5.5312788227867902)	(5.1755116983809906, 2.9305801177880699)	(0.8525710289260946, -7.1458563351905768)	(-5.1732079173577787, -4.5751786787886424)	1.0	slash	0.896689
18	N	A	N	A	M	M	B	B	N	8	2	shapes	N	0	True	77	(4.3551608163613196, 0.70413425292453802)	(-4.8819755056832754, -4.3829947497947304)	(-3.6435972925252935, 6.9304753294177228)	(-3.2707825174754701, -0.16654737139856124)	1.0	z	1.72237
19	N	B	B	N	A	A	M	M	N	8	6	shapes	M	0	False	77	(0.88211786163970451, 1.045996367054796)	(3.0455706095135948, -4.6609770701177915)	(2.1185613683192681, 6.6753158710827112)	(-3.3446865345585071, 5.7564303481786219)	1.0	slash	1.16581
20	M	B	N	M					M	4	1	shapes	B	0	False	77	(5.795155819837646, 5.0372282723317667)	(6.4677771419721104, -5.0608088893550907)	(-4.3465367963532886, -5.7638136051137634)	(-0.70764073276725625, 4.8597582287745169)	1.0	z	1.57557
21	M	B	A	A	M	B	N	N	N	8	0	shapes	M	0	False	77	(-3.0961414908884031, 7.7877938360511614)	(7.5536903446584844, -7.1594533405579686)	(-1.7499965509177233, -8.0425971337122899)	(-7.0831468135237241, -0.84033619220946143)	1.0	z	0.928978
22	N	A	M	M					N	4	0	shapes	N	0	True	77	(-0.26637674318305393, 3.4680095781200304)	(-4.8590358615089979, -6.5136469805023962)	(6.4161947359099134, 7.808147584240853)	(4.4118776350165501, -7.0570407145284983)	1.0	z	0.816837
23	N	B	M	M	A	B	N	A	N	8	6	shapes	N	0	True	77	(-1.9157120898267408, -5.4057148011369387)	(-4.8860039932286945, 7.2339573076459605)	(-4.0073615444363222, -0.77595970172937001)	(2.5819582158838532, 8.3228828004041375)	1.0	slash	0.994473
24	N	B	B	A	A	N	M	M	A	8	3	shapes	A	0	True	77	(1.1998432088236566, -4.4484185372590552)	(-6.9880021677651563, 8.2809192763156503)	(5.2803281401394084, 2.212831979700745)	(-3.9638424773722605, -6.7283578573107263)	1.0	z	0.99997
25	M	A	M	B	B	N	A	N	M	8	2	shapes	M	0	True	77	(-1.2819477370632333, 5.9710840407315384)	(3.7064086869135622, -7.5443435210828662)	(-8.3256952931017079, -6.1333975030503121)	(2.7762524413611551, 8.4644859315008283)	1.0	z	0.949639
26	M	A	B	A	B	N	M	N	N	8	1	shapes	A	0	False	77	(-3.6437322622679096, 4.5100160597666576)	(0.62777236543993808, 4.1538471804539459)	(-7.8893307549963607, -2.2889719139650486)	(3.5508420740446667, -2.0730706948113857)	1.0	slash	2.4052
27	M	A	N	B	M	A	B	N	B	8	3	shapes	B	0	True	77	(3.7828768097047529, -6.7848818191524209)	(-8.7039063545547517, -1.7409339354707614)	(-3.9995646829063398, -0.15279650274135825)	(-5.0389831720821912, 8.1832920707071999)	1.0	slash	1.36091
28	N	A	A	B					N	4	1	shapes	A	0	False	77	(-8.2411572385521019, 3.9711645283810526)	(3.6822727576441245, 5.5652440194754558)	(0.66953674423353071, -1.0517888213720692)	(-6.5972586223852696, -0.29999872066845867)	1.0	slash	0.890476
29	M	B	A	M					M	4	3	shapes	M	0	True	77	(4.5783233837481117, 3.950619457563846)	(3.4993104768901269, -2.8441023229941207)	(-8.4076608768079151, -6.5595099893763145)	(-8.6193042947957448, 1.7169652319759283)	1.0	z	0.818563
30	M	A	B	N	M	N	A	B	B	8	2	shapes	B	0	True	77	(-1.7900208336056984, -4.9617007848707244)	(8.0426667993623333, 8.5645049703448564)	(-2.8655511572392935, -0.4462623916238222)	(2.8112725235209481, 5.5627041358586951)	1.0	z	1.01176
31	M	B	A	N	B	A	N	M	A	8	4	shapes	B	0	False	77	(3.4929633459607281, 0.40888685811858494)	(-6.8126166666328931, -1.5800184800065047)	(-0.59589285908171519, -0.64565864119180283)	(5.9034710922186076, -3.3453489570047852)	1.0	z	0.839354
32	M	B	M	A	A	B	N	N	A	8	7	shapes	N	0	False	77	(3.1658831808803622, -0.57256572850569043)	(-0.053627648261210581, -5.9866208434582493)	(-1.5727391317350943, 8.4172659217605954)	(-8.573168158297614, -4.602503050394267)	1.0	slash	1.50909
1	M	B	M	B					B	4	2	shapes	M	1	False	77	(-5.1515096080709215, -0.45239783660237443)	(2.2519019921133623, 4.7307546697881566)	(-7.8666542596320452, 7.9620462361050564)	(5.9780989116887131, -0.60992305608095521)	1.0	slash	1.1627
2	M	A	N	A					A	4	3	shapes	A	1	True	77	(3.542513466305655, 6.2447419556985739)	(-0.16973958587352733, -0.80808258562353874)	(-3.7827557900080224, 0.95305811292068832)	(1.2740496548944122, -5.4975825641450689)	1.0	z	1.26038
3	N	A	N	B					M	4	2	shapes	N	1	False	77	(3.7451615376610441, -4.0941891791742924)	(0.34182654046700023, 6.4040332924166208)	(-3.2749685105242241, 3.0770022253889344)	(-7.1078426281605402, -3.9806487010178131)	1.0	z	1.10595
4	N	B	M	A					N	4	0	shapes	N	1	True	77	(7.5640152628163158, -2.3147909026926188)	(2.4884837678944187, 1.2692902821334595)	(-7.6195622629474391, 5.7823624391796162)	(-1.2068145220799575, -2.6251505245537006)	1.0	z	0.959533
5	M	A	B	B	N	N	M	A	M	8	7	shapes	A	1	False	77	(5.5290937412765526, 2.6250421522171941)	(1.1081077920118361, -6.3732574487377782)	(5.8259802074280174, -3.276655109654115)	(-4.6316851516951649, -8.4850234585215478)	1.0	slash	0.781172
6	M	A	A	M	N	B	N	B	A	8	0	shapes	M	1	False	77	(-3.7677784227777051, -3.2199282710448243)	(6.5174686008692664, -1.0177644637741512)	(8.4423639277483282, -7.5487703607317069)	(-2.7386492026867337, 5.5728686675970351)	1.0	slash	1.46282
7	N	B	A	N	B	A	M	M	M	8	3	shapes	N	1	False	77	(6.2148552700895454, 5.2616382916482038)	(-3.9175505880051791, -8.1346344895138181)	(1.2306977782412289, -8.2050457895010052)	(-3.7685265767285649, -2.0607847544022242)	1.0	z	0.974535
8	N	A	M	M	A	B	B	N	M	8	2	shapes	M	1	True	77	(1.900548770898725, 5.8823108025223281)	(7.9008079126131001, 3.0173324760608757)	(3.2362327020729271, -0.93278017193623342)	(-7.5038306988651104, 5.8406968119224487)	1.0	slash	0.760173
9	M	B	N	N					A	4	0	shapes	M	1	False	77	(-3.2372190909340066, 5.5669107492932834)	(-7.1444611979658825, -5.3573655456608087)	(3.5127430097222234, 8.4144190787794706)	(7.3924987395841875, -8.194285804247686)	1.0	slash	1.42551
10	N	B	M	B	M	A	N	A	A	8	0	shapes	N	1	False	77	(3.2647906391074279, -0.43533555334683349)	(6.425695188800912, -3.0512208133447327)	(-0.22327161071322088, 2.5494081282176104)	(-5.5146332598410011, 5.6947952824058152)	1.0	slash	1.31334
11	M	A	M	B	N	N	A	B	B	8	5	shapes	N	1	False	77	(-5.3124415813534505, 2.7205168721651241)	(1.9002067125251756, -1.893681856778576)	(4.1878021806473988, 6.3965685693866998)	(-8.7269057399681245, -3.3937377170579559)	1.0	z	1.17481
12	N	B	A	N					B	4	1	shapes	B	1	True	77	(7.7755353952577053, -2.3473744584572609)	(-4.2078404298747492, -6.3574003845322817)	(-7.2907608728556523, 6.3327082196292732)	(0.80175542795263333, 5.423312188698489)	1.0	z	1.71058
13	N	B	N	B					N	4	3	shapes	B	1	False	77	(-8.2472058877827195, -4.7554349397020053)	(-1.3925935521873338, 6.335697966136582)	(8.6978501332603706, 4.0815120437264056)	(2.5404630049001415, -1.932444799036884)	1.0	slash	0.922193
14	N	A	A	M	B	B	M	N	M	8	3	shapes	M	1	True	77	(2.314005411187928, 5.7739812742299161)	(8.7217667446651497, -2.4140290908703683)	(-2.2242456028217923, -1.7728635674021236)	(3.8101540550222097, -5.0153417301408512)	1.0	z	1.10184
15	N	A	M	M					M	4	2	shapes	M	1	True	77	(-2.9881245449025897, -2.4312396686479145)	(8.336027430953088, 5.3163532724406029)	(1.8103700652386454, -7.9413851316485271)	(-7.5345869293103487, 7.6577800172598067)	1.0	z	0.619446
16	M	A	A	B	M	B	N	N	A	8	1	shapes	A	1	True	77	(-8.5310491843776664, 7.6509950704480794)	(-8.1597741235467307, -7.7657116850961962)	(-5.6252716414444945, 3.5443508704842568)	(6.7623877773496268, 0.87316184689643528)	1.0	z	0.957169
17	M	B	A	N	B	A	N	M	M	8	4	shapes	B	1	False	77	(3.9541691650825967, -8.3338261579245252)	(-7.4413477561657082, -4.0517108938457831)	(2.4600069112667029, -0.34247665929595783)	(4.6433540736238932, 5.4528763053914187)	1.0	slash	0.914788
18	N	A	A	B					A	4	1	shapes	A	1	True	77	(-7.593399583963599, 3.799243253136531)	(-8.5108903091050614, -7.8291018785160302)	(0.53624952101300138, -6.1765737629944653)	(8.0507970331906513, 7.777604269841305)	1.0	z	1.65435
19	M	B	M	N					M	4	3	shapes	N	1	False	77	(-1.1380615659857485, -7.0926941720381675)	(-5.2875446039837861, 2.3903109319853542)	(2.0346631554732344, -0.2920241350516033)	(5.5370804481594913, 3.2031865896009535)	1.0	slash	0.597975
20	N	A	N	B	B	A	M	M	A	8	6	shapes	M	1	False	77	(-5.1919310275659996, -6.3161087698140363)	(-7.8740938110772625, -0.83946845930115632)	(5.8758629215602003, 6.6306072825196782)	(-4.1303988624916705, 0.7847316481774449)	1.0	z	1.06764
21	M	B	B	N	M	N	A	A	M	8	0	shapes	M	1	True	77	(-3.5381955401620795, 2.3161533037462831)	(-8.4367848829533258, 2.6398299972524359)	(4.6384405426719173, -5.9508891250997991)	(-5.939211917072778, -7.2771857011902688)	1.0	z	0.795338
22	N	B	N	B	M	M	A	A	M	8	5	shapes	M	1	True	77	(-4.2603281133473105, 1.7166447483002329)	(5.96269631605381, 7.6588150502265648)	(4.2135659787540867, -1.6309768974134746)	(8.3540689370048788, -6.9153020603890187)	1.0	z	0.65705
23	M	B	B	N	A	N	A	M	B	8	1	shapes	B	1	True	77	(3.0911885023913879, 1.4933830993498898)	(8.466069563574095, 5.0187705081760932)	(-1.2251810383212529, 3.9292353501969988)	(-8.2209481194133858, 1.5359935411716137)	1.0	z	1.38657
24	N	A	A	M					A	4	1	shapes	A	1	True	77	(3.2526344704116443, 3.8010534108690717)	(-8.6752771627299321, 1.6153596792887335)	(-2.5859476435166568, -6.5862776984924034)	(3.4246670803739043, -4.1578821721693622)	1.0	z	0.968267
25	M	B	M	N					M	4	1	shapes	B	1	False	77	(4.5741845905089455, -7.4662501876776837)	(-4.9763956518511892, 8.3211580844639315)	(-6.9274056344929278, -1.0760889907569302)	(1.3776504945667156, 1.046688511426904)	1.0	z	0.903857
26	M	B	B	M					B	4	1	shapes	B	1	True	77	(5.2474818293301961, 1.731643567344511)	(-8.0538666433920447, 5.6736553634932534)	(-7.3786307202025387, -5.5641980896565082)	(5.7771851680724211, -3.1123054285147429)	1.0	z	0.701505
27	M	B	M	B					M	4	3	shapes	B	1	False	77	(5.2081411674904672, -6.9191413542366202)	(-1.4900322664077192, -4.3509547133801609)	(4.3379079225078705, 8.1493762201127495)	(-7.5102175711716512, 4.6556325353616117)	1.0	slash	1.30712
28	N	B	A	A	B	M	M	N	B	8	4	shapes	B	1	True	77	(-5.479328324862518, 7.0512938455941914)	(6.5532062889929783, -4.0873773732793834)	(4.4236281258703958, 7.1697647402869382)	(-3.3203051906878498, 1.532972149220539)	1.0	z	1.13077
29	M	A	M	B	B	N	N	A	M	8	2	shapes	M	1	True	77	(0.64789994027189302, -2.4074982846933635)	(7.9511499476518459, -4.1294681264101545)	(-0.3393534165301908, 4.0361052579194538)	(-3.5245696492481491, 8.6582839854978637)	1.0	slash	1.42241
30	N	B	A	N					A	4	1	shapes	B	1	False	77	(-6.5536069920500335, -1.868928375513609)	(-5.4136453941324376, 8.7250376432150887)	(2.3583769986807894, -3.3854629564062053)	(6.5346769065134005, 2.6307704247450303)	1.0	z	0.851903
31	N	B	B	M	N	M	A	A	B	8	4	shapes	N	1	False	77	(7.5174599171955485, 4.2608458028098237)	(5.3956498232066217, -5.5809535633441563)	(-2.0841286857577606, -3.0754365531371821)	(7.1691247777375757, 8.5623513561025426)	1.0	z	1.29361
32	M	B	B	A					B	4	2	shapes	B	1	True	77	(3.7748308657892782, 7.7256581560445561)	(-3.8509624646789691, -4.0347944206300701)	(-1.5307753887168509, 8.5056183014975097)	(0.77563566298209885, -0.82559229216027585)	1.0	z	1.06138
1	M	B	B	A					A	4	3	shapes	A	2	True	77	(3.4833605723851271, -8.0366837215870781)	(-2.0361815442310149, -3.9935804087112396)	(-5.1564313754785847, 7.6495837336883667)	(0.43068564902680073, 6.8688696795127182)	1.0	z	1.33079
2	N	A	B	A	B	M	M	N	M	8	5	shapes	M	2	True	77	(-7.3230217854141735, -1.304239782429284)	(-6.9764041647516599, 3.8272550025922634)	(5.4820074967768697, -1.0618550968608389)	(-6.0199947263376945, 8.419108385676779)	1.0	slash	1.11058
3	N	B	A	B					B	4	0	shapes	N	2	False	77	(-2.0266897735278979, -0.51034989200961611)	(5.6380344218724261, -2.3395176012501668)	(5.8099605322099599, 2.9925159135865158)	(-3.2248341282060107, 5.7897279165052122)	1.0	z	1.05814
4	N	B	B	A	A	M	N	M	N	8	7	shapes	M	2	False	77	(-0.90587576619197918, -8.455738441913228)	(-7.1607096861243846, 6.5855197698970098)	(7.5235862899286765, -1.3075559821757015)	(1.4347830985976344, -4.2569901422207401)	1.0	z	0.71578
5	M	A	M	A					N	4	2	shapes	M	2	False	77	(1.9513825316571651, 7.8160185662434358)	(2.9792394686829748, -0.035046702074774672)	(-7.9108092991755568, -2.2106446105394371)	(-1.8480922397172614, 2.4399380894432809)	1.0	z	0.567459
6	N	B	A	M	B	M	A	N	M	8	2	shapes	A	2	False	77	(3.3356608444846696, 2.5480110934065117)	(-0.82731135888723628, -1.5733955685549876)	(6.9106400133160903, -6.5557519434634486)	(-5.1665683500499657, -6.0598916357978228)	1.0	slash	1.01116
7	M	B	A	B	A	N	M	N	A	8	4	shapes	A	2	True	77	(0.7236459324289477, 3.3629781208038256)	(-6.6152017002412666, 0.090760986735201499)	(6.7871736499699917, 0.18733956629010606)	(-2.0320552965184886, -5.3114651803521733)	1.0	slash	1.42277
8	N	B	A	B	A	N	M	M	N	8	7	shapes	M	2	False	77	(-1.9195831385545157, -8.0772747478525417)	(1.8490033653734308, -0.769114614048374)	(4.3883501095124871, -4.3976954225163158)	(-8.312933937605278, -4.1343838094248353)	1.0	z	1.38187
9	M	A	A	M					M	4	0	shapes	M	2	True	77	(-4.7177983330282087, -0.73864317404147428)	(3.6316605083072755, -2.4141241580631707)	(-2.7420710045650596, 6.6008174385005329)	(3.5143775784799374, 7.0692636636083392)	1.0	z	0.795944
10	M	A	A	M					B	4	3	shapes	M	2	False	77	(-3.5734357893222786, -2.2679321411670301)	(2.8119814940263979, 0.77733247593097587)	(0.76744900760216694, -4.0653489759911547)	(-5.6308246474937427, 5.6247942000698661)	1.0	slash	1.1676
11	M	B	B	N	A	M	A	N	N	8	7	shapes	N	2	True	77	(5.766999822357878, 3.4376261040913594)	(-1.9615612740065327, -4.6740720726639537)	(-3.4517501786101832, 3.2347520315183083)	(8.1318906108841666, -1.0825092963298459)	1.0	z	0.834749
12	M	B	M	B	N	A	A	N	N	8	6	shapes	A	2	False	77	(-2.2142174856605292, -2.6394513613364836)	(-7.4386474203508701, 2.6957595279187938)	(3.4933419404497084, -7.6946957710536887)	(7.0560438898416074, 6.3747430828823219)	1.0	slash	1.35285
13	N	B	M	N	M	B	A	A	N	8	0	shapes	N	2	True	77	(2.8685471389901949, 2.2227803683755027)	(-8.5413475768064338, -0.95015933791009211)	(-5.4551433916171028, 1.8915629419115465)	(-0.69050442080852115, -1.7128548394763481)	1.0	z	1.08652
14	M	A	A	N	N	B	B	M	B	8	3	shapes	N	2	False	77	(-3.7171606970050695, 7.852869512812088)	(2.054309146794667, 8.3190727334031109)	(8.2621512027298643, 4.1183689371479151)	(-7.5045471691451713, -7.5183386751877697)	1.0	z	1.49005
15	M	A	N	A					B	4	1	shapes	A	2	False	77	(-5.3862875480966617, 5.5202949110766557)	(-5.1927024322232356, -0.94495351531272043)	(5.9987887272735172, 0.81062978078162828)	(7.8838819530054636, -7.8248993909804092)	1.0	z	0.82584
16	N	B	N	M	B	A	M	A	N	8	2	shapes	N	2	True	77	(-1.8851077335101873, 2.4201137851128465)	(-2.2334855735200723, -4.1131273710446026)	(-2.8562739032879723, 8.1251831380078166)	(5.7035225859382876, 5.9556110040274906)	1.0	z	1.51337
17	M	A	B	N					B	4	2	shapes	B	2	True	77	(-0.40862519964459487, -6.5576317496702776)	(-7.4945967795279191, 8.5728425234304808)	(7.2917180651112687, -2.5649801434245525)	(1.5819287628706302, 6.9957711789558239)	1.0	z	0.965094
18	M	A	N	A	M	N	B	B	M	8	4	shapes	M	2	True	77	(5.1832227871037269, -1.5516386293173108)	(1.8698556802399313, 4.8199599174678109)	(0.91867202192385378, -3.965274978238428)	(-6.4409353534929501, 5.0416232513782226)	1.0	z	1.14465
19	M	A	B	N					B	4	0	shapes	M	2	False	77	(7.3817720570172618, 4.7017472829199853)	(-4.1416541348375864, -4.9126014796974227)	(-4.4834443771265038, 7.9354558783790381)	(6.8206110193231329, -1.0124645560217154)	1.0	slash	1.19843
20	M	B	B	A					M	4	2	shapes	B	2	False	77	(-5.0016393498343987, -6.7247005657996493)	(3.4726534525104675, -2.8051213150735057)	(-6.98249275534147, 8.0661688806339704)	(7.9714219936865902, 2.8753130094874049)	1.0	z	1.26382
21	N	B	N	B					B	4	1	shapes	B	2	True	77	(0.86710914164862629, 0.8415058381063556)	(7.9858684258046928, -3.4911637708450742)	(-6.5882742181275482, -4.9911915866921595)	(-3.6469859712013903, 2.9044523572729517)	1.0	z	1.17342
22	N	A	N	M					N	4	0	shapes	N	2	True	77	(-2.0138892277720402, -6.2616244648793149)	(7.8882923186939244, 8.3626340737350802)	(8.3150948384877381, -1.5586604864236193)	(-0.71834512961648223, 8.2241071655860161)	1.0	z	0.82912
23	M	A	B	N	M	N	B	A	N	8	1	shapes	A	2	False	77	(-4.7052579746720289, 7.8463068774470983)	(6.2306103226840488, -3.4451622434207501)	(-7.0837334652014086, -8.2749037290436629)	(-0.62167804676478156, 0.52213842005834898)	1.0	slash	1.42075
24	M	B	A	N	A	N	B	M	N	8	1	shapes	B	2	False	77	(2.8920462208849624, 2.8544369660455029)	(0.18160273010145644, 6.1020934145399188)	(-2.2475339545280146, 2.2429256865470126)	(0.68008283920121571, -8.1951442524628781)	1.0	slash	1.36619
25	N	B	N	M					N	4	2	shapes	N	2	True	77	(-6.7411740848573611, -3.3240673147038482)	(6.5777815557690413, -3.7513177956849617)	(7.5458718726875631, 4.5894542590424727)	(-3.2805472701226304, 8.0733026752068575)	1.0	z	0.928006
26	M	B	N	B	A	N	A	M	A	8	1	shapes	B	2	False	77	(0.56961697796698019, -4.4161716660239252)	(7.9322658895481943, 2.3456218396465953)	(-7.9637192505829377, -0.9571817273496297)	(5.0528026708311184, -0.96575021886351387)	1.0	slash	1.25166
27	M	B	M	A					N	4	3	shapes	A	2	False	77	(1.9729831667058129, 5.3803866553128508)	(-4.0650798074903003, 0.47344036126908051)	(-0.44265367731982685, -8.6469130668179321)	(6.2185669566915109, -2.9948282440761069)	1.0	z	1.15539
28	N	B	B	A					N	4	1	shapes	B	2	False	77	(6.9325743592288642, 5.5474376936086731)	(3.9168113901494657, -4.6918666620147702)	(-3.6119544277525613, -7.4414058832265644)	(-2.9683661515673245, 7.3526302550847227)	1.0	slash	1.11101
29	M	B	N	B	A	N	M	A	A	8	4	shapes	A	2	True	77	(-8.2903061282152422, -4.7118222151072935)	(8.6516022015244261, -1.7001416029113336)	(-4.0643269922617957, -8.5435048189722647)	(1.6428305100888636, -6.2413575637152565)	1.0	z	1.11849
30	N	A	A	B					A	4	1	shapes	A	2	True	77	(-7.8171139358471882, -6.2484033900126681)	(3.3824746124922811, -2.8986217207634555)	(8.5280298078220227, 0.3494733961250347)	(-1.5077131553103671, 2.4994987736944392)	1.0	z	1.55998
31	N	A	A	N					A	4	2	shapes	A	2	True	77	(2.1455181689087635, -7.6286306832459001)	(-6.4001103501414027, 2.437745338510279)	(1.3427572769178315, 1.3725911568484541)	(-3.4160620161057071, -4.7727610266815468)	1.0	z	0.825729
32	N	A	N	A	M	M	B	B	N	8	2	shapes	N	2	True	77	(0.71066675573554683, -4.3341469579188683)	(-4.2507621126989656, 0.88919792102378459)	(-3.8593512661780478, -7.5980771803102192)	(6.8363869421892858, 2.5369129023747004)	1.0	z	0.92135
1	M	B	A	B					M	4	0	shapes	M	3	True	77	(6.1363606340187253, -4.6454626705984392)	(-0.71394934591971015, 1.4066264869190555)	(-5.8314281776508334, -6.33179221990207)	(6.3437418692062195, 6.3909957329551332)	1.0	z	1.0751
2	N	B	N	A	B	M	M	A	M	8	2	shapes	N	3	False	77	(7.9301975537709666, -7.4411369035081645)	(0.99340867183080661, 8.0696067454308995)	(-1.3516067751472196, 4.2931674826912953)	(3.3880100685893826, -0.29440982144950567)	1.0	z	0.840718
3	N	B	A	A	N	M	M	B	M	8	3	shapes	A	3	False	77	(6.3134968835481988, 4.0655621043633143)	(-1.2255356691779236, -6.0065670820191039)	(-5.1630858676546243, -4.4691559083107339)	(1.955740399707695, 5.9892389029798245)	1.0	slash	0.982327
4	M	B	M	A	B	N	N	A	N	8	1	shapes	B	3	False	77	(1.1791626754082447, -0.12992828519214861)	(-0.88018186636371087, 7.1380149068875429)	(-6.3695173949740216, -6.2667843328313921)	(4.6939648334897566, -8.408228758360579)	1.0	slash	0.895986
5	N	A	B	N					A	4	3	shapes	N	3	False	77	(3.8740917402173167, 0.61589499982248341)	(-3.8977930392111535, 6.4008059102975459)	(-8.1739313059788579, -0.34029577008374723)	(3.3992482485633726, -7.2748711863011426)	1.0	slash	1.44753
6	M	A	N	B	N	B	M	A	N	8	6	shapes	M	3	False	77	(-0.16352565956745124, 5.4091940041442541)	(-8.0912991550620657, -5.9867403793142886)	(8.3204036523967346, 4.5870377730212759)	(-6.9660019864626586, 6.811444804528362)	1.0	slash	0.899176
7	M	A	A	N	N	M	B	B	N	8	6	shapes	B	3	False	77	(-3.5453930315093087, 8.1317884738153587)	(7.2899911032160176, -0.29038390121756663)	(6.7050602670666724, -6.9545093473957174)	(-5.0937991721481941, -3.3676988677438651)	1.0	z	2.70879
8	M	B	N	N					N	4	2	shapes	N	3	True	77	(6.5852986019128483, 8.243322029804304)	(-1.745885498282731, -8.6446676401547506)	(5.0255268843398735, -2.523462846427198)	(-4.3141694407833846, 5.2164656619492256)	1.0	z	1.36029
9	M	B	A	N					N	4	3	shapes	N	3	True	77	(-7.0588717834623917, 1.6860311323724222)	(0.41069759847434106, 5.2068382075506854)	(-2.5354714232534681, -2.6340513767813629)	(7.5218339625353572, -5.2876488886834059)	1.0	z	0.63391
10	M	A	N	A	N	B	B	M	M	8	7	shapes	M	3	True	77	(-7.7077994727503372, -7.9236610514730366)	(-1.4186332317360417, -8.0428379402022081)	(7.7335776097610918, 6.0750287571142252)	(-4.0785928941967571, 8.2141367343129055)	1.0	slash	1.17565
11	N	B	M	N					M	4	2	shapes	M	3	True	77	(-7.5962206532761671, 5.0902809512098628)	(-4.6681939727336283, -0.51117925130090569)	(3.4497831018110414, 1.3193349137508328)	(3.2689110723644408, -2.8525718691063577)	1.0	slash	1.71111
12	N	A	N	A					N	4	1	shapes	A	3	False	77	(1.2550229437944687, 2.4465444930709044)	(-7.3573087640434487, 5.5282440671702506)	(-3.5768305183719811, -7.4558916975487985)	(4.3997157103154585, -2.0502456555431241)	1.0	slash	1.09093
13	M	A	A	B	M	B	N	N	A	8	4	shapes	M	3	False	77	(4.0105581004676623, -4.2398043406869599)	(1.1099306788168022, 7.4238645660559008)	(8.145886370493443, 2.6789473436964268)	(-0.9989198010140603, -7.7631280198805221)	1.0	slash	1.69439
14	M	A	B	M					A	4	3	shapes	M	3	False	77	(0.49214407425388984, 5.8672131738984383)	(0.1514850370809615, -5.4921707081262898)	(-5.3632848178722323, -2.4867107762723428)	(-4.8665988226548764, 2.3530825003503288)	1.0	z	1.96617
15	N	B	B	M	A	M	N	A	A	8	4	shapes	A	3	True	77	(-5.3633740777542727, 3.9034679755969695)	(-3.6254681352270639, -8.1667297922797122)	(1.5340445948311778, -2.255304841444346)	(5.6388875166210894, 5.9484065120338911)	1.0	z	1.2336
16	N	A	M	B					M	4	2	shapes	M	3	True	77	(2.201403223756941, 3.7856009406410216)	(-2.2283261595929753, 1.1730564683823648)	(4.1085920991560076, -0.52066833983994343)	(-2.8197275944839477, -3.334236631937884)	1.0	z	3.65317
17	M	A	N	N					N	4	3	shapes	N	3	True	77	(-6.3561795526218878, 6.0345739031336745)	(-3.1504562432262802, -3.6273930174052387)	(7.2349301305449618, 3.4177535679249509)	(2.0082130618458809, -3.1100897766562969)	1.0	slash	1.26072
18	N	B	N	B	A	M	M	A	B	8	6	shapes	M	3	False	77	(4.4160188985261168, -2.4099598983830344)	(-8.2890165768244692, -4.4633939047410403)	(-0.10350420526849291, -6.7018946843865645)	(8.370107314132472, -8.1812787524560804)	1.0	slash	0.974369
19	M	B	N	N					M	4	3	shapes	N	3	False	77	(-6.6878785469022848, 2.8125864397698876)	(-1.0086141234112462, -6.0882729470367405)	(6.1377141809548981, -2.2784171297589095)	(4.5277688149577138, 2.9403796928718311)	1.0	slash	0.397905
20	N	B	M	A					N	4	1	shapes	B	3	False	77	(-3.656901027977379, 7.8066871907751505)	(4.4548202378599999, -6.962975426776449)	(6.6779313878294264, 5.7821126637182836)	(-8.2689163295382393, -2.7204372426231096)	1.0	slash	0.687679
21	M	A	A	M					M	4	3	shapes	M	3	True	77	(7.9475591723985026, 8.6415270989054171)	(1.459774782662091, -7.8627550132777628)	(-7.8717040108547405, 1.495840766956082)	(-2.7675932002306576, -4.9504901682456417)	1.0	z	0.753313
22	N	A	N	A					A	4	3	shapes	A	3	True	77	(5.618858579214308, 7.7363173129082234)	(-8.0720505055739196, -7.0194692927320022)	(-3.5912275803348725, 4.576546955863023)	(1.0679402654461363, -0.11610237319678696)	1.0	z	0.732945
23	M	B	M	B					A	4	2	shapes	M	3	False	77	(1.5730475255506704, 4.9359962142526843)	(-0.058193856683098844, -4.4888726408869166)	(-5.1678599156071838, 6.4857419601387694)	(3.3674607057406387, -8.2843741829402475)	1.0	slash	0.828658
24	N	B	N	M	B	M	A	A	M	8	3	shapes	M	3	True	77	(-1.1106604051885265, 7.0541049265099964)	(-0.17560265227009353, -6.9350152095556155)	(7.7784382670687329, -4.1492464705268279)	(-7.6659011843167884, 0.51688299353670608)	1.0	z	1.29209
25	N	B	A	M	A	N	B	M	N	8	0	shapes	N	3	True	77	(-0.37333408300595572, 5.367200590082394)	(2.8127651506007822, -6.0189111954682488)	(0.71632451069054426, -1.024149322673277)	(-0.72096385106602234, -8.1569058850299339)	1.0	z	1.01386
26	M	A	A	M					B	4	1	shapes	A	3	False	77	(6.0482891556106875, -2.8422682750603183)	(-5.2227131490992891, 4.3041351479716852)	(6.4651932111812531, 6.4735856221132657)	(-5.684502317696305, -6.065167330130194)	1.0	slash	2.30933
27	M	B	A	A	N	M	N	B	M	8	5	shapes	M	3	True	77	(4.0866624768150039, 6.5383106993060682)	(5.7409983991282605, -6.5328145759018525)	(-2.3620026282996305, -0.87143987858246152)	(-0.68151471871115454, -6.9856244741218312)	1.0	slash	1.17295
28	N	A	B	N	A	B	M	M	N	8	3	shapes	N	3	True	77	(-4.998779184791899, -0.033052624459724456)	(7.1200768935731915, 4.7143674321609694)	(1.0250160149501486, 2.7476255298995351)	(5.171933682335963, -1.9897716620513703)	1.0	slash	1.19875
29	N	A	A	M	N	B	M	B	M	8	4	shapes	N	3	False	77	(-8.5323395142018956, -7.0155865541051456)	(2.1359611950074466, -4.7323746598404934)	(-6.9789514979581124, 4.0794348029637302)	(-1.4561189766518314, 7.7524643567413172)	1.0	z	0.772329
30	N	B	A	N	M	A	M	B	N	8	0	shapes	N	3	True	77	(3.1173857081184142, -8.329177432231587)	(3.6195282424522865, 7.7515788331156266)	(-1.4527619594583259, 7.2135659622380395)	(6.8964567329764606, 3.6564236602516846)	1.0	z	1.15819
31	M	A	B	A					M	4	2	shapes	B	3	False	77	(-2.2218775394736454, -0.62187356161884466)	(3.1789408415040299, -8.1053129066606484)	(0.53106219693517254, 6.1631798323191429)	(-7.3042858098280483, 3.5636969026080934)	1.0	z	0.927643
32	N	A	A	B	N	M	B	M	N	8	0	shapes	N	3	True	77	(-3.7152958489485641, 5.5435854433166796)	(-2.5271777555579726, -7.3022347016561149)	(4.9970813392942031, -1.4376955079611164)	(-5.9729050810110049, -3.4681571084694385)	1.0	z	0.954823
1	M	B	A	N					B	4	2	shapes	A	4	False	77	(-4.0688254071603351, -3.3861892007827956)	(6.2570453113058964, -6.2763401385171793)	(-3.8676538498440927, 7.0622865904384771)	(6.6180780656178815, 3.6881326644750185)	1.0	slash	1.0609
2	M	A	B	B	A	N	M	N	N	8	7	shapes	N	4	True	77	(8.0428790690531642, 1.3855274476232307)	(2.0997801885869407, 0.0030409925110994607)	(-3.5633619621258035, -4.7658440055471551)	(-0.17345700671403819, 3.3382328168661246)	1.0	z	1.26209
3	N	B	M	A					A	4	3	shapes	A	4	True	77	(0.74116596368706134, -8.0530528128773611)	(6.6597377900183847, 0.73205588384457876)	(-3.8050972661390219, -3.2123521253482279)	(-5.3792810924167442, 1.2235735948703521)	1.0	z	1.22015
4	N	B	A	A	N	B	M	M	A	8	2	shapes	A	4	True	77	(-1.414611064474026, -5.4778132676105606)	(-2.1065750496053282, 0.98227536156120365)	(3.7883290362287152, 1.361800570829848)	(7.5430624280571656, -5.3476561685788671)	1.0	z	1.5658
5	N	B	A	A	N	B	M	M	B	8	3	shapes	A	4	False	77	(0.19167153407634885, -6.6439710229969329)	(-7.7494205199881536, -5.1625020537397042)	(-5.7797998325568365, 3.4099325605445827)	(5.781473049813755, -5.4472909211663509)	1.0	slash	2.00935
6	N	A	B	N	M	A	B	M	M	8	4	shapes	M	4	True	77	(8.5746231138799587, 7.890533966337852)	(-8.4609022702133476, -1.1660501922834596)	(-8.5764191052873695, 8.4671454983626049)	(1.0550942081144203, 7.2949708759145047)	1.0	slash	1.05283
7	M	A	M	N	B	A	B	N	N	8	2	shapes	M	4	False	77	(5.2573866110952547, -1.1630269255620425)	(2.1216749859766555, 4.5371445347500163)	(6.9463144376791917, 5.5438163269590977)	(-5.6965829517513464, -2.1757563044983499)	1.0	slash	0.694411
8	N	B	B	N					B	4	1	shapes	B	4	True	77	(-7.5071821332460971, -6.3177125702803556)	(-6.5676012210043382, 7.2785200331074051)	(4.2608180479322026, 6.0733612639187058)	(4.9808057834043211, -3.3194770432449179)	1.0	z	0.862257
9	N	A	B	B					N	4	2	shapes	B	4	False	77	(7.6106161190289008, -8.1487846259123167)	(7.6824314498194362, 5.3430275112733145)	(-6.02199271034271, -4.8787748352373645)	(-5.3111876852937154, 4.6463139418388018)	1.0	slash	1.06775
10	M	B	A	M					A	4	0	shapes	M	4	False	77	(-1.3244289290650713, -4.0915050770061532)	(7.609264900618296, -4.1267880293280532)	(7.6687261513410121, 3.4742648039691293)	(-4.5748048778430634, 1.5715237171561753)	1.0	slash	1.24125
11	M	A	A	M					M	4	0	shapes	M	4	True	77	(-3.2439908017240002, 7.8112097491431776)	(3.2803289510575731, -7.0677648337728591)	(6.4921304637853936, 0.82193493165673459)	(-5.3053945384924575, -3.0441341879637989)	1.0	z	0.971077
12	M	B	A	A	N	B	N	M	M	8	7	shapes	M	4	True	77	(-6.7603055289253264, -8.3721240694977137)	(-5.36662311983652, -2.067334399069197)	(0.33811059602021309, -6.3202343565030343)	(0.23618660368863864, 7.2052939031551482)	1.0	z	1.89468
13	M	A	B	A	B	M	N	N	N	8	6	shapes	N	4	True	77	(-2.1875417748160979, 8.6722191350000024)	(4.928498228785271, -6.4148460036325083)	(7.0985250175619505, 8.6018966022763585)	(-0.84433780560724792, -4.5042479693618516)	1.0	z	0.904254
14	M	A	B	M	B	A	N	N	M	8	7	shapes	N	4	False	77	(-7.9125095300932387, 8.7042920468830047)	(-5.025934901615452, -4.7868667649479288)	(4.5622216060961893, -1.779721977018049)	(-3.8882107058470838, 1.3548839257754182)	1.0	slash	0.775996
15	M	A	N	A					M	4	2	shapes	N	4	False	77	(6.0166361010396674, -7.1740604345891201)	(-4.9190423094458149, 4.3658430451761472)	(5.3305494425636244, 8.2670189638373586)	(-1.3583193526943971, -5.4190654450206095)	1.0	z	1.55154
16	M	B	N	M					M	4	1	shapes	B	4	False	77	(0.80461941757688038, -2.4942292657317999)	(-4.4418638677256501, -1.2889931853460039)	(-2.6860660621369608, 6.8792449932258002)	(6.7242974862094247, 8.68436527367545)	1.0	z	0.69914
17	N	A	B	N					A	4	1	shapes	A	4	True	77	(-2.2587347166910137, -0.065458698309269536)	(1.3914587058085726, -4.9524903235541267)	(-8.4964852207139199, 3.194200000045873)	(4.1049771116654874, 0.021309686778831605)	1.0	z	0.98491
18	M	A	B	M					B	4	2	shapes	B	4	True	77	(4.5109979905995274, -6.5369907139949301)	(-4.7584975770690185, -0.29832962977916644)	(-7.7658507509250754, 8.0651019823553298)	(0.31121663269463795, 0.71028890763184727)	1.0	z	0.662542
19	M	B	N	M	B	A	N	A	B	8	7	shapes	A	4	False	77	(1.7147330615366361, -7.9383792172244512)	(5.5183232715736867, 2.273267958765981)	(3.0853346801357748, 6.3290896560786081)	(-7.6383104320515622, 3.4454493217712141)	1.0	z	0.950116
20	N	A	M	A	M	B	N	B	N	8	6	shapes	N	4	True	77	(-5.3961334922872286, -4.5911766388415085)	(0.77052618849965526, -5.6988215696033055)	(6.0354497113856844, 8.0053459954380379)	(-2.6165993498754689, -0.94808158407941256)	1.0	z	1.10174
21	M	B	M	A					M	4	2	shapes	M	4	True	77	(8.5932421239243411, 4.6206479210449238)	(-4.4006034654086212, -6.8025864771666154)	(1.0935029541292778, -2.7644859031539415)	(-3.6880854283811537, 5.771030705975889)	1.0	z	1.08359
22	M	B	B	A	M	N	N	A	M	8	1	shapes	B	4	False	77	(7.2310076838023285, -1.4976294555475107)	(-3.1339880752501372, 1.9911865661832842)	(2.5520220709043375, 0.90670424484394019)	(1.9761418214725506, -5.8573200820151774)	1.0	slash	0.721241
23	N	A	M	N	B	A	B	M	A	8	2	shapes	M	4	False	77	(-5.2656402394767667, -8.1920779798054539)	(4.6922943200547511, -3.1772227891071303)	(7.8439184440906224, -6.4868771041419784)	(-6.0216783101495484, 3.8985279913208313)	1.0	z	1.76677
24	M	B	N	B					N	4	2	shapes	N	4	True	77	(-5.2164866245343831, 8.0785070919326074)	(-6.6320297786304669, -5.6781175991293722)	(5.824109326656707, -5.1548813665358351)	(4.0435677376539534, 3.5157429385383345)	1.0	z	1.79229
25	M	A	A	N	N	B	M	B	N	8	2	shapes	A	4	False	77	(6.0243915084218571, 1.3504509938833138)	(-2.2119857588084342, 3.6150367622343929)	(0.57536915353809803, -3.1439650529976513)	(-6.6689558761328449, -3.7990198592426649)	1.0	slash	0.485954
26	N	A	N	M					B	4	3	shapes	M	4	False	77	(-5.5828674683714343, -8.5118448522552121)	(-6.9286092267427097, 8.4778873606629155)	(7.391861745008292, -3.3151019857301041)	(4.1098177893717818, 3.900820857194061)	1.0	slash	0.959639
27	M	B	B	A					M	4	0	shapes	M	4	True	77	(7.0049177906025655, 7.2636180723612043)	(-1.2998928989725123, 6.1521394311745432)	(-7.0048224455031471, -8.0532957512878038)	(4.5218672999665976, -4.9160622642166194)	1.0	z	1.29719
28	M	B	N	B					A	4	1	shapes	B	4	False	77	(4.0669488822018156, 2.4186679235105046)	(-4.3185831781121928, -1.6329284392218417)	(7.2190796986263948, -1.3084820368139614)	(-5.9538598001530803, 3.4847135947187038)	1.0	z	0.800305
29	N	B	N	B	M	M	A	A	A	8	7	shapes	A	4	True	77	(2.5034681056626216, 4.4774997276130932)	(-8.0273221321838122, 0.46160733010476918)	(-1.4804525177921883, 0.75177067233602202)	(5.1632533647216423, -2.9454622187041402)	1.0	slash	1.32637
30	M	B	N	M	A	B	N	A	M	8	2	shapes	N	4	False	77	(7.9540052824695451, -0.23275917687286451)	(-3.5570866203023472, 1.7540605846807473)	(4.0700074624854068, -7.7929986154241879)	(-0.39883133725019171, -5.2860957066962424)	1.0	slash	1.18597
31	M	A	M	N					A	4	2	shapes	M	4	False	77	(7.1122765559674921, 1.194313095026633)	(-1.2063715706044729, 2.6754831711709954)	(2.2708910458644151, -1.8612388485477895)	(-5.0157881651266667, -6.7236749654814094)	1.0	slash	1.87166
32	M	B	M	B	N	N	A	A	N	8	4	shapes	N	4	True	77	(-4.7451434016800347, -5.6042241048997132)	(1.8601853189616548, 6.4557937354748027)	(-2.3783965122702098, 7.9159357187982202)	(-2.160820176713389, 0.08474063965278944)	1.0	slash	0.733267
1	N	A	B	B	M	A	N	M	N	8	0	shapes	N	5	True	77	(6.4235375706934317, 6.2910350788637022)	(-0.89004438230709404, -5.1666837420091563)	(4.302167850753257, -5.2386310634490716)	(-5.1806488220372771, 6.3864164576979388)	1.0	slash	5.89663
2	N	B	M	M					B	4	2	shapes	M	5	False	77	(-0.91209981694190567, -0.07231801222132539)	(8.2065961380721255, 2.5325135672676087)	(4.0578490608613045, -2.5263683238541716)	(-6.2953479268099528, 1.0778173549079195)	1.0	slash	0.680211
3	M	A	N	N					M	4	1	shapes	A	5	False	77	(3.5442277648077258, -8.2512432079687201)	(-6.2739946652996572, 5.0444950568254647)	(7.6447837899574616, 1.936090719991741)	(-2.0091585191155419, -8.0019540652343117)	1.0	slash	0.689806
4	N	A	A	B					N	4	0	shapes	N	5	True	77	(-1.1128169960396272, -0.7244817452094594)	(1.8441902135723218, 6.0008377158184452)	(-3.1730460431777523, 8.4011825572937227)	(4.2308257271395586, -0.85344425642533661)	1.0	slash	0.473607
5	M	B	M	B	A	A	N	N	M	8	1	shapes	B	5	False	77	(4.6599165827169813, 4.4716357820870734)	(-2.8354409571273491, 5.7624067553582314)	(-4.0474107649743907, -2.1349547056729019)	(-5.9675045660375714, 3.140510813269584)	1.0	slash	1.62325
6	N	B	N	M					N	4	2	shapes	N	5	True	77	(-4.4427915264018729, -4.702689273766989)	(7.3919170858021488, 1.5361647986009288)	(-8.4023044843114114, 1.4884955991976145)	(7.9911123307234604, -4.0335296628593618)	1.0	z	0.884855
7	M	B	B	M					B	4	1	shapes	B	5	True	77	(4.8123884844980935, 4.1083549426543708)	(-7.277069156314262, 4.3502733976768209)	(-5.8399090642497518, -3.6222019717843592)	(1.9600547100867995, -5.0205007154826458)	1.0	z	0.526456
8	N	B	A	M					N	4	0	shapes	N	5	True	77	(6.8506400166629113, 0.91785273550406998)	(-3.8797676978210767, 6.0161581750842075)	(1.8385495375163217, -1.2239843174068881)	(-4.1629437564556335, -6.0378526730071922)	1.0	slash	1.18423
9	M	B	B	A					A	4	1	shapes	B	5	False	77	(-6.086383781696906, 0.40699697517947442)	(5.2057915516932365, -1.8404704057645445)	(-4.0539318340041604, -3.678135015816812)	(8.1106883942342414, 7.4178526042519479)	1.0	slash	0.861736
10	N	A	A	B					A	4	1	shapes	A	5	True	77	(8.6588335953290034, -5.3181440052403968)	(-1.5701333343099551, 6.3699762205405435)	(3.9872439989789079, 3.4255916577201493)	(-0.64033628294745526, -3.829162375458286)	1.0	z	1.13952
11	N	A	B	B	M	N	A	M	B	8	2	shapes	B	5	True	77	(-7.4323596909204737, -0.41223172149368636)	(2.2277006994128179, 4.7039849203659756)	(-7.8581860367436631, 4.2221117029853446)	(2.3921342014409603, -2.7201325706736164)	1.0	z	2.39694
12	M	A	M	B					N	4	1	shapes	A	5	False	77	(0.25495455982857074, 6.1144940100408203)	(-7.6364712873583267, -8.5361121653166077)	(3.4556580409094142, -2.0451301677562297)	(-5.6435784783400402, 0.54387523529342907)	1.0	z	0.48071
13	N	B	M	M					B	4	1	shapes	B	5	True	77	(7.8189906875888191, 4.2137210435835346)	(-1.8478785109000135, 1.6587142177288765)	(-5.2249936512324719, -5.3563760397588904)	(5.0969904412551337, -4.0461040180094479)	1.0	z	0.458292
14	M	B	A	N	M	A	B	N	A	8	1	shapes	B	5	False	77	(1.1889039433534023, 6.5924325597774729)	(4.1919229519562524, 2.1100661259176121)	(5.4992621535629223, -4.8954810358482428)	(-0.30538786767770887, 2.7754255579909461)	1.0	slash	0.500118
15	M	B	B	A					B	4	2	shapes	B	5	True	77	(0.40006259849961978, -5.4073071807471109)	(6.2763186772074029, 2.4520744044511886)	(-7.7750866496392081, 1.0002573384925348)	(-3.4727093430442348, -1.1871203806723116)	1.0	slash	1.36959
16	N	A	M	M	A	N	B	B	M	8	3	shapes	M	5	True	77	(-4.9888951736980767, -4.9565281192218142)	(4.4140871496752041, -2.2465386858297176)	(-1.4240968886894496, -2.3352539149385771)	(-6.4336951242989224, 4.5810687973013309)	1.0	slash	0.853248
17	M	B	N	M	N	B	A	A	M	8	3	shapes	M	5	True	77	(8.1162756446308819, -0.98351742881591786)	(-5.4663421436545701, -2.8481946755344119)	(2.0202641366315657, -1.7925390654423223)	(4.0409835162719023, 3.2707486270571486)	1.0	slash	0.678784
18	M	A	N	N	B	M	B	A	A	8	7	shapes	A	5	True	77	(-2.1704222285068546, -2.8525103859056431)	(-0.068578869302008627, -7.7410231244444425)	(5.0002327032375717, 5.7605137267952102)	(-6.4559609401865909, 3.9936537949954278)	1.0	z	0.972508
19	M	B	B	N					M	4	2	shapes	B	5	False	77	(-7.1876760361699201, -1.3940801897053055)	(8.1580862746230167, -0.36176582999015849)	(-0.058087539919869258, 1.1498609898213026)	(3.1570402707807705, 6.7170686045746617)	1.0	slash	1.09992
20	M	A	N	A					A	4	2	shapes	N	5	False	77	(7.8306224347357585, 5.0412492303162306)	(-0.73114906042811079, 8.0689001099798112)	(8.5628569623485902, -3.0699529467342659)	(-6.2286683043818751, -2.89476614298583)	1.0	slash	1.18571
21	M	A	N	A	B	B	N	M	A	8	3	shapes	A	5	True	77	(-3.4645699013260733, 3.5748662748957756)	(3.0614236855086006, 1.6221157542081883)	(-2.8187262958091139, -6.4390379827878395)	(6.7754741962659129, -8.2399639585365776)	1.0	slash	0.834906
22	M	A	B	M					A	4	3	shapes	M	5	False	77	(-7.7266710504139269, -2.4646461452746911)	(1.640044992827745, 0.69684615167352426)	(2.5739513792014357, -4.8211495572978844)	(-7.2660352491442568, 4.8510920747980126)	1.0	slash	1.15707
23	N	A	N	M	M	B	A	B	B	8	6	shapes	A	5	False	77	(-5.6675397790664572, -1.0857449863329069)	(-3.6270638861124036, -7.0604999642658743)	(-1.1680048718192122, 6.2607777979067478)	(5.5812875957386776, -2.0447279672664758)	1.0	z	1.12273
24	N	A	N	B	M	A	B	M	A	8	0	shapes	N	5	False	77	(3.1430645316459831, -3.8870896194789104)	(1.4157484672936587, 3.4487697005544575)	(6.2803543198483016, -6.7808037312054301)	(-8.5775850972309797, -6.3233920043178724)	1.0	slash	0.856232
25	M	B	B	N	A	N	A	M	B	8	1	shapes	B	5	True	77	(-4.48226200788607, 2.388952562287864)	(8.5164050625543872, 3.3523909825480391)	(0.87032256593277069, 7.652131922688703)	(1.592126821231485, -3.8710979039218483)	1.0	slash	0.473899
26	M	A	B	A	M	B	N	N	B	8	6	shapes	N	5	False	77	(-4.5525581293983475, 6.3446309169459578)	(8.0985493234407677, 6.2768321708773431)	(3.8352500830174048, 5.872614321747518)	(-2.5084770557261757, -7.2672928176898877)	1.0	slash	0.927739
27	M	A	A	N	N	B	M	B	N	8	4	shapes	N	5	True	77	(0.57554690082244875, 7.4514155453797422)	(4.8513094469032385, 4.5610519475869502)	(-8.456724827970076, 2.192830403000352)	(4.3628182919071428, -7.0471230439619648)	1.0	slash	0.675193
28	N	A	B	N	A	B	M	M	A	8	2	shapes	B	5	False	77	(7.0768414147901453, 0.28665287165190456)	(-3.4740799573544878, -3.8125099274316572)	(5.7990466682218926, 4.7108341978528632)	(-0.71205881215873035, -7.6016120739091573)	1.0	slash	1.84285
29	M	B	B	A					M	4	0	shapes	M	5	True	77	(-6.7584338543854781, -4.9805789980078714)	(-0.039469709584118107, 0.50242033720283175)	(4.0088506716810386, 6.461471429079527)	(4.0884474092518843, -0.74887238767728448)	1.0	z	1.05257
30	M	A	A	M					B	4	3	shapes	M	5	False	77	(-3.153346234928633, 3.147490788530634)	(3.6240072756399631, 6.4820429152854135)	(7.8155230572422738, -8.4632101280436078)	(-6.6835501524991514, -4.4055739443874211)	1.0	z	0.875552
31	M	B	A	N	A	B	N	M	B	8	2	shapes	A	5	False	77	(-7.1493567171751629, 6.9281353559877665)	(4.4294472765897819, -2.0155937223092044)	(4.4336878885063786, 7.7822624710362405)	(0.34860875423785131, 6.1581851044863498)	1.0	slash	1.04975
32	M	A	M	A	N	B	B	N	M	8	6	shapes	B	5	False	77	(-7.7224131704540699, -4.2322075286255183)	(3.7632891619701621, -6.8236303368797708)	(-5.565909830521969, -7.6800593623112965)	(-0.6074052939908281, 6.8204699705159157)	1.0	slash	1.62146
1	M	B	B	M					N	4	0	shapes	M	6	False	77	(6.9218546127843386, -1.3030309336985963)	(-1.5763123930398208, 5.9757203580670346)	(7.1016050967292141, 3.8380487994626034)	(-5.9821478230632881, -3.311522607558806)	1.0	slash	1.34708
2	M	B	B	A	M	N	N	A	A	8	6	shapes	N	6	False	77	(8.7035028675154962, -8.1791766383977489)	(5.0324013811593886, -5.5045704641439102)	(2.8246573069118579, 5.6571880930160745)	(-0.67159452106613315, -2.8665837663850615)	1.0	z	0.970635
3	M	A	M	N	A	N	B	B	M	8	7	shapes	B	6	False	77	(-0.62820013563208832, 4.5708578623909091)	(-2.7763177034137794, -3.842374337046901)	(1.0279079336706403, -6.9952167163581223)	(1.9372394229101815, 0.71810875459911117)	1.0	slash	0.55024
4	N	B	B	A	A	M	M	N	A	8	4	shapes	A	6	True	77	(-2.7099117494321812, -2.2156632229128146)	(0.057411658184905789, -8.0991920689689856)	(-6.1319043589917168, 0.14777110364266832)	(4.9890424933301336, -7.5266365668179205)	1.0	slash	0.694041
5	N	B	N	M					M	4	0	shapes	N	6	False	77	(-1.7444742750763096, -2.5866709499767628)	(3.7786538476909772, -1.5610834754434633)	(-4.5487324600829604, 6.2945742065189272)	(1.7036779607165027, 2.3991831060367854)	1.0	slash	3.43745
6	M	A	N	A					M	4	0	shapes	M	6	True	77	(8.6511580667710284, 6.375200458596245)	(-5.2102941821300277, 6.8261857513276052)	(1.6159579973184233, -5.3242101585844877)	(-7.136751634378351, -7.7192245897239182)	1.0	slash	1.19318
7	N	B	B	M	A	N	M	A	N	8	2	shapes	B	6	False	77	(8.2620189880256234, 4.9614419790550333)	(-7.1419593715802971, 6.6999291038311863)	(0.60789496317231873, 8.3948195007578654)	(-7.0300180181677003, -5.9966175241731499)	1.0	slash	0.854485
8	N	A	B	A					N	4	3	shapes	A	6	False	77	(0.70834603417545239, -1.1371028921360899)	(-6.1706301337607554, -4.2524283940068699)	(7.0356672688562547, 0.33170944187839702)	(-2.5407331067029899, 2.1679572784335672)	1.0	slash	0.735105
9	M	A	B	M					B	4	2	shapes	B	6	True	77	(-1.8704660233467019, 2.1430205374928342)	(-1.5998263973385747, -3.1618004374368374)	(6.0534070482351989, 3.7054612807252791)	(1.5503658115040917, -0.037099950744389432)	1.0	slash	7.22976
10	N	A	N	B	A	B	M	M	A	8	1	shapes	A	6	True	77	(2.76008388569376, 7.7952833897282616)	(-5.8994869058579571, -2.3300138054015305)	(3.606031550045012, -5.7173765109177044)	(7.7155525284006217, -4.7060832508851185)	1.0	z	0.89323
11	N	B	A	B					A	4	2	shapes	A	6	True	77	(-2.9950010617817719, 7.7525586823916335)	(6.2415860528970377, 6.0167202641457607)	(-5.645303156442071, -3.3522257606858084)	(3.423163253122814, -0.20637478614358606)	1.0	z	0.61286
12	N	A	M	B	M	B	A	N	B	8	4	shapes	M	6	False	77	(-0.53540622894225187, -4.319104061263312)	(6.5617006286096657, 5.4594847961321324)	(-4.3570784222978878, 3.6766618508082445)	(-7.1652259645385392, -7.2269499980475072)	1.0	slash	0.958509
13	M	B	M	A	B	N	N	A	M	8	3	shapes	A	6	False	77	(-5.5251161620934717, -5.2102563751623183)	(7.9653306751441768, -6.2222410875113532)	(-0.74303725099247409, -0.56760863326122291)	(-2.6165719828840057, 3.0015619572031937)	1.0	z	2.46803
14	M	B	N	N					B	4	1	shapes	B	6	True	77	(4.6325571775264685, -6.4492673741560349)	(-2.8363538019046279, 4.2632595561680304)	(3.9753651273712158, 0.56868904393229158)	(-4.4667800094264907, -6.0417252991178039)	1.0	z	0.769668
15	M	A	A	M	N	N	B	B	B	8	6	shapes	B	6	True	77	(-0.49835683921983787, -2.8728476899495856)	(-2.7469544533583869, -7.0718534397124699)	(8.0150232538228501, -6.5669384494935521)	(0.59387182224940993, 7.3105421048028134)	1.0	z	0.637272
16	N	B	N	M					A	4	0	shapes	N	6	False	77	(-1.8244245974204851, -1.5360542844523186)	(1.3824560597258113, -5.9580960012948712)	(2.2784011867076313, 7.7980640190419557)	(-3.8263513570157892, 3.2633340147923597)	1.0	z	1.96887
17	M	A	A	B					M	4	1	shapes	A	6	False	77	(1.7960123231928655, -2.4437090656293368)	(2.5185745164569351, 7.4776094815696155)	(-7.1043708852156122, 7.0833015819925116)	(-6.4184160954367862, -1.6757465332460901)	1.0	z	3.55245
18	M	B	M	B	A	A	N	N	B	8	7	shapes	N	6	False	77	(-6.3698748045353062, 6.028004394737712)	(-5.9595256921445507, -2.8813250484270796)	(3.4214703663774308, -4.9448095181414891)	(-0.62179191940285961, 7.8504242598005867)	1.0	slash	1.02191
19	M	B	M	B					B	4	1	shapes	B	6	True	77	(-4.6073898827297075, 1.7829688962332035)	(8.0647636881053906, -0.55332369477911669)	(2.9940507004867474, 8.1165885409212528)	(-7.4900276539989967, -8.4936623136400442)	1.0	z	1.46771
20	M	B	A	N	A	N	M	B	B	8	7	shapes	B	6	True	77	(5.0584319113525957, 3.1589358683675393)	(1.8276371779430125, -1.3077457562684707)	(-4.0530723110707552, 4.1193790809760973)	(-7.8905128477411104, -0.064602679109119876)	1.0	z	0.861292
21	N	A	M	A	M	B	N	B	M	8	4	shapes	M	6	True	77	(-7.6136877390879603, -5.0520493345115014)	(4.0146616884556483, 3.1855219318604497)	(-7.3035218350404518, 6.3325081333588447)	(-2.0000257441635663, -2.6387387733492593)	1.0	slash	0.652901
22	N	B	M	N	M	B	A	A	B	8	6	shapes	A	6	False	77	(-4.0662824772830968, 1.0979459427143787)	(2.4967490789349682, -1.6342319276874262)	(-4.3383099383085275, 7.9270235889556062)	(-3.103288056874197, -5.7698319586194238)	1.0	slash	0.934505
23	N	A	A	M	M	B	B	N	N	8	0	shapes	N	6	True	77	(3.2161375661593237, 3.943665270459336)	(-3.7019818696046505, 3.7538367002313713)	(-7.1725059991249687, 8.126159417968811)	(8.4796637821461189, 5.7673251681571056)	1.0	slash	0.568202
24	N	A	N	B					A	4	1	shapes	A	6	True	77	(4.5635042083343276, -6.5611799510821287)	(3.4986460681853071, 7.1706276203375499)	(-4.1174782067615618, -3.8428167556466564)	(-1.2849549139013545, 6.581673452547216)	1.0	z	0.785968
25	M	A	A	N					N	4	2	shapes	A	6	False	77	(0.64699637764750939, 8.5042061761627608)	(-2.992235755210694, -0.16953143115045322)	(-6.6318475808356965, 4.0745619248977576)	(1.4757127703420494, -1.6460173203782089)	1.0	slash	0.879545
26	N	A	N	A					N	4	2	shapes	N	6	True	77	(-6.4372770307323002, 7.8424882840484038)	(4.0647836235088555, 3.5120877847566163)	(-8.4475822018981859, -7.8156957769539792)	(2.0980591286804966, -0.58400500637696418)	1.0	z	0.713278
27	N	A	B	B					A	4	3	shapes	B	6	False	77	(3.0755262112713151, -4.0386768527751151)	(2.4974786003794911, 5.0326464080514022)	(-2.2467076650061983, -0.85102978805626339)	(-5.8167676949820821, 7.0563658570205696)	1.0	slash	0.796784
28	N	B	B	N					A	4	2	shapes	B	6	False	77	(-6.4103432435774215, 5.7389506352230271)	(-7.2941107142715831, -4.7378452768076507)	(2.3862449975937885, 4.1016722763865037)	(1.8889399666234539, -2.2830133696571711)	1.0	slash	0.792386
29	M	A	N	B	B	N	M	A	M	8	6	shapes	M	6	True	77	(8.3759397121570736, -6.2648576257331614)	(6.7628993025411805, 4.6571132648989213)	(-5.8891227159064776, 5.7614935474078113)	(-7.6708099262725966, -8.1061592033122061)	1.0	slash	0.790178
30	N	A	B	N	B	M	A	M	M	8	0	shapes	N	6	False	77	(3.0264950064025768, -5.469830513020649)	(-2.712541797676816, 3.5805532372125324)	(0.19205179231299496, 0.07247134809396627)	(-7.1979112874109186, -6.3027225620379763)	1.0	slash	1.57973
31	N	A	A	M	N	B	B	M	A	8	1	shapes	A	6	True	77	(-4.5330496218015011, 1.7458972358689451)	(7.703057936855874, -6.382213259342997)	(3.8796564003804814, -4.6151386900752618)	(-5.9733655269125094, -8.0024742911607429)	1.0	z	1.48515
32	M	A	M	A					A	4	1	shapes	A	6	True	77	(2.3662861040338665, -2.4283256975133565)	(-1.848195763721634, -4.434919955658982)	(3.8804846564492834, 6.8106001648094434)	(-5.5190028948059409, 2.5685288221314764)	1.0	z	1.45498
1	M	A	M	B					M	4	1	shapes	A	7	False	77	(4.7918392080665111, -1.1987613840550235)	(-4.1691422946079992, 5.9174868312573192)	(-8.6874962424602469, -2.5943268549491325)	(3.7509663629227674, 7.3984636445254495)	1.0	slash	0.846589
2	M	B	A	N					N	4	2	shapes	A	7	False	77	(-2.9134008452377529, -5.6087801835353019)	(-0.27195179415442361, 5.268664874896869)	(6.2766741928561345, 6.0528753865870719)	(5.0573998317800299, -2.5355232735973212)	1.0	slash	1.04816
3	N	B	B	N	M	M	A	A	M	8	5	shapes	M	7	True	77	(-6.5970356205396081, 8.4199108701812051)	(4.3693582671136451, 3.8248877393527803)	(-2.7255500289069117, -6.9722739224975481)	(-7.8114674257363221, -7.2913322556836251)	1.0	slash	0.995681
4	N	B	A	N	A	M	M	B	N	8	7	shapes	B	7	False	77	(3.3987154398524009, 3.8775399579444318)	(-5.4002180420961148, 2.2930462077027851)	(8.7187848224616218, -8.3841150689340438)	(-0.41761213753436977, -8.31875443566455)	1.0	slash	0.849553
5	N	A	M	N	A	M	B	B	M	8	2	shapes	M	7	True	77	(8.5169089496007899, -6.7702696450256958)	(5.2116012071512721, 2.3301198438203468)	(0.29686869226312318, -5.1220339086811704)	(3.0532754709152705, 8.7490736116128538)	1.0	z	0.821217
6	M	A	A	M					M	4	3	shapes	M	7	True	77	(4.590486940678467, -1.5322635671471501)	(-6.5602619211022795, -2.7145977752591088)	(-0.79994134706909747, 3.1590903533124273)	(0.24335298646268377, 7.6229539618553765)	1.0	z	1.11433
7	M	B	N	M					B	4	2	shapes	N	7	False	77	(-3.8035296808033561, 5.791002480237708)	(0.23576844310828271, 4.1692045056048848)	(-7.2949844966372535, -8.2346774354693082)	(2.7597662390125652, -8.1685143520109058)	1.0	z	0.910327
8	M	B	B	A	M	N	A	N	A	8	2	shapes	B	7	False	77	(3.8706357894928463, -4.6086745074366933)	(-3.5237199414779559, 3.5920577235895106)	(4.6038564024068975, 5.6561441790255049)	(-3.3864647208420928, -8.217242755166394)	1.0	slash	0.966025
9	M	A	M	A					A	4	3	shapes	A	7	True	77	(-1.1377061672479423, 2.1012914988540068)	(7.3605656510130544, -1.0047942265244494)	(-8.4601330039894336, -3.0559373605564639)	(7.1749548989559226, 7.1621418197731721)	1.0	slash	1.82346
10	N	B	N	M	M	A	A	B	B	8	5	shapes	A	7	False	77	(4.6867525426496517, 3.5558245367164041)	(-6.3197449616546306, 5.0560986692795389)	(-0.27570588609832392, -8.3324210987396015)	(8.1459760483032433, 8.5932537336871988)	1.0	z	0.844876
11	N	A	A	B					N	4	0	shapes	N	7	True	77	(-3.8297797511026808, 4.9087119511727337)	(7.0377784674422958, -1.6791160515635664)	(-3.5619973396395093, -4.8646728134021302)	(5.9559102589632396, 5.6261560661545982)	1.0	slash	0.958762
12	N	B	M	B	M	A	N	A	M	8	4	shapes	M	7	True	77	(-3.981940695783079, 0.60742554371593904)	(-3.1979778100090126, 5.0125533712797754)	(7.2367431127629107, -6.5722041449785902)	(4.294536679375172, 0.1320560932620225)	1.0	slash	0.772555
13	M	B	B	A	A	N	N	M	A	8	2	shapes	B	7	False	77	(-0.13692424682938231, 2.4710078775647055)	(1.2781999041124372, -6.908472300435216)	(8.3229654133746003, 3.1894398236951123)	(-2.1485097863282654, 7.6892534509941868)	1.0	slash	0.702216
14	M	A	N	B	B	N	A	M	M	8	3	shapes	B	7	False	77	(-0.84891366984281369, -6.5048563465634093)	(4.4699754420867404, -5.2833923356635353)	(-7.6023909678592165, -3.4234574095179688)	(6.5088509344642365, 5.1387007972067025)	1.0	slash	1.29588
15	N	A	B	N					N	4	0	shapes	N	7	True	77	(-3.3091548078042567, 6.3878379213120215)	(1.0653684695480141, 4.9590762734476197)	(-0.073155608967599761, -8.6845893964462011)	(7.6729365736313717, -3.7792036166023717)	1.0	z	1.7273
16	N	B	M	M	B	N	A	A	B	8	2	shapes	M	7	False	77	(-0.75172489809339371, -7.0326619195456681)	(4.404949800567552, 5.2068706590226181)	(6.940139489115575, -8.5782958126850932)	(-7.8586647188000827, 1.4803040366897289)	1.0	slash	1.06519
17	N	B	A	N					A	4	2	shapes	A	7	True	77	(-5.3505313052846368, 5.3687292521603514)	(2.4068603593102029, -6.0949778654240561)	(7.9339771066532521, 2.7487520939444359)	(-1.772248363832964, -8.5472516108471517)	1.0	slash	0.878584
18	M	B	N	M					M	4	3	shapes	M	7	True	77	(6.2776761913092152, 5.7559328854434479)	(4.3625144842943833, -5.7382843986765915)	(-4.1442083041463063, -6.8387329215109229)	(-4.0579454968221729, 0.87031302349557649)	1.0	z	2.19226
19	M	A	M	B	N	N	A	B	A	8	5	shapes	N	7	False	77	(2.6100185367575879, -3.6463540018814138)	(-6.3322059503400663, 7.504469768029491)	(3.9954294284934395, 3.3293179223192233)	(-2.3810160114309964, 6.8073553247127592)	1.0	z	1.05393
20	M	A	B	N	B	M	N	A	A	8	1	shapes	A	7	True	77	(-8.0428754372340165, -1.1135859773215744)	(-6.9748630145596433, -7.5704078814848925)	(-4.2452217366677036, 3.5391447583405373)	(0.52805178676384301, 1.3344839929540182)	1.0	z	1.4476
21	N	B	A	B					B	4	0	shapes	N	7	False	77	(-0.68589248870764408, -2.9152621641812848)	(-3.2935543803188043, 5.934070510512468)	(3.2050239126034992, 0.5916915085302481)	(3.1836507336774496, -4.6826591147469623)	1.0	slash	3.11308
22	M	A	N	A	N	M	B	B	M	8	5	shapes	M	7	True	77	(-3.6427433370746822, 1.1103773023570565)	(-3.2851793674379444, -3.12884143844314)	(5.3799233194740879, 1.1412381672801111)	(-7.7775327530543148, 2.7855406075864142)	1.0	slash	1.07864
23	M	A	M	N					A	4	2	shapes	M	7	False	77	(-2.4265374323401421, -4.9426587838607148)	(8.0620093604804204, -4.2173506327488406)	(-1.5327014193262132, 3.303643573597709)	(4.4913575091356979, 6.2907331254986616)	1.0	slash	1.12828
24	N	B	N	M					N	4	3	shapes	M	7	False	77	(4.0827625976892588, -6.2038485637777896)	(-3.1853919569568845, 4.4098478006608843)	(4.1734554479840309, 2.8991681339958966)	(-4.9202867995501656, -2.1434991358412345)	1.0	z	0.687873
25	N	B	N	M	A	B	M	A	M	8	1	shapes	B	7	False	77	(7.9679545757579717, -2.59786805536464)	(-7.357633356379349, -8.3152307683491689)	(3.8428627513937954, 5.429063990936255)	(-7.4541161783933498, 4.5225982278908727)	1.0	z	0.555605
26	N	B	N	A	M	B	M	A	B	8	1	shapes	B	7	True	77	(7.1629854307947483, -7.2126373499744467)	(-5.135267667581183, -2.5844414703789296)	(1.5800033907648867, 8.1593443170777959)	(-5.4397512155773899, 3.0742856183481209)	1.0	z	0.585189
27	M	B	N	B					N	4	2	shapes	N	7	True	77	(2.1794312481335592, -5.4080584730797909)	(-1.3425301985394249, -0.40590731022138726)	(7.4763459034812065, 1.4210306485501931)	(-6.4539538971238013, 5.2778530749718531)	1.0	slash	1.32697
28	N	B	M	B					M	4	1	shapes	B	7	False	77	(4.3116366707261502, -7.7270143960701274)	(0.57769499433107363, 2.9106878615392713)	(-6.7069964789536431, 4.6699191237779445)	(-0.45889199299259253, -1.2166940630508156)	1.0	slash	1.27254
29	N	A	A	B					A	4	2	shapes	A	7	True	77	(1.847932014249567, -0.707486095861249)	(2.5781863907277245, 3.3272405467067578)	(-7.3720521595270139, -5.4714050455088978)	(-6.5247385553063779, 4.9091955046791771)	1.0	z	1.38808
30	N	A	M	B	A	B	N	M	M	8	2	shapes	M	7	True	77	(2.4197702724884849, -0.9154606546485784)	(-6.6612663803088914, -8.303041962242478)	(-2.0399910144338591, -3.9288876480267385)	(5.853584678821008, -8.030756124315019)	1.0	z	0.749713
31	N	B	M	B	M	A	A	N	N	8	0	shapes	N	7	True	77	(2.7909488095837727, 1.3776552124321935)	(-3.4502793182572749, -7.0089705453227147)	(7.3908778961403847, 6.7762240132811442)	(-8.0823929628169449, -4.6919044421893794)	1.0	z	1.14731
32	M	B	B	A					N	4	2	shapes	B	7	False	77	(7.2657420195290143, -0.37176840052906535)	(-0.10661166653687459, 2.1176784217734621)	(5.3433206087044756, 6.5991059338653777)	(-5.977688424472519, -2.5572245418963062)	1.0	z	2.32102
1	N	A	M	A					N	4	0	shapes	N	8	True	77	(2.6585998450922652, 1.4571302072945951)	(-0.85588569957714267, 4.3850569360222735)	(1.2926336125264122, -2.5832100552043711)	(-5.5481964279812033, -1.2324167889036604)	1.0	slash	0.676466
2	M	B	M	A					B	4	1	shapes	B	8	True	77	(-3.489929038517996, -0.26802985533320012)	(5.9877800795984104, 4.2584672408505249)	(-4.405528272361269, 4.398451342516184)	(0.072563752394074754, -2.4084894483713644)	1.0	slash	1.10416
3	N	B	A	M					M	4	0	shapes	N	8	False	77	(7.144123020813451, -0.87738273304027903)	(-7.1641896360745667, 3.8353675428908076)	(8.2793408264012491, 4.3073322228757327)	(-4.0983819608145584, -6.1267750809119619)	1.0	slash	0.685809
4	N	B	M	B	M	N	A	A	A	8	1	shapes	B	8	False	77	(-0.53034892566577341, -8.1278798268971677)	(-7.233283490454478, 1.1596641094287978)	(-4.4782262811251909, 7.2016309841545869)	(-7.6691524011582999, -6.924766381886311)	1.0	z	1.23344
5	N	B	N	M	B	M	A	A	M	8	4	shapes	B	8	False	77	(8.425924943918627, -5.9580711863556068)	(3.6663430138541955, -2.2383338042887155)	(-0.75201138008495061, -7.7171726087514099)	(5.8106827822743234, 1.7550420605671562)	1.0	slash	0.743108
6	M	B	N	M	N	B	A	A	B	8	5	shapes	B	8	True	77	(-1.8134968917148315, 3.3633138614693543)	(1.9808921021572719, -3.8483254625017791)	(5.3010775349724906, 8.5309298197072039)	(-2.2625733960545018, -4.480049224759636)	1.0	slash	1.03868
7	M	B	A	A					M	4	0	shapes	M	8	True	77	(-2.865593454448863, -5.8753710505576846)	(2.1263912542480394, 7.1041347966750017)	(7.8567009971488098, -4.5802364555917308)	(-3.0497933882873687, 5.8790173717025418)	1.0	z	0.736449
8	N	B	B	A	M	A	M	N	N	8	7	shapes	N	8	True	77	(-3.6804246459960002, -8.3671536320435038)	(5.1999299195770217, 2.8110410782805673)	(-4.3342369894347357, -0.97591141998316466)	(-2.7502523595585178, 4.3364973953488715)	1.0	slash	0.856107
9	N	B	N	B					M	4	0	shapes	N	8	False	77	(8.5339548507915808, -2.0213706127503936)	(8.1658197551137555, 8.7359728881592318)	(-0.82960199661009071, -2.8377541619214917)	(-4.7605909399633806, 6.9846339991392146)	1.0	slash	0.655666
10	N	B	N	M					N	4	0	shapes	N	8	True	77	(-2.1131791156257798, -2.2500774449322813)	(7.6895410354655169, -1.7577537880188219)	(-3.3396440926636295, 5.8277278799882009)	(3.8941766794428769, 4.5686046943307819)	1.0	z	0.655293
11	N	B	M	M					B	4	1	shapes	B	8	True	77	(-4.6297862066114961, -4.8891413947058222)	(4.0207277383899704, 4.5971783052896349)	(3.086319446851407, -5.1742113280956366)	(-2.9069568422664069, 3.2036099265032369)	1.0	slash	0.991122
12	M	B	N	A	N	M	A	B	N	8	1	shapes	B	8	False	77	(-4.2788772712572483, 8.2438457313339732)	(-2.9561266318586688, 4.2751689763216021)	(8.4363971003847062, -0.73340584298203737)	(3.1018908072329818, -6.6272375759042763)	1.0	z	0.792674
13	M	B	M	N					B	4	2	shapes	M	8	False	77	(0.3896211477081426, -2.6093602646652316)	(-3.9802211157768719, 1.7035873380069457)	(8.5246016583187298, 0.95244814345189788)	(-6.361879058757669, -8.0770300565935766)	1.0	slash	1.42039
14	N	B	N	A					N	4	1	shapes	B	8	False	77	(4.647049081981347, 6.1684970775223089)	(-1.5600702320402711, -6.5001684300274327)	(-7.6375191136463538, 7.6433211099979204)	(1.0161262308914374, -2.8077774849562536)	1.0	slash	1.1939
15	M	A	M	N	N	B	A	B	A	8	6	shapes	A	8	True	77	(5.8611378839323756, -4.4967222366245929)	(0.78444688260360174, 1.9559448374663209)	(-0.66612266635213757, -8.1330898335035045)	(-0.71393448344263, 7.2336855572744518)	1.0	slash	0.503552
16	M	B	N	B					N	4	2	shapes	N	8	True	77	(-5.2552795536202712, -5.4131493237339594)	(-5.4593746997701711, 3.1908748555015602)	(2.1823658489879971, -7.0326482577365272)	(0.40440453535191168, 1.1795649015367129)	1.0	slash	0.517394
17	N	B	A	M	N	M	B	A	N	8	6	shapes	B	8	False	77	(4.1324730729156549, -1.3896159908468606)	(3.6237378269821114, -7.8737781098881214)	(4.8168251369462567, 3.4735602890667749)	(-4.6441938803795058, 3.6459652077429627)	1.0	slash	6.50657
18	M	B	A	N					N	4	0	shapes	M	8	False	77	(-2.0361654910269706, 1.7119925674415502)	(3.8251107971617007, 1.1679068947784561)	(-6.7833715812837649, -5.8106560672329568)	(4.7128317392677825, -6.9703552429319542)	1.0	slash	0.952088
19	M	B	N	N	M	A	A	B	B	8	2	shapes	N	8	False	77	(-4.8932435539012902, 4.48868192425528)	(8.668789596844114, 4.4400194659355439)	(1.0145664829777434, 2.1956432969861179)	(-0.82870960749057865, 8.4148758580968277)	1.0	slash	1.10968
20	M	A	N	B					M	4	3	shapes	B	8	False	77	(6.0548439892267911, -3.2505302184386089)	(-0.63028895112273453, 3.0899958532226055)	(-2.9070651059740689, -2.4179650090851066)	(4.9699823376177115, 5.3135850964807574)	1.0	slash	0.641366
21	N	B	M	A	M	A	N	B	B	8	1	shapes	B	8	True	77	(-6.1723959912142128, 4.3449267498483035)	(5.9767966953995124, 6.3833524626818132)	(1.4728168801500949, 8.5814523016768547)	(-0.04180286344033135, -2.9471469018486856)	1.0	slash	0.759159
22	M	A	N	B					A	4	2	shapes	N	8	False	77	(-5.2139283453340921, 8.2539260292667898)	(1.8793067483591912, 5.8633595364035482)	(-6.9829056708694459, -3.4764955474316688)	(3.9934298865661688, -8.7112418192520451)	1.0	slash	0.632708
23	N	A	B	M	N	A	B	M	A	8	3	shapes	M	8	False	77	(-4.087084592346458, -2.3583602081317547)	(-3.9827242909309284, 5.9446955247313316)	(2.3610646218626812, -3.362560133385605)	(6.5607608709912135, -2.7273776068654705)	1.0	slash	1.01231
24	N	B	M	B	N	A	A	M	B	8	0	shapes	N	8	False	77	(-7.3232893656015854, -1.6665106782260208)	(-1.7094526133457908, 2.479651042143292)	(-2.6386570570298185, 7.3279030570370018)	(-1.7876652108488953, -5.494396742444513)	1.0	z	0.917917
25	M	A	A	B	B	N	N	M	B	8	4	shapes	B	8	True	77	(1.1505852635429008, -3.9534542351877082)	(1.2340667591390488, 2.1615652991539012)	(8.3041038277432691, 3.178662061416702)	(-3.6007351080998493, -4.2098091320067894)	1.0	z	3.5396
26	N	B	M	B					N	4	2	shapes	M	8	False	77	(-2.8730572322754604, 4.5364026403375313)	(-7.4222786597997112, -1.4455816337848315)	(5.7691806872730336, -1.9027690024403059)	(8.3427709130111722, 3.8557891205881862)	1.0	slash	1.13702
27	M	A	N	N					N	4	3	shapes	N	8	True	77	(5.4114761777247455, -0.1587857868763809)	(-3.1177739058103944, 0.50231431983343811)	(-3.5510414272336268, -8.6644825668917917)	(5.2723603496704605, 6.7770180032622793)	1.0	z	1.00881
28	N	B	B	M	N	A	M	A	M	8	4	shapes	N	8	False	77	(7.7060795728974689, 3.4075455492688711)	(-4.4371333495238625, 1.3482111237641075)	(4.0717013710743188, -4.5984776423536635)	(-6.4874921471446836, -5.5598588617083351)	1.0	slash	0.788332
29	N	B	A	M					A	4	2	shapes	A	8	True	77	(0.17208120251102343, -6.8265478034732521)	(-0.84839266373557898, 1.5580482934400326)	(-3.8495984060084441, -5.2708946864263417)	(6.4851052806329772, 0.72497160786332948)	1.0	z	0.680115
30	N	A	M	A	N	B	B	M	B	8	6	shapes	B	8	True	77	(1.9626905304264746, -7.6968224844043327)	(-4.6769271619409354, -3.8505043995123893)	(1.8091662017881482, -1.1896099144779289)	(-6.0718587295034094, 1.7958958855652902)	1.0	z	0.925606
31	N	A	N	A	B	B	M	M	B	8	4	shapes	B	8	True	77	(0.94396982482290248, -0.40026977766461158)	(1.8271601847954013, -6.7422879568753951)	(5.4489177917159282, 7.8893940232285722)	(-8.344670668883639, -6.6637950654534261)	1.0	slash	1.07329
32	N	B	B	A	N	A	M	M	A	8	3	shapes	A	8	True	77	(-0.43916729901204477, 2.3355294574010088)	(1.6103756972608281, 6.3125938226443008)	(2.4847539655672559, -6.821759682733509)	(-1.5717498718783052, -6.1316549020075986)	1.0	slash	0.911167
