TrialNumber	stim0	stim1	stim2	stim3	stim4	stim5	stim6	stim7	stim.probe	ttl.stims	corr.num	trial.type	stim.corr	block	match	Subject	stim.pos0	stim.pos1	stim.pos2	stim.pos3	ran	resp	RT
1	M	B	A	N					A	4	2	shapes	A	Practice	True	78	(-6.506778172175359, -1.6956937977137141)	(7.7052048484273215, 1.8686613336939182)	(-3.9216787642554412, 1.9964855992401986)	(3.2489604298146251, -5.4663808330152488)	1.0	z	4.05947
2	N	A	M	B	M	B	A	N	B	8	3	shapes	B	Practice	True	78	(6.4848021386584644, -0.82191392289446163)	(-7.2677879374939103, 7.5856215983010564)	(-3.5430575460181331, -6.7109602460821254)	(-7.5446509056133513, 2.5143099347053184)	1.0	slash	2.31286
3	M	A	B	B					A	4	3	shapes	B	Practice	False	78	(-3.7610173566325154, 4.2880790234317701)	(-7.7610631320697916, -0.27292089415306187)	(5.3993956631513651, -6.7839766517980884)	(8.5258384775225018, 5.1498293591681517)	1.0	z	1.66027
4	M	A	B	M					N	4	1	shapes	A	Practice	False	78	(-4.3138960230546024, 2.6473276169642403)	(6.7364524927024512, -2.4073048596052544)	(5.5254325813832992, 4.6224266015996935)	(-6.110995562668208, -3.2468109195792145)	1.0	slash	1.69004
5	M	A	B	N	N	B	M	A	N	8	7	shapes	A	Practice	False	78	(3.2479488184602943, 8.2767658069403147)	(-8.6821439146721673, -2.2620710411799383)	(1.6941368922657052, 0.25891106535562436)	(7.5288943524786518, -5.8005330806838264)	1.0	slash	1.9556
6	N	A	M	M	B	A	N	B	B	8	4	shapes	B	Practice	True	78	(1.4667032177323627, 0.87156692861796969)	(-0.13805753322684744, 7.31756120874552)	(-5.1655881106965822, -7.3778009474797539)	(5.8596267685171242, -0.7822379175988381)	1.0	z	1.77538
7	M	A	B	A					A	4	3	shapes	A	Practice	True	78	(-4.4708713515350329, 4.1238911294022529)	(-2.8996520264586652, -2.4747652639995712)	(6.2723147210083638, -6.489745784092114)	(1.1046983976882689, 3.7132569596816118)	1.0	z	1.78872
8	M	B	B	M	N	A	A	N	B	8	6	shapes	A	Practice	False	78	(-7.4420994016175834, 6.1256686305321004)	(-7.4179530884260725, 1.1385184701543238)	(1.6063345160823523, 0.96062268957916963)	(5.6174338794010747, 6.0111062094813619)	1.0	z	2.10038
1	N	A	A	N	M	M	B	B	M	8	3	shapes	N	0	False	78	(5.3991090908985431, -3.187350437209826)	(-4.7802449821190418, 0.54425055076102424)	(2.7588532993165558, 4.2924631808012812)	(6.90247127646502, -8.3981489964198719)	1.0	slash	1.87394
2	M	A	M	N					M	4	1	shapes	A	0	False	78	(0.23086405504332674, 1.2340041286782721)	(-6.9696415773264251, -7.153806769911017)	(7.79529231068652, -8.2732265356929027)	(-2.22285391468625, 4.4883201862256712)	1.0	z	2.84572
3	N	B	B	A	A	M	N	M	B	8	7	shapes	M	0	False	78	(4.2189196596269625, 0.82433290024571448)	(-0.22370149541289486, 0.39137635855491304)	(-5.7472394927772665, -6.746055067979265)	(1.4981396631225561, 4.1999421573216473)	1.0	slash	1.69505
4	M	A	N	N					B	4	1	shapes	A	0	False	78	(4.9970839613291265, 5.7450648668681996)	(3.3925505176629667, -3.4044403896323043)	(-5.7814577755451992, 6.5996814566914601)	(-5.9813970158929122, -8.3730926173978926)	1.0	slash	2.23063
5	N	A	B	B					A	4	3	shapes	B	0	False	78	(-1.5948466612014176, -3.2661530176766647)	(7.4629692247899371, 4.6875214161948779)	(4.0422513685883512, -7.7382729197154712)	(-1.1029427022372253, 8.5867374237954088)	1.0	slash	1.55441
6	N	A	M	A					M	4	3	shapes	A	0	False	78	(-7.4771611818609252, 4.4917344688125951)	(-4.3587079487212472, -6.2134999416611283)	(8.5132006511962182, 6.45286603050533)	(4.9672671895016958, -5.424317283499521)	1.0	slash	1.71785
7	N	B	N	M					M	4	3	shapes	M	0	True	78	(1.4034500004699719, 4.9064262432154333)	(-5.1733220230369543, -0.48358366077015624)	(3.8553561432683772, -2.9779890117814025)	(-5.6913349745917037, 8.1322933242254294)	1.0	z	2.36944
8	M	A	N	B	M	B	N	A	N	8	5	shapes	B	0	False	78	(-6.3075501457259673, 6.1381043043793753)	(0.81393020797093563, 6.1730780236072746)	(-7.6106650342528095, 1.1425906131422323)	(3.1032825296880233, 0.54049602643807404)	1.0	slash	1.66498
9	M	A	N	A					A	4	0	shapes	M	0	False	78	(6.11687571007886, 2.8642257323327129)	(-8.4959568774627172, -2.1651508525887451)	(8.1082376450756684, -4.7014954739374808)	(-2.5092637092384678, 4.5045399595827291)	1.0	slash	1.53465
10	M	B	N	B	A	A	M	N	N	8	4	shapes	A	0	False	78	(-1.5364435230637268, 1.220477052205915)	(-4.7373037332838033, 7.2493564592669326)	(6.8638752752206482, 2.5653303883150276)	(8.7044534475670083, -1.7524510637429973)	1.0	slash	2.79006
11	M	A	B	N					M	4	0	shapes	M	0	True	78	(3.99590024975247, 2.3872047553709148)	(-7.2174529536421481, -5.5489161957107136)	(-3.2928478540118959, 0.49352833009670682)	(7.022111123528255, -3.2430129760089574)	1.0	z	2.87959
12	N	B	A	A	N	B	M	M	M	8	4	shapes	N	0	False	78	(0.99656664968154907, -4.5167929352195983)	(6.0022943692784381, 7.2319948167523034)	(5.9509431990819195, -2.1377763875232754)	(-6.2144607671431071, 2.8004717662173988)	1.0	slash	1.90117
13	N	B	B	N					B	4	2	shapes	B	0	True	78	(5.1803344623836498, 3.4253810454177938)	(-4.0808793546014002, -2.7097759969226036)	(-0.82058461631492996, 4.932256968677148)	(4.7993596091248225, -1.3669262685727928)	1.0	z	2.57067
14	N	B	A	A	B	M	N	M	B	8	4	shapes	B	0	True	78	(-8.4303798314402698, -2.3075136988567442)	(2.0227142212763773, 0.41840392633345225)	(7.4211870520281451, -0.87239246549956828)	(0.0043033990165035618, 6.9631218613713735)	1.0	slash	1.95609
15	M	A	B	B					A	4	1	shapes	A	0	True	78	(-2.0464459687170837, 3.1184415704241761)	(-7.9743224442076626, -0.15121736988057322)	(4.6428688969982232, -2.7868906254176329)	(2.2605435752498817, 7.6871682318813903)	1.0	z	1.94177
16	N	A	B	N	A	M	B	M	A	8	1	shapes	A	0	True	78	(1.686430230745664, 0.14850286186446127)	(-1.4117029239330048, -7.2780018627768444)	(-6.3148277776056361, -5.8088786359716806)	(5.3829291823005274, 5.4725003812442701)	1.0	slash	1.81947
17	M	B	M	N					N	4	3	shapes	N	0	True	78	(4.6678488472870132, -0.27675501569000893)	(-5.8773975023977023, -1.3489308405710778)	(3.4392672578144907, 5.6660364899528357)	(-5.9606236712735834, 8.1159719571485915)	1.0	z	1.81701
18	M	B	B	A					M	4	0	shapes	M	0	True	78	(6.9400827462403445, -0.90451098407944919)	(8.6347011626245731, 7.5176250127407727)	(-6.8142035563016563, -0.9389509405632559)	(-7.5517445758055235, 3.5782165561218218)	1.0	z	2.08852
19	N	B	N	M	A	M	A	B	N	8	6	shapes	A	0	False	78	(7.5221960178759169, -5.08282769788772)	(0.68010820536456507, 6.808877387843415)	(4.8108335369812796, 4.0034803715687364)	(-6.4422985484342412, 6.3083561160283228)	1.0	slash	1.80202
20	M	B	A	A	B	M	N	N	A	8	4	shapes	B	0	False	78	(7.3163468618571734, 5.6081563111302)	(0.52426458963422817, 7.7525393040666764)	(5.3352780894244916, -2.7236026270544604)	(1.2869034357026496, -4.0127209107194881)	1.0	z	1.8756
21	M	A	A	M	N	B	B	N	A	8	1	shapes	A	0	True	78	(-5.1841912072363439, -3.768418264147261)	(-8.0234242315343636, 5.1295773989418585)	(3.4448152368522109, -3.3819381638557715)	(8.2335679641922468, 7.7739609163173853)	1.0	slash	1.36715
22	N	B	M	N					A	4	0	shapes	N	0	False	78	(-2.5306103640961215, 6.2159292873402219)	(-8.5920768245401238, -2.341108498444882)	(6.2136384980023447, -6.952899815327835)	(3.080890693373366, 3.6523852099265763)	1.0	slash	1.32083
23	M	A	M	B					A	4	1	shapes	A	0	True	78	(5.6140168050369592, 6.506283687933978)	(4.8705655568251007, -6.504808684881942)	(-6.8381778029396338, 6.5430334084719739)	(-7.3961672473560371, -3.27999646016253)	1.0	z	1.44042
24	M	A	N	N	A	M	B	B	B	8	7	shapes	B	0	True	78	(7.214130154665126, -0.10102746257954998)	(-4.3030646686058329, 7.4236733949790299)	(-0.55872338817264477, -0.7833971173460057)	(-7.0560049312094835, 4.2040955584442923)	1.0	z	1.99591
25	N	A	N	B	M	A	M	B	A	8	1	shapes	A	0	True	78	(6.1501151255355424, -7.3994643966740918)	(7.9927079047985323, -2.2969677428417485)	(-8.0147578363175143, -5.8251462261291778)	(0.29271295747859405, 4.2345556992152442)	1.0	slash	1.93571
26	M	B	M	B	A	A	N	N	N	8	7	shapes	N	0	True	78	(2.9249228015454101, 7.1507192561948045)	(-2.0078174826649544, 1.8076606754629836)	(-6.5695241104981124, 8.3438233008922609)	(-2.6690877764139396, -6.9945700003471467)	1.0	slash	2.72707
27	M	B	B	M					A	4	0	shapes	M	0	False	78	(-0.31735187881030669, 6.9103152063618065)	(8.5233944118490115, -0.26948956960269399)	(-8.032051478178877, -0.0088896966873246441)	(3.7543812337671234, 7.9794952137369108)	1.0	slash	1.36869
28	M	A	N	B	M	A	N	B	A	8	1	shapes	A	0	True	78	(5.4683022139823816, -1.5921142296825286)	(5.5169502644828778, 4.7870057579797631)	(0.32839323958413935, -8.3068433827973021)	(-3.100638911893463, -4.4201387921647459)	1.0	z	1.50636
29	M	B	B	N					B	4	2	shapes	B	0	True	78	(5.0305132030692405, -3.6263370120782463)	(-4.3217404045560341, -5.6885167691363492)	(-3.7725688782994036, 4.132782457475022)	(2.2646090511194465, 5.3128279425102232)	1.0	z	1.46397
30	N	A	A	M	N	B	M	B	N	8	1	shapes	A	0	False	78	(-6.1524248741000074, -0.64571856883074297)	(4.9822806938421742, -5.6909292965700153)	(-7.7723705362680118, 5.0525570884648001)	(-4.8645629443706611, -7.7158609880308218)	1.0	slash	1.3975
31	N	A	M	A	N	B	M	B	M	8	6	shapes	M	0	True	78	(7.4281836453212442, 7.7747392008725917)	(1.6208736767777712, -7.3954366197681818)	(0.64005603584908677, 4.069037223962038)	(-6.4330528839306069, 8.3064250857822692)	1.0	z	1.75445
32	M	B	A	B					A	4	1	shapes	B	0	False	78	(7.9227627722586718, 7.0154833167303483)	(-4.6810475674639269, 4.8762695619777965)	(-0.97863168856625382, -4.8125949059880746)	(3.8097987669567157, -6.6671990199533253)	1.0	z	1.96657
1	M	A	N	N	B	B	M	A	M	8	0	shapes	M	1	True	78	(4.1805803472889487, -6.5632713451243347)	(5.7336470770369896, -0.55364602581354916)	(-0.0098000352630620569, -2.9299516340478053)	(8.5968841162072245, 2.6120310097285095)	1.0	slash	0.918006
2	N	B	A	A					A	4	2	shapes	A	1	True	78	(1.1555673941555291, -0.86066563302400301)	(-3.7830991647721834, -3.0214370909428494)	(-6.8490098464389391, 0.93435530063119465)	(6.9685528315863117, 7.3327818885336562)	1.0	z	1.54388
3	M	A	M	B					M	4	1	shapes	A	1	False	78	(-5.4680292845576304, -3.3649113502444754)	(0.31507271854509611, 3.4420900394229701)	(-3.7487939758441282, 5.5590923991469534)	(2.6569432125896952, -0.22373742119789952)	1.0	slash	1.62153
4	M	A	N	B					M	4	2	shapes	N	1	False	78	(-4.1489751724522179, -2.5906561650314437)	(4.4207895365541017, 4.1886770348363651)	(-1.2242773878669189, 7.6374554491353557)	(7.9618277697098421, -2.1365124071464656)	1.0	z	1.25704
5	N	B	N	A	B	A	M	M	B	8	4	shapes	B	1	True	78	(-4.3619464905374175, -0.70709250020674297)	(-2.4455304594542522, -4.5699259286463354)	(-0.37769112584815545, 6.8822141969705477)	(0.71575907526832161, -1.6971472976149995)	1.0	slash	1.07251
6	N	A	N	M					A	4	0	shapes	N	1	False	78	(4.1692243186039608, -4.5904981202322235)	(-1.5489298691969227, 4.4259634862297439)	(-2.356212915588328, -0.039696690505726551)	(8.156148843545143, 8.5370192252800763)	1.0	slash	1.70035
7	N	A	N	A					A	4	1	shapes	A	1	True	78	(-5.0699120489503322, 6.7675109121045036)	(2.6748464016383586, 1.6022177341820978)	(-7.6977654943686336, -7.9723608899416885)	(6.8825318653474667, -3.9161705041044979)	1.0	z	1.3859
8	N	B	A	A					A	4	1	shapes	B	1	False	78	(-3.7135276139114888, -0.86333055662374392)	(-6.9300064548124176, 7.3315003516531014)	(0.42262011127349908, -1.7115387167850402)	(2.5122813608004755, 3.5063007622021107)	1.0	slash	1.47939
9	N	A	A	B					A	4	0	shapes	N	1	False	78	(-8.1258561620558929, -0.43266101590751305)	(1.3492677432165845, -4.3671579650686327)	(-0.91631985774493785, 4.0490747944516929)	(4.5036199230692713, 3.6211334792349401)	1.0	slash	1.276
10	M	B	N	N	A	A	M	B	A	8	4	shapes	A	1	True	78	(8.4152050002927545, -1.7128566897909554)	(-1.7778082728985538, 7.2570424154958637)	(-3.3835685361970338, -0.88974625533819296)	(3.4595776718186002, 4.8613950729592368)	1.0	slash	1.37262
11	M	B	M	B	N	N	A	A	N	8	5	shapes	N	1	True	78	(2.3146109388058864, 0.6501363726664362)	(2.9921077851859916, -8.1477831232044888)	(6.8128471263999089, 3.2951642502500675)	(-7.0189516688252525, -2.1262721230757968)	1.0	slash	0.948495
12	M	A	N	A					A	4	3	shapes	A	1	True	78	(-6.0542909747900193, -5.0148674391854238)	(0.24166811877244676, -8.1639527025260197)	(-6.3295008134365682, 4.6082964815727063)	(2.9395066785642427, 1.1499658180242616)	1.0	z	0.9041
13	N	B	N	B					A	4	0	shapes	N	1	False	78	(-8.7417243419052486, -3.3549817323261992)	(0.95924699402852198, -7.2395589898781969)	(-6.8181537877093925, 0.92136225746982348)	(8.1733960438320352, 4.4515703649327367)	1.0	slash	1.30163
14	N	B	B	A					N	4	1	shapes	B	1	False	78	(-7.5264454433180834, -7.6976835513093)	(0.13407131495000257, -4.7903950407747313)	(0.32963513225630692, 7.1360363607313424)	(-3.2933410124842366, 3.6182404993986168)	1.0	slash	0.961267
15	M	B	B	M	N	N	A	A	B	8	7	shapes	A	1	False	78	(-1.5873468834154973, -7.0953331761143446)	(4.93473724466722, -5.8895481802777425)	(0.13572743479890548, -0.14107004005719581)	(3.1034272545977295, 6.4104939608366234)	1.0	z	1.48489
16	N	A	B	N					N	4	0	shapes	N	1	True	78	(-7.5601167356851828, 4.0749444686118288)	(5.3186682211272025, 0.31876660950850955)	(-2.3905020702104069, -1.5454753630865152)	(5.4237665240770063, -3.9328038005924881)	1.0	z	1.32655
17	M	B	N	B	M	A	A	N	A	8	5	shapes	A	1	True	78	(-4.7012959959157765, -3.2111415123019764)	(7.9251600664685569, -1.0569541810187477)	(-4.3891683574641442, 4.1784761191306465)	(-7.7791048491483785, 0.18246020021150855)	1.0	slash	0.952146
18	N	B	M	B	A	M	N	A	N	8	6	shapes	N	1	True	78	(2.558148105215869, -3.7006466571207079)	(1.5585896053906403, 7.4123640128094372)	(-1.1538876582644395, 1.3967821676014545)	(6.8112895878783384, 5.7133185363709931)	1.0	slash	1.0598
19	M	A	A	N					A	4	2	shapes	A	1	True	78	(2.1642808629992274, -4.8011767683791238)	(8.2445243916200752, 6.8942503859793121)	(-1.5414975545856331, -1.2415471410087831)	(-8.4954635875223161, 2.2614801056643916)	1.0	z	1.0255
20	N	A	N	M					N	4	3	shapes	M	1	False	78	(3.9470968256859074, -2.0458035645478194)	(8.435754900350954, 4.2874344072807613)	(-6.6639276621098347, -4.4433082435370075)	(-6.3637509736169058, 5.8332827984455111)	1.0	z	1.19901
21	N	B	B	N	M	M	A	A	N	8	6	shapes	A	1	False	78	(-2.1210961546508802, -4.556365183752245)	(1.6336829981824277, -0.15401914148629992)	(-1.69626183654273, 5.1097835779621459)	(7.9891555437893835, 7.6868453828847194)	1.0	slash	1.77855
22	M	A	B	N					N	4	3	shapes	N	1	True	78	(8.3532571829984583, -5.8753864474280402)	(0.51280044736827968, 4.7637024698453434)	(-1.8760863410724298, 0.9627501675925636)	(-7.9711365369100111, -1.8112910084730593)	1.0	z	1.29435
23	M	B	M	B	N	N	A	A	M	8	5	shapes	N	1	False	78	(-1.4766635542600346, -2.6549175685251818)	(-3.5543209970103122, -7.3279833569618447)	(-6.4162330280660704, 7.6957056237020858)	(7.2336977395660185, -1.7126797510608833)	1.0	slash	1.14985
24	M	B	B	A	N	A	M	N	B	8	5	shapes	A	1	False	78	(4.1134532261942169, 2.4358338329054696)	(3.4367627916493895, 7.9965147887753893)	(-6.3376701631663526, -2.4732535875360719)	(-2.3368859285154615, -4.4499979219534538)	1.0	z	1.57957
25	M	A	N	M	B	B	N	A	B	8	0	shapes	M	1	False	78	(-4.1523030419008062, 7.4588951653900821)	(-1.8344754441650757, 1.2828007396175902)	(-6.4824584908229896, -4.1525480071288223)	(4.5323592952866694, -2.897788911773433)	1.0	slash	1.07521
26	N	B	N	A	B	M	M	A	N	8	0	shapes	N	1	True	78	(-2.120856321939204, -5.1386127304048586)	(-7.3922062164030402, -0.27626194084283107)	(6.7783399870693071, -1.1837157809127676)	(-2.0207081524056854, 8.2808094843009421)	1.0	z	1.43067
27	M	A	N	A	N	B	M	B	A	8	6	shapes	M	1	False	78	(-4.4455399978501138, 2.3853170821735663)	(5.6210417726770014, -6.9427484628964926)	(-1.6713379909203692, 6.5202057719630453)	(-7.3689667754233454, -3.8821600973144204)	1.0	slash	1.28688
28	N	A	B	B	M	N	M	A	M	8	7	shapes	A	1	False	78	(-2.1211968672118582, -2.236503977477474)	(-6.7226318712184234, 0.21342445482036965)	(-8.1006607854659709, 5.2035753113205185)	(4.326404872292505, -0.90021634982738785)	1.0	slash	1.27199
29	N	B	A	M	B	M	A	N	B	8	4	shapes	B	1	True	78	(-4.5210940802597106, 5.4093722335044045)	(5.64408602002759, -1.4249404639534049)	(0.48236542502139201, 5.5240729609347099)	(-3.0430822546764631, -8.5619174255364765)	1.0	slash	1.81147
30	M	B	A	M					B	4	1	shapes	B	1	True	78	(1.2796232512201424, -2.9812497500587343)	(-1.1928546503094211, 8.4399481684445661)	(-5.3273290909574147, -4.0319872443194802)	(4.4563807990278388, 2.3045887437070984)	1.0	slash	1.61893
31	M	B	M	A					M	4	0	shapes	M	1	True	78	(3.9592272098899706, 8.3404924801089493)	(0.091317474512255359, -2.8799496429533447)	(-4.8607860303305435, -6.569128149861533)	(-6.5375872647436504, 7.9377793742089828)	1.0	slash	2.04858
32	M	B	M	A	N	A	N	B	A	8	4	shapes	N	1	False	78	(-5.0349355892919725, 2.6936411521633854)	(-8.6417051360395103, 6.1563888712300354)	(6.9238923624370248, -1.2306574791471308)	(2.2766614854440839, 5.4996875015920583)	1.0	z	1.13026
1	N	A	N	M	B	B	A	M	B	8	3	shapes	M	2	False	78	(4.3566469609693925, -3.8135011524876257)	(-7.1876066126512272, 1.92306567733932)	(0.69426494223221979, 2.2458092780778678)	(2.2761206723309222, 7.3031722859940764)	1.0	slash	1.11193
2	M	B	N	N					M	4	0	shapes	M	2	True	78	(0.77218837221699665, -7.5070360826757003)	(8.6264349869598682, 5.1039732712342225)	(-3.3675483175874499, -4.8711938223567461)	(-8.5917962390931333, 1.3056958667312539)	1.0	z	1.53139
3	M	B	A	A	B	M	N	N	B	8	6	shapes	N	2	False	78	(2.382280556863245, -7.7226928118607621)	(2.003502265397227, 1.0292370449205972)	(-6.3059389759729498, -7.3976173654988928)	(-2.1891857942476136, 6.8367158321944963)	1.0	slash	0.932756
4	M	B	A	M	B	N	A	N	B	8	5	shapes	N	2	False	78	(-2.2577927740505839, 5.8920039580391546)	(7.7743042240065883, -4.3555196024617366)	(-1.4265406282023783, -8.5160253909130947)	(-8.4655303969566482, 2.5249682550404096)	1.0	slash	0.934272
5	N	A	M	N					N	4	3	shapes	N	2	True	78	(8.0545608308439363, 1.7528490212377026)	(-7.197601450924564, 0.29261904638267211)	(1.5403486136799156, -3.3372836637549028)	(-5.1584454635449504, -6.7751688949210598)	1.0	z	1.12649
6	M	B	B	M	A	A	N	N	N	8	7	shapes	N	2	True	78	(7.3320652286930716, 4.2317203736516138)	(-4.2754987356207801, -2.0578194877562943)	(2.3850209793994797, -3.3920229221375058)	(2.4806068525398981, 1.8022529877019302)	1.0	z	1.85609
7	M	A	A	N					A	4	0	shapes	M	2	False	78	(-1.5397123011592893, 1.8433492354137861)	(8.359919242224688, -6.6742762023383664)	(2.6305041826787701, 2.9449885589655782)	(-7.3101476636233835, -8.6060789243248692)	1.0	slash	0.751562
8	M	B	N	N					B	4	2	shapes	N	2	False	78	(5.7361638569537057, -8.6051797224704476)	(-0.067249716799633319, -4.7267841633320762)	(-1.9210687208218893, 0.079172247835437304)	(1.5412904637381928, 4.7461441612437589)	1.0	slash	2.15518
9	N	B	A	N					A	4	2	shapes	A	2	True	78	(5.0500889670715612, -4.9626422336752576)	(-7.793913940209265, 1.5315594476104337)	(8.1064054220001651, 4.9906632775075579)	(-0.30176953872277679, -5.2939825050716331)	1.0	z	1.24685
10	M	B	M	N	B	N	A	A	A	8	7	shapes	A	2	True	78	(-0.85619175558547678, -4.8827854536830149)	(-8.4527792065475449, -4.2776091316758817)	(7.6311089345952929, 3.5842851126445101)	(-3.8404637920370801, 0.875529588632741)	1.0	slash	1.25594
11	N	B	B	N					M	4	1	shapes	B	2	False	78	(4.9200771798727505, -3.2734467000253158)	(-4.7784452801618391, -6.5178918741639249)	(-5.4316909507156224, 4.5822696762562476)	(5.992947579475743, 2.238507964226832)	1.0	slash	0.77617
12	M	A	M	N					N	4	3	shapes	N	2	True	78	(-4.9294601439527872, -1.4175078173196249)	(3.6797096053727731, -1.5851723041232813)	(5.4835316656505046, 3.1724088173898668)	(-4.3455373849595675, 7.9410085311423089)	1.0	z	0.943612
13	M	A	A	M					A	4	2	shapes	A	2	True	78	(-0.069210885475818884, -3.0787880172716768)	(1.0895365514518822, 7.7612125172765865)	(-4.929868405607829, 2.6993594267818768)	(7.3949143628564151, -4.0483993090524963)	1.0	z	1.06744
14	M	A	N	A	M	B	B	N	M	8	3	shapes	A	2	False	78	(-4.5867842377661905, -8.2678242867932656)	(-4.6500738967972088, -0.18729564073118077)	(3.6719209866878586, 0.37750540784206699)	(-0.93955644751822209, 7.9240385187604261)	1.0	slash	0.914246
15	N	A	A	M	B	B	N	M	A	8	7	shapes	M	2	False	78	(-6.2072006766944625, 4.6752293652018295)	(-6.5234090572413272, -5.3315625625289123)	(7.8063670593975658, 8.7099253074085219)	(-1.2676290674132176, 0.48581036489489193)	1.0	slash	1.1759
16	M	A	N	A					M	4	0	shapes	M	2	True	78	(4.0714638062593824, 2.7611350993926642)	(-1.368875489522126, -7.3016088477802423)	(6.4969286692981143, -2.1642721188788467)	(-5.8411624170682011, 5.0967673239759925)	1.0	z	0.696201
17	N	A	A	M	N	B	M	B	M	8	6	shapes	M	2	True	78	(4.5900397058498008, -7.9919376208095221)	(-5.2695826360805942, -7.5403703302733032)	(-1.4397134690096847, 8.7127125844764564)	(-4.4308548967959718, 3.1159819937602453)	1.0	slash	0.815681
18	M	A	B	B					N	4	0	shapes	M	2	False	78	(-7.8227156303811665, -3.0226598757394196)	(-4.3472556646915406, 5.9570114550330455)	(7.1468316661664808, 6.3744942208309183)	(7.8702600505254559, -7.6939023626710199)	1.0	slash	1.38957
19	N	A	A	M					B	4	0	shapes	N	2	False	78	(-1.6582039055055189, 0.81444643373358083)	(-6.018395144694928, -6.3612374844010873)	(7.4663267758573326, 2.281711863794806)	(1.0360162810625582, -8.4674864390485673)	1.0	slash	0.681179
20	M	B	M	B	A	N	A	N	A	8	5	shapes	N	2	False	78	(2.8111649163061685, -5.6483457048422849)	(-1.9685777602898327, 3.0996633258942445)	(-6.8787358931113376, -0.32894076125311678)	(-5.0519455443292394, 6.9332096537733463)	1.0	slash	0.722614
21	M	A	B	B	N	A	M	N	B	8	2	shapes	B	2	True	78	(-2.3161351772676957, -4.064198217454793)	(0.28295363563639775, 6.4858180489537318)	(4.1572367246977162, 2.2374373443118944)	(-7.0249518353735763, -3.7389100127434656)	1.0	z	1.06037
22	M	B	M	B	A	A	N	N	N	8	6	shapes	N	2	True	78	(-8.1683288723845084, 2.3861966021372663)	(-3.2265900262026701, -2.8733991754948329)	(-6.6799150886589018, -8.1641400464750138)	(1.7818587771666259, 7.8967967411089397)	1.0	z	1.15618
23	M	A	N	M					M	4	3	shapes	M	2	True	78	(-2.4857989468196298, 3.5642829033815673)	(-5.0968082182660739, -0.10462470317248318)	(4.1288216539539881, 0.24131804544824753)	(0.70988394593043047, -8.3734628863303975)	1.0	z	1.34384
24	N	B	N	A	A	B	M	M	A	8	3	shapes	A	2	True	78	(-3.3675081605138075, 5.4193528212519215)	(2.904227653075905, 4.3421298570924218)	(8.4633688711462582, 2.8026819029225596)	(-8.3961279770859036, -2.7052716238828189)	1.0	z	1.28715
25	N	B	N	B					B	4	2	shapes	N	2	False	78	(2.1537026690694709, 1.8401635996910084)	(-7.1229045211764568, -7.046296893288285)	(-1.9898466542525597, 6.8668508967760129)	(6.7411709241391389, -2.4375322362986367)	1.0	slash	0.752872
26	N	B	B	M					B	4	3	shapes	M	2	False	78	(-8.3153660170851289, 6.1121861609378936)	(3.1880414505973693, -6.4248082305329977)	(1.784121648850002, 3.981785570305945)	(-3.4304345012162489, -0.94871410709109583)	1.0	z	0.898747
27	N	A	A	N	M	M	B	B	B	8	4	shapes	M	2	False	78	(3.3476037247755972, 1.5316733143092982)	(7.8102407405665204, 1.0819077912958441)	(-7.1333537067102242, -3.558300962183325)	(-5.2511540285200322, 0.35059696876602686)	1.0	slash	0.978205
28	M	B	A	B					B	4	1	shapes	B	2	True	78	(-6.6852496084398814, -0.93915288152780985)	(6.7402060863022264, -2.5294700982328804)	(6.0844534391156575, 4.7151814915415375)	(-4.6542966473559702, 4.3517168610408525)	1.0	z	1.22386
29	N	A	N	M	B	A	B	M	N	8	2	shapes	N	2	True	78	(-0.65835114790185045, 1.6768412393663858)	(-7.1201116606140937, -1.4833108925115486)	(5.4308728614597488, 1.4638170885570307)	(3.507549010139531, -4.7506624514581857)	1.0	z	1.4695
30	M	A	N	M	B	N	A	B	A	8	5	shapes	N	2	False	78	(0.37047839790482584, -4.7442441545103469)	(4.5681573044263608, 1.2222529232161374)	(4.6059046873759311, -3.3004566970405573)	(0.36928330057507175, 0.99438457883467102)	1.0	slash	1.28464
31	M	A	N	N					A	4	2	shapes	N	2	False	78	(8.5074381524919858, -5.8170332757365841)	(-0.98643952847123817, -7.437538231959655)	(-8.1228975604798759, 6.0482159091669487)	(7.3875154307502378, 4.3963419072153282)	1.0	z	1.01271
32	M	B	A	N	B	N	A	M	N	8	5	shapes	N	2	True	78	(-7.8978017445134396, -1.2106973533948455)	(-3.9871434569127429, 0.19445337339256241)	(2.017672760880183, -7.0488021084263544)	(-7.3601243519534743, -6.7655485632063002)	1.0	z	1.23778
1	N	A	M	M					N	4	0	shapes	N	3	True	78	(-6.3591152748943189, -5.0750716266636982)	(8.0892415951295717, -8.194289336375105)	(-8.053805500838024, 5.8910274627646171)	(3.8688955576281909, 1.0287501116455822)	1.0	z	1.02405
2	M	B	M	N	N	A	A	B	B	8	3	shapes	N	3	False	78	(-7.2507120255056998, 2.6669211163701334)	(-4.4920710282972758, 6.3133348681276864)	(0.50285048130027477, 4.9651277926148953)	(3.6665530805806519, -4.152390487880079)	1.0	slash	0.967762
3	N	B	N	M					B	4	1	shapes	B	3	True	78	(3.2227951764493863, -3.90704721099147)	(-4.2855497386767212, -3.8711454274069972)	(-7.9693502869123387, 7.1865712250135552)	(6.8360366563865931, 6.5287638224299052)	1.0	z	1.79335
4	M	B	A	N	B	N	A	M	M	8	6	shapes	A	3	False	78	(-6.4630235926903232, 2.9842669297035105)	(7.8550771298065385, 6.5804701663039307)	(-6.8076453494104276, -1.1034902316995749)	(2.5991235322041781, -2.6705045224271817)	1.0	slash	0.836656
5	M	B	B	M					A	4	0	shapes	M	3	False	78	(-7.4674336137833457, -0.68399481675959173)	(8.4891739200945722, 6.1017472744818999)	(4.4740403027295006, -2.0303582967846481)	(-2.3026229545872914, 0.74152413921611071)	1.0	slash	0.758383
6	M	B	M	N	N	B	A	A	N	8	3	shapes	N	3	True	78	(0.62445777948488335, -3.3669290567646399)	(7.0460369791326567, -8.1870416019606242)	(0.90962436847640937, 6.7550841586343502)	(6.1249227492527538, 3.2927853792605362)	1.0	slash	1.95399
7	M	B	B	M	N	A	A	N	B	8	0	shapes	M	3	False	78	(-8.182929689773184, -7.4706688951266997)	(5.4314324047719769, 1.9866533213713247)	(-0.32091304171053459, 6.9113918699865362)	(7.2950824020136693, -6.3952471039056622)	1.0	slash	1.26966
8	N	A	M	A	M	N	B	B	B	8	5	shapes	N	3	False	78	(0.29043457083701263, 5.4523099297078126)	(-5.4289242705080296, 7.7248128536169069)	(-7.2652252920966331, -0.38234319687816942)	(4.2762698682092957, 5.0201400365615143)	1.0	z	1.65297
9	N	B	M	B					A	4	3	shapes	B	3	False	78	(-1.9394709692034002, -7.1396467043462071)	(4.2205624514871012, -0.53101043493830424)	(1.1681331953786191, 5.4448971697363255)	(-3.9860402806869484, 8.3517255796701235)	1.0	slash	1.45086
10	M	A	M	A	N	N	B	B	N	8	5	shapes	N	3	True	78	(-6.3346435356598185, 4.4050046618665206)	(4.052996536280526, 3.338542880525889)	(3.9729460566673662, -3.0268028859770029)	(-1.2139131186281196, -6.7118555384197158)	1.0	z	1.48442
11	M	B	A	A	M	N	N	B	B	8	4	shapes	M	3	False	78	(-6.5861241734566445, -0.75347444063856628)	(6.864209899943484, -1.2225077577661283)	(1.3526423453335674, -5.3599530934254798)	(-2.7694862459077267, 3.665232478067658)	1.0	slash	1.11811
12	N	B	A	A					A	4	1	shapes	B	3	False	78	(-3.0782144005280001, -7.4934936328287822)	(7.8648301968070378, 4.4544779217439761)	(4.4243417419651259, -2.4936904338398227)	(-8.4641891461779597, 1.0220681937377094)	1.0	slash	1.03972
13	M	A	B	M					M	4	2	shapes	B	3	False	78	(8.6353317094122062, -7.1834145080078748)	(-0.65967240785330894, -1.4280055930633022)	(-2.5746080556482402, 5.1652874471953272)	(8.2164656912901144, 0.8625988042491084)	1.0	slash	0.905574
14	M	B	M	B					B	4	0	shapes	M	3	False	78	(-7.7320163438310292, -1.809749631077155)	(-8.6729702951623668, 6.6332707038756258)	(7.0183085011010764, 5.4290198475084672)	(3.6756721017754543, -1.8302559691298148)	1.0	slash	0.911043
15	M	A	M	B	A	N	N	B	B	8	4	shapes	A	3	False	78	(-8.6133959982697341, -0.79558896763842224)	(-3.4612733258186328, 0.59429569415425831)	(6.806144048674005, -3.4333725692453694)	(-3.0945298518149373, 5.7907305953065293)	1.0	slash	1.13247
16	M	A	N	B					A	4	1	shapes	A	3	True	78	(8.4083371456217613, -4.1934440450054273)	(-7.4145654037300943, -6.8843076569072874)	(-4.3000000548229211, 2.2832727064929443)	(3.1608797662891224, 0.27874921961329946)	1.0	z	1.05234
17	M	B	M	B	A	A	N	N	M	8	0	shapes	M	3	True	78	(4.6668747214129578, -7.4708028261813135)	(6.1334555813003853, 3.5595885421069813)	(0.90317554417916135, 0.011527797943985618)	(-4.376265551635516, 2.6962646917837301)	1.0	slash	0.867901
18	M	B	A	B	A	N	N	M	M	8	7	shapes	M	3	True	78	(-5.1886469496116234, -7.2252323112366543)	(-3.6629840233234869, 0.41396188509112797)	(4.2588799785645381, 4.2183846781883947)	(3.6512252623075856, -5.230583588028443)	1.0	z	1.33759
19	N	A	A	N	M	B	M	B	B	8	7	shapes	B	3	True	78	(1.9551714110666367, -7.2582721807794748)	(-1.1583761846102822, 5.8480716421170289)	(0.85025091212384396, -2.2525654926502732)	(-5.3467839250404179, 4.7879240368497022)	1.0	z	1.42511
20	M	A	A	B	B	M	N	N	M	8	4	shapes	B	3	False	78	(5.3432464380189835, 7.7802312279593657)	(3.7310727963939883, 2.3957329436705894)	(-2.6892137138070353, -1.3144476403819061)	(-0.31417161736546362, 5.0458709056673783)	1.0	slash	0.662717
21	N	A	A	M	N	M	B	B	N	8	4	shapes	N	3	True	78	(-0.028725694079739128, 2.266132243460321)	(-8.607929648134558, 0.67870688661332323)	(-5.0088888525858035, -1.7525405608872973)	(2.4154440958619752, -4.1453774318936825)	1.0	slash	1.66839
22	N	A	A	N					A	4	1	shapes	A	3	True	78	(-8.0870721774379071, 3.9854259693941732)	(-1.8581879092729183, -6.1089033008527496)	(4.9692424544713845, -2.0314457810450905)	(7.5360546235264252, 8.695162759300743)	1.0	z	1.23176
23	N	B	A	N					N	4	3	shapes	N	3	True	78	(7.4236479246404024, 5.3590115163384713)	(-5.3993128113300823, -4.5820351661602237)	(5.0960160987575378, -2.2594602992785831)	(-6.8247841914295861, 8.4315407665482276)	1.0	z	1.08364
24	N	A	N	A					N	4	0	shapes	N	3	True	78	(6.645970712312101, 1.7680148159994111)	(-4.8323128572791365, -7.0869041713152798)	(-3.9656740585816532, 5.3981499224275851)	(0.89780265813717008, -6.2667051599586978)	1.0	z	0.805294
25	M	A	B	B					B	4	3	shapes	B	3	True	78	(5.8168493871558908, 7.1883608977657278)	(-1.5056396671175563, -2.2686690966239116)	(2.3236526058262985, -5.8171102442499025)	(-7.7002154203534143, 4.9598046058595227)	1.0	z	1.10297
26	N	B	M	M					B	4	2	shapes	M	3	False	78	(-0.065644329090373432, 0.35138455920476375)	(-7.1983721284822018, -3.9596246877453556)	(4.1336689064054628, 6.5401152097365625)	(1.2925324356315535, -6.0910215923571416)	1.0	slash	0.908541
27	N	A	M	M	A	B	B	N	B	8	5	shapes	B	3	True	78	(-4.0629790909680894, 1.0255337988392874)	(6.8513145051852202, 4.3776792967649119)	(-1.4959713737435019, -7.3583457601978299)	(-6.2419036022724415, -6.9976399265721634)	1.0	slash	1.43374
28	N	A	B	N					A	4	2	shapes	B	3	False	78	(-7.7562766757912929, -2.4953482471352153)	(1.8573851979939189, 7.5515193175360515)	(3.9176217000887412, -8.6885345024736971)	(-6.1725028431819382, 2.0124541156523534)	1.0	z	0.901915
29	N	A	N	B	B	A	M	M	M	8	6	shapes	M	3	True	78	(-5.6037911121873734, -6.4932167906125287)	(-4.0452211893785677, 3.2154179641510758)	(8.702417918213591, 0.19323356938918934)	(7.0017896082503981, -7.8482628469384794)	1.0	z	1.38703
30	M	B	N	N	A	M	B	A	M	8	6	shapes	B	3	False	78	(-3.3571258770636652, 6.1743336840980252)	(1.6579555461138984, -2.417689150702774)	(-2.5127725686187707, -1.0517626142445042)	(3.0699277648469145, -7.7787734509565967)	1.0	slash	0.824575
31	N	B	N	A					A	4	3	shapes	A	3	True	78	(8.1123129612482359, 4.5470270933575581)	(-6.6369469390477516, 0.60860539911341505)	(-0.68706540490162027, -4.9340614037599231)	(5.8023152106772038, -2.5909235330011358)	1.0	z	1.01478
32	M	A	M	N					A	4	3	shapes	N	3	False	78	(-7.0228951545383032, 2.9510354615981491)	(2.5138931747598985, 2.5832006038347242)	(1.4405848179453642, -7.0682899573665416)	(-1.9837307517572409, -2.3524578370159119)	1.0	slash	0.924367
1	N	A	A	B					M	4	2	shapes	A	4	False	78	(-3.3069479158001762, -6.8377283095788943)	(4.9422401644042075, -2.8923809499029973)	(-2.6286279735215103, 2.2885823556572333)	(7.0790023184963573, 1.502203188885165)	1.0	slash	0.852073
2	N	B	A	A					A	4	3	shapes	A	4	True	78	(5.4551084271482022, 0.13257092961861972)	(-0.63832587283372, -1.5752958261173173)	(-4.4970633530689206, 1.7634516094103958)	(6.7006175208239842, -4.1809658803071859)	1.0	z	0.971678
3	N	A	N	M	M	A	B	B	A	8	5	shapes	A	4	True	78	(1.8888856876224516, -8.5355678436734888)	(-0.041316340602655544, 4.3965561253710881)	(-7.8734450346473173, -4.7067889211830334)	(-5.8784680963001055, 0.77858387425855469)	1.0	z	0.955358
4	N	B	B	N	A	M	M	A	N	8	7	shapes	A	4	False	78	(-7.00887060486588, 7.8129837308472041)	(-6.0150529605035121, 2.7925354663603787)	(4.4943919702511064, 4.0682689146178728)	(7.6776889303208051, 0.58101995585258415)	1.0	z	1.41642
5	M	A	M	A					M	4	0	shapes	M	4	True	78	(4.6325322124988926, 0.13023244040816095)	(1.668288001746971, -8.4608482162614465)	(-0.23058395512647145, -2.3905427602228633)	(-7.3174369740835266, 1.5333339092035061)	1.0	z	1.55247
6	N	A	B	N	B	A	M	M	M	8	3	shapes	N	4	False	78	(-0.23021634797329682, -5.8540849876203271)	(-4.2129150497485339, 4.4289105619522875)	(-4.9842745333089233, -1.823860827015821)	(5.5553710134431959, 0.61350810449829396)	1.0	z	1.25228
7	M	A	B	N	A	B	N	M	N	8	6	shapes	N	4	True	78	(-2.2353719279489814, -6.6830800155552197)	(7.7298032797876317, 4.8382548676372981)	(-1.9029683231114545, 0.51680745869271938)	(1.0681461680686546, 5.2795094533066607)	1.0	slash	1.22759
8	M	A	N	B	N	A	B	M	M	8	0	shapes	M	4	True	78	(7.5587094912675425, 4.7562432443415101)	(-1.4334927729741942, -3.2645772072936063)	(-3.1366880663658021, 5.8091525397850834)	(-6.7408858616690415, -3.1149440419580827)	1.0	z	1.0492
9	N	A	A	M					M	4	3	shapes	M	4	True	78	(5.6593319646966318, -6.3050778344511595)	(8.5667651144494918, 2.2401193769584324)	(-1.7242146371197045, 7.0238487494670263)	(-0.17380495797900331, -5.6897366965305416)	1.0	z	1.20097
10	M	B	A	N					A	4	2	shapes	A	4	True	78	(-7.9419461317502122, -2.9762537817705903)	(1.4258717271270118, -8.4184239723762992)	(2.8978540483360877, 1.0855098884557695)	(-2.9536234648991488, 6.2204043108213476)	1.0	z	0.946566
11	M	B	B	N	N	A	M	A	M	8	3	shapes	N	4	False	78	(-7.6141544741367984, -3.2810909977219067)	(-0.8903335557183869, -7.1728031330552078)	(4.1158341945955073, 2.6047298002565107)	(2.7167175006407351, -1.7978516933324107)	1.0	z	1.42421
12	N	B	N	A					M	4	2	shapes	N	4	False	78	(8.4160272873336446, 6.7053119624386159)	(-5.6662953740271451, -6.4772516404175153)	(-1.7450622926855379, 2.9461257765715541)	(4.4395998151260923, -4.1010508829536958)	1.0	slash	0.741904
13	M	A	B	B					A	4	3	shapes	B	4	False	78	(0.60228871172692244, -6.183287718278704)	(-2.2763126336032675, 0.11327243362578621)	(4.8576129105396841, 8.275086733037341)	(-5.6740628111674187, -3.5581252897819855)	1.0	z	0.825537
14	N	B	B	M					B	4	0	shapes	N	4	False	78	(3.1735730431297089, 8.6242991833413107)	(-2.7939299910887776, 5.2453507482531858)	(-4.9502344063238768, -0.96054385219929461)	(4.9367752955671858, -8.387712248453683)	1.0	slash	1.11916
15	N	A	A	M					N	4	0	shapes	N	4	True	78	(1.9791584251817191, -7.4590106332839428)	(-0.7020838271734462, 5.7458740412240363)	(3.9465945736460899, 5.9498558694384176)	(-5.4803632895750276, -7.3391876827943845)	1.0	z	1.1207
16	N	A	M	M	A	B	B	N	A	8	6	shapes	B	4	False	78	(6.4048489517069509, 4.1729179994896093)	(-5.8138258102491669, -5.252292577568376)	(-5.2065946704247343, 1.9936766737960063)	(-2.676511536772086, 6.6168241526136793)	1.0	z	1.63638
17	N	A	A	B					N	4	0	shapes	N	4	True	78	(-2.6600585165209703, -5.1556920220958986)	(8.1926665852098779, 8.176131607586381)	(2.473226085690845, -5.727927992543318)	(-7.8307962805261635, 2.4455279238470116)	1.0	z	1.16804
18	M	B	N	B	N	A	A	M	B	8	4	shapes	N	4	False	78	(-7.0684470506767916, 0.67116362902565108)	(5.3058723761030482, 0.97073962860441476)	(-6.5450855516457107, 5.9933928738960258)	(0.12461024259415865, -7.1973943637840945)	1.0	slash	0.945689
19	M	A	N	A					B	4	1	shapes	A	4	False	78	(4.6321436672516736, 2.7174623502748378)	(-7.3557810338847993, -1.4999968478332111)	(-5.9701903564604386, 2.3382143627224909)	(0.036169994991546162, -5.9973955467729363)	1.0	z	0.989335
20	M	B	B	M	N	A	N	A	M	8	2	shapes	B	4	False	78	(-6.1258363986735915, -0.47810615057073491)	(-7.9952736461194531, -6.3003060735733971)	(4.7330924272188177, 5.8938856879329506)	(1.485795703125989, -1.917246181205611)	1.0	z	1.1245
21	M	B	N	A	N	M	A	B	B	8	7	shapes	B	4	True	78	(-0.81770916251867387, -0.62571296873228022)	(3.3506148712184061, 8.2164162992082019)	(1.5363646854862534, -4.1902777882560942)	(5.3642480653302584, -1.144040390401682)	1.0	z	0.958637
22	M	B	A	N	A	N	B	M	B	8	6	shapes	B	4	True	78	(-1.0040572901554388, 7.2494524449062627)	(7.9822244538694811, -7.4778188561193648)	(-2.045551670562066, -7.1437744811109694)	(4.7652270679947275, 0.67178523515090127)	1.0	slash	1.18812
23	M	A	B	M					B	4	2	shapes	B	4	True	78	(-4.1442321273755889, 3.752644225875418)	(1.668198432716844, 8.6272839641773444)	(-4.7221883776689086, -7.0584430119815682)	(4.3883686428170705, -7.273413520834513)	1.0	z	1.28776
24	N	A	B	B					M	4	0	shapes	N	4	False	78	(-6.6825640739431265, 0.98219512369671946)	(-2.6004413504349619, -5.7628397071880446)	(7.5895088267586139, -8.2505887541652285)	(0.28061282272862265, 7.7861572100610559)	1.0	z	1.37557
25	M	A	M	B					N	4	2	shapes	M	4	False	78	(-6.3744249655951277, -0.66724360150800877)	(-3.3559949588035209, 3.694990109062438)	(7.7911581771254426, -7.0504405357262963)	(5.0521393754805519, 4.2332329810251945)	1.0	z	1.18108
26	N	A	M	A	M	B	B	N	A	8	3	shapes	A	4	True	78	(8.4407349304864603, 1.0440279387955425)	(5.2367076034285027, 8.3182808980927092)	(-7.7161213512512603, 5.600338627492194)	(2.1581241502581658, -6.8100696424102569)	1.0	z	1.10079
27	N	B	N	A	B	M	M	A	A	8	5	shapes	M	4	False	78	(-7.8283321922993032, -1.7184062979877934)	(-5.9894243802556364, 2.3652044774411767)	(-3.9286514352504822, -3.9823321838448109)	(8.4940193831800599, 5.8506753449256461)	1.0	z	0.835801
28	N	A	M	N	A	M	B	B	A	8	6	shapes	B	4	False	78	(4.0148418042358482, -5.5833948641589863)	(-3.285280203646483, -5.7206954031182038)	(-5.7113234930820465, 7.2538047499002118)	(6.758943372011986, 7.3348003441451688)	1.0	z	0.896033
29	N	A	B	A	M	N	M	B	N	8	5	shapes	N	4	True	78	(7.9310370159513859, -6.8202047220383157)	(-1.0299004199878645, 5.3832309240207259)	(-3.1474491438378793, -2.6919985965660125)	(7.7995671468913308, 2.9755349699862332)	1.0	slash	1.33564
30	M	A	B	B					M	4	0	shapes	M	4	True	78	(-4.7112855331259169, -7.9164791271810264)	(-3.513698560978491, 6.8792672480844423)	(1.3546047916924131, -6.566362030066462)	(2.8515572602559107, 4.7235897966203684)	1.0	z	1.00719
31	M	B	B	A	M	A	N	N	A	8	5	shapes	A	4	True	78	(3.6924589932361762, 6.7786470331426241)	(-6.1937188514749764, 7.2970996474551413)	(0.23572955728643308, -5.9337630708216125)	(8.7066250644215373, 4.0081648017632219)	1.0	slash	1.34477
32	N	A	M	A					B	4	0	shapes	N	4	False	78	(-5.1768550117850278, -8.243164718114004)	(5.6363289525357079, 4.1010689721577993)	(-0.0035488190726198354, 3.936262986592487)	(7.9000543962487484, -4.2682557557386227)	1.0	slash	1.10248
1	N	A	M	M					N	4	0	shapes	N	5	True	78	(4.4502633658246999, -4.1193218159547156)	(0.52312839590045712, 1.7342336991290157)	(-6.9394405845177598, -4.3611603502434368)	(-6.5621886932903593, 3.704377512427925)	1.0	slash	1.37207
2	M	B	B	M					A	4	1	shapes	B	5	False	78	(6.8943319703532548, 7.3121394151574961)	(-4.5380402156692936, 2.0969918974709945)	(6.9644926096115523, -7.2514138198664586)	(-1.6757381168064409, -3.1865875654254889)	1.0	z	1.01169
3	N	B	A	A	N	M	M	B	B	8	7	shapes	B	5	True	78	(2.085892355637375, -0.78652907545040218)	(-0.73702564941281956, -3.6281560940739777)	(-0.98678815804089126, 6.1485304782141377)	(-6.6244073820413449, 6.6302096464441505)	1.0	z	1.09937
4	M	A	A	M	N	N	B	B	B	8	7	shapes	B	5	True	78	(7.8577100130641604, -0.45943804999178717)	(-5.0305004938019895, 6.5245157794541697)	(-7.9880626854870007, -8.7199669395069215)	(4.8516225103532964, -6.7548794182150491)	1.0	z	1.10707
5	M	A	M	B	B	N	A	N	A	8	4	shapes	B	5	False	78	(0.83127139874437006, 3.6882163446724956)	(-5.9920226227387294, 0.69307970618011794)	(-2.4420871673146785, -2.1133979439299626)	(8.0685521843987473, 5.7032374437437667)	1.0	slash	1.12875
6	N	A	M	N					N	4	0	shapes	N	5	True	78	(7.5290994310452248, 1.5911364201792999)	(6.2857678774194152, -8.1896282013203479)	(-3.0852594748882156, -6.5868360027740742)	(-6.5215022642895457, 8.3433957066171125)	1.0	slash	1.93422
7	N	A	M	B					N	4	0	shapes	N	5	True	78	(-3.6973952316444754, 5.9524253015760564)	(3.9713416950673395, 1.8124327004576948)	(8.7193685548919149, -5.8323708832253356)	(-4.0884700545360193, -4.9026493822712478)	1.0	z	0.893787
8	N	A	M	A					A	4	3	shapes	A	5	True	78	(5.0100823163785559, 8.4977055289444152)	(2.1142202068195211, -3.6419816860808503)	(-8.2365888249895178, -1.8953880817591822)	(-4.6858222188194709, 4.7334438714210911)	1.0	slash	1.03532
9	M	A	A	M	N	N	B	B	N	8	3	shapes	M	5	False	78	(-1.6661180063401417, 0.33077490227674033)	(0.73800161737197456, -3.0722614093996059)	(0.78512813502313428, 4.3578866784947401)	(7.7497119204623566, -8.2074972852891293)	1.0	slash	1.46321
10	M	B	M	A					N	4	3	shapes	A	5	False	78	(8.3150633150943314, -5.5542599878712435)	(-1.2046072155883145, -6.0447487121016152)	(-3.7693231280019788, 6.6592147269089761)	(7.0981848384035438, 8.0873001215061215)	1.0	z	1.10073
11	N	B	N	A	A	B	M	M	A	8	5	shapes	B	5	False	78	(-0.03042952919109787, -3.1452454234843223)	(1.6432720114731207, 2.703431432945278)	(-5.2846953588928987, -1.7637428763488368)	(-2.9723760963679009, 7.9910108245450964)	1.0	slash	1.38809
12	N	A	N	M	M	B	A	B	M	8	3	shapes	M	5	True	78	(8.2123600545079185, -5.4294041074916084)	(-4.9579286919537733, 0.91034148855925956)	(5.9408003219005838, -1.9054232066438521)	(7.837318134771035, 8.1316495148551802)	1.0	z	1.07386
13	N	A	N	A					B	4	0	shapes	N	5	False	78	(-2.483251144659202, 5.1051590290396636)	(-6.4414717738964438, -0.4523878183464074)	(5.5798210459158426, 7.9656232144058094)	(8.3297159609784757, -6.5951888052962779)	1.0	slash	0.741692
14	M	B	B	A					M	4	1	shapes	B	5	False	78	(3.7164340548200059, -0.67984907727393917)	(-4.3002271323648724, -8.4385033844598052)	(-0.85826746940607457, 1.5134174290858038)	(7.648577746730858, 2.4286347128465717)	1.0	z	1.0352
15	M	B	M	N	A	N	A	B	B	8	7	shapes	B	5	True	78	(-5.2773519009206602, -2.4006703224200354)	(1.2352565905036261, 1.4554646551552572)	(4.1783286510005979, 6.7297603037516378)	(-1.1596786425841161, -5.5485219436984465)	1.0	z	1.10284
16	N	B	N	M	B	M	A	A	B	8	7	shapes	A	5	False	78	(-5.0992245220513146, 7.1399963337779901)	(2.2845683262731917, 5.3152732951827399)	(3.290198938341117, -8.6955330624337179)	(7.4915484511699439, 5.1457353538048611)	1.0	slash	0.876407
17	M	B	N	B					N	4	2	shapes	N	5	True	78	(-4.4356635949062788, 4.2757535014637398)	(0.10865307629990539, 4.7348321923199634)	(-5.9584948869433489, -4.6464486713097095)	(6.5076990641905468, -7.512325031786661)	1.0	z	1.03188
18	N	A	M	B					N	4	1	shapes	A	5	False	78	(-1.7575085224732829, -5.5341548932396742)	(5.48077804558657, -4.408569351997353)	(-8.6825283229641812, 2.8599233397853467)	(0.043725756893353562, 2.2315146256473319)	1.0	slash	0.923917
19	N	B	A	M	B	N	M	A	B	8	6	shapes	M	5	False	78	(7.9538029661626659, -8.2641802307114585)	(-8.5795440884243295, -3.6408834642347667)	(7.3405631247294814, 2.7702217518566599)	(-8.2572509040426514, -7.9701393396726248)	1.0	slash	1.26101
20	M	A	M	A	B	N	B	N	M	8	6	shapes	B	5	False	78	(-7.9767521635663803, 5.7265123521219596)	(7.9809917853691701, 4.7154681610166875)	(-5.8111417304624169, -4.3038088633670686)	(6.2741909812231889, -5.8220267066401661)	1.0	slash	0.882599
21	M	B	N	M					N	4	0	shapes	M	5	False	78	(-2.9134072953597929, 3.4495489305248839)	(5.493998382154702, -7.6592435252680708)	(-2.4542764634596841, -0.68161701481211168)	(8.3972525178665798, 2.8835290136472)	1.0	slash	0.932632
22	M	A	B	M	N	A	B	N	M	8	3	shapes	M	5	True	78	(-6.1584914966033528, -7.0603424808183917)	(6.0617410819493198, -1.7611990086847662)	(-3.7169719906188021, 4.3585834292611256)	(8.1884167446856857, 2.8920636377721483)	1.0	z	1.19631
23	N	B	M	A					N	4	0	shapes	N	5	True	78	(8.0101618856131012, 7.0514368170702433)	(-4.8190421260487675, 6.815265935367222)	(-7.2554902723539207, -8.0218313154263345)	(3.9831794652254544, -5.4996315797986135)	1.0	z	1.22409
24	M	A	B	N					N	4	1	shapes	A	5	False	78	(3.1672091248858969, -0.45711439946171062)	(-7.3855721205338565, -2.6416076406829472)	(3.4091870783057026, 4.4200122944801414)	(-1.010119405854649, 2.6209347572064861)	1.0	slash	0.805403
25	N	A	B	A	N	B	M	M	N	8	2	shapes	B	5	False	78	(-0.28485367746751677, -6.8050628823960233)	(4.9987364384365183, 7.6900975054891418)	(-5.481064767186739, 4.0562615051767779)	(-7.9552215037535134, 8.6836576963978658)	1.0	slash	0.87931
26	N	B	A	N	M	A	B	M	M	8	3	shapes	N	5	False	78	(3.1426694814939431, 8.4732279191980595)	(1.894340051184658, 4.1845301444900649)	(-5.4001140390553344, -5.0572499582922967)	(2.5935827345411102, -0.35224687564330814)	1.0	z	0.842979
27	N	A	N	B	M	B	A	M	N	8	2	shapes	N	5	True	78	(3.1119307062922346, 1.2272745442438016)	(-3.5679348003212024, 2.8815631821610044)	(-7.640420958861962, 4.857126266541048)	(-7.5321386487540831, -6.8404158057546658)	1.0	slash	0.69051
28	M	A	M	N					M	4	2	shapes	M	5	True	78	(-8.5904868669340679, 0.3021053196985779)	(7.0827773262045071, 0.1816984604403622)	(2.3975386862569188, -8.2419973778217095)	(-3.6444876332277021, -2.2197059241813211)	1.0	z	0.890193
29	M	B	B	N	M	N	A	A	N	8	5	shapes	N	5	True	78	(8.0192683652039669, 4.4232264967696207)	(-5.3550137568570708, 7.9671574470996696)	(4.005433528380097, 7.9129783307351396)	(-4.3514055622723635, -2.2616771089918393)	1.0	slash	1.03542
30	N	A	N	M	A	M	B	B	M	8	5	shapes	M	5	True	78	(3.8831120488018733, 4.8845397604753824)	(3.2316863775588995, -8.4877102433395581)	(0.13252610326250469, -0.20223644472799585)	(1.0860586200863143, 8.4627254786086397)	1.0	z	1.70489
31	M	A	B	M					M	4	0	shapes	M	5	True	78	(2.1608660271894369, -3.5930600723339285)	(-8.2402064233197567, 1.48936996123909)	(2.8827553389692806, 3.0120488861082748)	(-4.6551100223001631, -1.4213572509593595)	1.0	z	1.01256
32	N	A	M	M					A	4	2	shapes	M	5	False	78	(-5.0559344910670205, 0.35598835507205528)	(3.7202792786284, -5.9074454990380527)	(0.34544064596677337, 1.5796511628036818)	(-5.7731976559657401, -4.4600577479048544)	1.0	slash	0.708651
1	N	B	M	M					N	4	2	shapes	M	6	False	78	(3.5178210093090989, -5.6210389470678557)	(-3.3966763539441827, -1.9520753157110597)	(-4.0213857140594929, 6.9617616176831216)	(2.1735293444442636, 7.131321602859563)	1.0	slash	0.776368
2	N	B	B	A					A	4	2	shapes	B	6	False	78	(3.3123206733137778, -4.0348513287494701)	(-8.2081987001514172, -7.1577733074383891)	(-7.1826776582179797, 3.2656630033138008)	(8.3302562067058332, 6.4725013245576655)	1.0	slash	1.44807
3	N	A	A	N	M	B	B	M	M	8	6	shapes	B	6	False	78	(-5.4763821324545354, -6.0057465326549622)	(-0.77057211009792592, -6.4463565770396549)	(4.7065534513451244, -5.4715018601216201)	(-2.9413102117675844, 2.4779883247538503)	1.0	slash	0.697536
4	M	A	N	N	A	M	B	B	N	8	0	shapes	M	6	False	78	(-7.9150845248776669, 1.7819181507940662)	(4.3948829399200289, -6.9427034528068852)	(0.26234393243279719, 7.0839034665166523)	(-6.5100528106894808, -8.332420523009425)	1.0	slash	1.22516
5	M	A	B	B					M	4	0	shapes	M	6	True	78	(7.6440976966825929, -0.88438611797660727)	(-2.9224119182602122, 1.8499672452957814)	(-8.6228142201709179, -8.000754827239092)	(5.1309853441907265, 6.3006732206920084)	1.0	z	1.11088
6	M	A	N	A	M	B	B	N	A	8	3	shapes	A	6	True	78	(-7.472286307485982, 8.5195235868094414)	(-6.704291450769075, 4.5129308801919095)	(1.7048868471264438, -6.5962382349759459)	(7.4060613214921069, -5.8249212300200899)	1.0	slash	1.59648
7	M	B	M	A					B	4	1	shapes	B	6	True	78	(-4.1180725287860458, 2.1070544828770146)	(-6.7711545106874018, -6.9002374673727642)	(5.322968759261526, 6.8431227672580199)	(0.4615192650576212, -3.5797538972274818)	1.0	z	1.04819
8	N	A	A	N					A	4	3	shapes	N	6	False	78	(3.2221795040785732, 5.2314331563493788)	(-3.5049828917477752, 6.0654152190334258)	(8.685971023588241, -0.74495431845379301)	(-2.8740799890568454, -2.9984867945031928)	1.0	z	1.74169
9	N	A	B	N	M	M	B	A	M	8	1	shapes	A	6	False	78	(-4.1882819048121851, -2.8864663727619533)	(-7.4864801192723078, 7.5634031881502501)	(7.2498352551994181, 5.9133170025748996)	(5.0409992478753605, -7.5244623140319407)	1.0	z	1.1793
10	M	B	A	A	M	N	N	B	B	8	1	shapes	B	6	True	78	(4.6749170366116459, 3.7576049553167561)	(-2.0672365656299192, 0.10992031419207926)	(-4.5177525701673167, 8.2017789292990955)	(7.2192480378807762, -7.8908106497123907)	1.0	slash	1.7229
11	N	B	N	B	A	M	M	A	B	8	3	shapes	B	6	True	78	(4.0216683684682621, 2.7044981220182915)	(-2.5946795122057429, 2.6774347280595485)	(7.3594641247112662, -6.2757611090296654)	(-2.3497806682457076, -3.9741920405564546)	1.0	z	0.964485
12	N	B	B	M					N	4	0	shapes	N	6	True	78	(7.6163343077850811, 5.001674638413359)	(-2.6578347701729657, 1.4950755403395721)	(7.5029929757743616, -6.9663421112143444)	(-8.3223627251001844, -2.5872717490392514)	1.0	z	1.51745
13	N	B	B	M	M	N	A	A	B	8	7	shapes	A	6	False	78	(5.2482689476717717, 8.1376910364549033)	(6.7727729302072834, -8.0333177003575589)	(8.6437639201888921, -1.7529804500213721)	(2.9227430994048458, 3.2075597668083216)	1.0	slash	1.03379
14	N	B	A	B					A	4	2	shapes	A	6	True	78	(-8.6828600563339009, 7.8245793808560933)	(2.0274681908941883, -6.3317420374258866)	(0.75984269870687271, 5.126337755361952)	(-5.5207657776461563, -3.9374510453005893)	1.0	z	0.797276
15	N	A	N	A	B	B	M	M	N	8	0	shapes	N	6	True	78	(7.3070549613140479, -7.4551854224737406)	(0.98868713783355489, 2.6779363711828523)	(-3.0781067522083561, 1.8895024086619312)	(-0.16043755421855899, -3.1625628005696322)	1.0	z	1.39286
16	M	A	M	A	N	N	B	B	M	8	6	shapes	B	6	False	78	(-3.8087616829177291, 3.2773828098664719)	(2.1694424802483816, -3.9745767874123175)	(-7.4000756337409328, 6.1430283274969355)	(6.7314516857222699, -6.2757728735060239)	1.0	slash	1.4128
17	N	A	B	M	N	B	A	M	B	8	5	shapes	B	6	True	78	(3.8918227957126348, 7.5326045895711822)	(-4.6716130782113083, -0.33449296046888755)	(-6.9712445349304444, -4.6124574070363185)	(4.9447297359177202, -8.5979978769614487)	1.0	z	0.932083
18	N	B	A	M					M	4	0	shapes	N	6	False	78	(5.424908649660054, 4.1163472677269013)	(-2.4799880614896415, 0.82034891579270486)	(6.8580613731957243, -7.5892031446410559)	(-7.6714817309839347, -8.305326341977386)	1.0	z	0.939935
19	N	B	M	M					N	4	0	shapes	N	6	True	78	(-5.1299835750781195, 1.180000740507154)	(8.4723002880937983, -3.6044409457945115)	(5.2849923785219985, 8.041699383487952)	(-0.81836059781684156, -2.9253619781326146)	1.0	z	0.865617
20	M	A	A	M	B	B	N	N	A	8	0	shapes	M	6	False	78	(-6.1848288739879909, 6.6640476949058289)	(3.4771016138098609, -6.079713996672119)	(1.8802103669167956, 8.1790572680109612)	(-0.98350741218302407, -4.6574337229494551)	1.0	slash	1.38467
21	M	A	N	B					M	4	0	shapes	M	6	True	78	(-6.9315776862219867, 5.9973676561702902)	(-7.9219197260203105, -7.6617244443630277)	(8.4939088466368702, 6.9745732041486086)	(0.16083662294811063, -4.6601788915114462)	1.0	slash	1.27877
22	M	A	M	B					B	4	1	shapes	A	6	False	78	(3.2751428319276759, -7.2990125518131883)	(-5.2939035126369163, 8.2560012876679707)	(-2.8890177736636753, -8.5295296046585509)	(7.8506758880214313, 5.8421720324608835)	1.0	slash	1.29642
23	N	A	A	N					A	4	2	shapes	A	6	True	78	(3.5568865120012259, -1.2520830109171346)	(-0.75970349578746177, 6.8097202900475171)	(4.5831677291926827, 4.9452358277856145)	(-3.0034262762743396, -8.1116130684774728)	1.0	z	0.896035
24	N	B	B	A					M	4	2	shapes	B	6	False	78	(-4.4143294321935276, -4.9987202796538401)	(-3.451694292819024, 0.66071789642329115)	(4.5370643083341999, -3.7962137847108153)	(2.9824564186026929, 7.6905842056159557)	1.0	slash	1.91164
25	N	B	N	M	A	M	B	A	B	8	6	shapes	B	6	True	78	(0.80992406006993001, 7.3393150774988278)	(1.0638544518210562, -8.6005674674473997)	(-5.0690724414780775, 8.3018132624767418)	(-5.1051756926383938, -4.6141881701371421)	1.0	z	1.10734
26	M	A	B	N	B	M	N	A	A	8	0	shapes	M	6	False	78	(-5.5889497345042729, 3.2755802169121502)	(3.4897276036399347, -4.1694042216279588)	(5.6894287606970639, 7.3955906466744921)	(1.1694827410693058, 7.7309628879045995)	1.0	slash	0.872019
27	M	B	A	A	N	N	M	B	A	8	1	shapes	B	6	False	78	(-2.629517489887669, -4.2944733591001558)	(-0.80866513949818319, 0.76792657814022647)	(-5.2343811402985283, 8.0667337430221515)	(2.7852047983636545, -7.3977790898289335)	1.0	slash	1.17262
28	N	B	B	N					A	4	3	shapes	N	6	False	78	(-5.9372528032756087, -1.8566744387970679)	(0.72262182647516582, 3.4102833577424079)	(5.0378164975600637, -1.270161128033866)	(-7.7227793745137383, 6.3732002379167785)	1.0	slash	0.796049
29	N	B	N	M					M	4	0	shapes	N	6	False	78	(-4.516148284783462, -6.6987380309776281)	(-4.9238486340979373, 6.0080789120580445)	(8.1471496724200883, -5.8228394537710404)	(1.8076818442919151, 5.0543702402473158)	1.0	z	1.75985
30	N	A	M	N	A	M	B	B	A	8	1	shapes	A	6	True	78	(-2.0833317568309608, 8.236464662858836)	(2.6080039028403306, -5.1120360620289871)	(-6.1409936098978797, -7.4007277289369853)	(1.9517143858355013, 3.4970752952307151)	1.0	slash	0.876933
31	N	A	M	A	B	M	B	N	B	8	6	shapes	B	6	True	78	(-7.7169154830667859, 6.2520326472794316)	(8.2977309190019781, -7.4432368064383949)	(5.77157808792232, 5.5210230444402999)	(-0.70099758047643057, 2.2587908546496642)	1.0	z	1.54497
32	N	A	N	M					M	4	3	shapes	M	6	True	78	(-8.0613178745331311, -7.9848311733692476)	(6.5665194486436391, 6.1282338066758886)	(-0.4982253841897375, 1.2246229019585595)	(7.9563795259311192, -6.233111620494018)	1.0	slash	2.01471
1	N	A	M	A	N	M	B	B	B	8	4	shapes	N	7	False	78	(-7.3939701273767646, 5.2547717739806679)	(1.1680412678173369, 4.9023842486509039)	(2.8696636382659442, -8.7418729021311048)	(0.040934670860258038, -5.2889880493533807)	1.0	slash	0.80756
2	M	A	B	A					N	4	0	shapes	M	7	False	78	(-0.75468165623508909, -7.7198624801336422)	(4.1967747265944766, -1.6775068511568225)	(-5.4764357986790442, 0.1692674954496578)	(1.9550565382373382, 7.805527749755182)	1.0	slash	1.95174
3	N	B	M	B	N	A	A	M	B	8	1	shapes	B	7	True	78	(7.8965145845583713, 5.0368740617677208)	(-1.8114121533281526, -6.4564717272238656)	(-4.4084320883051014, -2.5243063066218472)	(1.7313116071119072, 2.9885600582628857)	1.0	slash	1.52285
4	M	A	N	B	N	M	A	B	B	8	4	shapes	N	7	False	78	(-0.56788852814764645, -6.0672603017462805)	(-7.4554165416330545, -1.927693304618729)	(-5.6579304840489062, 7.7441839576629512)	(3.8964137082795052, -3.1471199742179907)	1.0	slash	0.94057
5	N	A	B	M	B	A	N	M	M	8	0	shapes	N	7	False	78	(3.418008935548345, 2.9891117821241124)	(6.9389257725529632, -7.033986219905624)	(-2.8900792809733931, 0.61239274620442785)	(-2.1207139357773386, 8.5051135275138208)	1.0	slash	0.876553
6	N	B	B	N					N	4	3	shapes	N	7	True	78	(3.0564156429286431, -2.2950682184556843)	(-2.3998134950376411, -1.8231322562592958)	(1.5794902062092131, 5.073955532001083)	(-4.9072319043576265, 2.9691871249325867)	1.0	z	1.95212
7	N	B	B	N	A	M	M	A	B	8	0	shapes	N	7	False	78	(4.5266395990101937, 4.5702557178709959)	(-1.3489707943194142, 4.9708349139709043)	(1.3111473084545686, -3.3387593926532961)	(-7.3219756598453838, 2.1264712941351505)	1.0	slash	0.715818
8	M	B	N	A					M	4	2	shapes	N	7	False	78	(3.5242326834150255, -5.322459293871928)	(-7.575935464915597, 5.4309720699820492)	(4.8656720504320035, 8.5529188505128673)	(-5.6716997230127237, -8.3999289215062021)	1.0	z	1.91761
9	M	B	M	N	N	A	B	A	N	8	5	shapes	A	7	False	78	(-0.040178065008495523, -3.9288905591948335)	(-7.161601604106429, 8.3804853329470355)	(-7.7623997630170489, -8.7157848680731682)	(-1.1201157761758251, 8.1829445040616129)	1.0	slash	0.840921
10	N	A	B	B	M	N	A	M	M	8	4	shapes	M	7	True	78	(7.2397906591920478, -3.8440366954156326)	(0.25825205609964286, -8.5688717972897965)	(-8.3990838449873237, -5.9620425953678797)	(-4.5430651474706227, 5.8598908370595382)	1.0	z	1.70076
11	M	A	M	B	N	B	N	A	A	8	2	shapes	M	7	False	78	(6.1756567778372489, 2.9135564239897551)	(-3.4499729377947954, 1.1191394704171262)	(-5.5564793169488054, -8.5173076168043735)	(6.4743542367845812, 8.5777312732238293)	1.0	slash	1.37177
12	N	B	A	B					A	4	2	shapes	A	7	True	78	(-1.5805558302452116, -4.6650060439592265)	(8.4559363477597955, 2.1239593326892496)	(3.4270698168316525, -5.5713812236609979)	(-6.2355508609253949, 4.6743330279435042)	1.0	z	1.75391
13	N	A	N	B					M	4	1	shapes	A	7	False	78	(-6.5097655116842637, -7.8717538001057461)	(7.7653711519349038, 1.081561318712783)	(-7.9579824029197184, 8.4894700287801506)	(6.6979252872683315, -6.8597044943326635)	1.0	slash	0.805406
14	N	A	A	M					A	4	1	shapes	A	7	True	78	(3.6209516699405562, 3.0858383785259438)	(6.8369222357044528, -4.0081555176503505)	(-7.4676048100621815, -0.018754387097468239)	(-4.4008027240820544, 6.88951462819524)	1.0	z	1.35922
15	N	A	B	M					B	4	0	shapes	N	7	False	78	(-6.2174839462246219, -6.8975620154648221)	(2.9500894423044688, 0.8071980878585876)	(-7.7298557577086431, 3.4515940056270189)	(1.4469369416527122, -4.2677380378005445)	1.0	slash	1.11874
16	N	A	M	B	B	A	N	M	M	8	1	shapes	A	7	False	78	(-0.31873979819028975, -6.1876329579184413)	(-5.1685085003161788, -7.2225691451895031)	(0.39990919946847647, 2.324055545161233)	(-4.4664105336942885, 8.6452352954285843)	1.0	slash	1.12179
17	M	B	N	A	A	M	B	N	B	8	6	shapes	B	7	True	78	(-6.7151432336872343, -2.0674492179452288)	(-7.1869070941954432, 6.2964530986196436)	(5.6413240753983498, -7.3862324563370567)	(-3.5976043146724788, 1.445614717723112)	1.0	z	1.132
18	N	A	A	M					A	4	1	shapes	A	7	True	78	(-1.1522580421740694, 3.0198165354440469)	(4.08591978680038, 3.2906991872080145)	(5.1446822551494087, -6.1568455255328898)	(-3.2540184572523749, -1.1819854943834924)	1.0	z	1.00962
19	M	B	N	B					M	4	0	shapes	M	7	True	78	(1.0608772045084205, 6.643312498606198)	(-2.0159034938897884, -5.941816156983565)	(7.0206086221532491, -1.4413082672054855)	(-8.6173741302311608, 0.61806209511123278)	1.0	slash	1.42528
20	N	B	M	N	B	A	M	A	M	8	7	shapes	A	7	False	78	(5.4702655015474146, -2.2904022976254854)	(1.1978392326635685, 3.0382516306928071)	(7.5405930231753544, -7.505566994988575)	(-7.9657224959310566, 5.3256889396652198)	1.0	slash	1.359
21	N	B	A	M					N	4	3	shapes	M	7	False	78	(-7.5881404712467813, 8.6148172359270418)	(-2.4522809523629592, -3.6447268322819948)	(1.7648498891472428, -8.6543467675157757)	(6.2117315200496606, 3.2714323018682432)	1.0	z	1.13642
22	N	A	M	B	N	A	M	B	N	8	0	shapes	N	7	True	78	(7.6548503269816237, -0.49497638167013491)	(-8.3831243430115681, 7.228910147632563)	(7.8074082335875303, -5.842076280071022)	(-2.0347562715861685, -4.1878333475985912)	1.0	z	0.944177
23	N	B	N	M					B	4	1	shapes	B	7	True	78	(5.0187015649552578, -5.2062454088815384)	(-3.8869306422571208, -1.6056186838264113)	(-7.881095375630796, 7.9322866235193246)	(4.7446911098060855, 0.48741884374345901)	1.0	z	1.19755
24	M	A	B	B					M	4	2	shapes	B	7	False	78	(-8.0739216664172613, 1.0566987212328058)	(2.9007314333396312, 4.1914068421669075)	(7.3336374602387124, -6.5362194024870668)	(-6.9616212904454393, -5.336090553700144)	1.0	z	1.20753
25	N	B	B	A					N	4	3	shapes	A	7	False	78	(-1.6763706966138372, -2.5051501467173649)	(1.5786815427844534, 6.9853434236824299)	(-6.3139553590076574, 1.6395376544960403)	(7.4887598677658929, -3.6463558097065283)	1.0	slash	0.727299
26	N	B	A	A	M	N	M	B	A	8	3	shapes	A	7	True	78	(-3.683206989757994, -0.50635561547142238)	(-6.307654040808111, -4.0181172844200903)	(7.4527163518089736, 3.9247298372363542)	(3.2847304794890881, -5.3843963683797007)	1.0	slash	0.936621
27	M	B	N	N	B	A	A	M	A	8	6	shapes	A	7	True	78	(5.6594935259999879, -1.0934430287087009)	(-2.2434634360162606, -5.6235282652508154)	(-5.3222069821376561, 3.0496801292073119)	(-7.2740426372679625, 8.4522680297417736)	1.0	slash	1.00835
28	M	B	N	B					N	4	2	shapes	N	7	True	78	(-2.0019558686936598, 7.1620273081000523)	(-6.3762891976540361, -8.1478740988141904)	(5.9814341308528363, 2.6608893645415623)	(4.0790851490071844, -6.8420166521938128)	1.0	z	0.757957
29	N	B	B	M					M	4	3	shapes	M	7	True	78	(-2.8118825558049911, -7.983679454596925)	(-1.3600090974968628, 5.7022493318183791)	(6.3545399366443291, 0.30259133435643193)	(6.3533658462364997, -6.7931407714621805)	1.0	z	1.14368
30	N	A	A	N	M	M	B	B	M	8	5	shapes	M	7	True	78	(-0.12171326247358927, -2.2487344307543911)	(-0.97887929395443507, 4.9581373085481673)	(-5.7694864892487505, -6.5149892659045063)	(7.8136508936084468, 8.1604570022760434)	1.0	z	0.863234
31	N	B	M	A	M	N	A	B	B	8	1	shapes	B	7	True	78	(2.3922251245004382, 0.084645722174151672)	(6.0017987003970177, -7.63307308137734)	(-6.424694170746184, -2.9697510911279519)	(-8.1465265945180771, -6.9718731737147346)	1.0	z	1.01096
32	M	B	M	N					N	4	1	shapes	B	7	False	78	(6.2571761092472098, 2.8632236604977539)	(-2.6590182782437033, -6.9271234798212644)	(-5.072704636929231, 1.1777889250399429)	(3.4185870517693484, -4.4241909791060872)	1.0	slash	0.89857
1	M	B	A	A	M	B	N	N	N	8	7	shapes	N	8	True	78	(6.5473157140615417, 3.0387256319955931)	(-7.1690187681608224, -7.6159597908436014)	(-0.14978934576592096, -8.3971616836435174)	(-6.0215249618513926, 6.5459792819135476)	1.0	slash	0.876209
2	M	A	B	B	M	A	N	N	B	8	7	shapes	N	8	False	78	(0.064103586095829002, -8.1070075407651565)	(5.9451128833571971, 1.965478808793554)	(0.64952404698331989, 6.8608397723854857)	(-4.140456062843378, -5.1263556700082908)	1.0	slash	0.793414
3	N	A	A	B	B	M	N	M	B	8	3	shapes	B	8	True	78	(0.96029440273334998, 3.8390248025779883)	(-0.44375846258365037, -4.2908462881178941)	(4.3432140493850415, 8.252064805315932)	(-7.0574514582467742, -6.0730262862604434)	1.0	slash	1.32478
4	N	B	A	M					N	4	1	shapes	B	8	False	78	(6.5947884588837198, 1.4827074775147864)	(-1.6112648109189625, 6.5875082886011942)	(-4.4918413339130199, -3.9817362248758492)	(1.2242323866327887, -2.9932131058186826)	1.0	slash	0.708921
5	N	A	B	N					A	4	0	shapes	N	8	False	78	(2.1036435631705395, -2.0725479911025628)	(-4.5111331081173756, 6.8023413827271071)	(-0.9486218324021749, -6.5514727956655854)	(4.2834931090274271, 4.3094801129264031)	1.0	slash	0.616721
6	N	A	A	M	B	M	N	B	M	8	0	shapes	N	8	False	78	(0.68697355778012437, 0.80030732064005683)	(5.1426898902348164, 3.9086526242752875)	(-7.3573075643108918, -7.423661998608388)	(-0.59335057728088003, 5.4656973071812107)	1.0	slash	0.664458
7	M	A	N	A	B	N	B	M	N	8	5	shapes	N	8	True	78	(4.9836062397295482, -0.8153240669970927)	(-5.7735109719511302, 0.32296711577684079)	(-4.1051756845429361, -7.1742349520781286)	(-0.51065727209423883, 5.5538560374689538)	1.0	z	1.00386
8	N	B	M	M					M	4	2	shapes	M	8	True	78	(-1.7534594859285191, -2.4772518906082821)	(6.7610341480044802, -7.7072804614654391)	(0.93562434005379025, 0.88647695159441575)	(-6.78620556422955, 8.1948395516126489)	1.0	slash	1.00579
9	N	A	N	B	M	M	A	B	M	8	3	shapes	B	8	False	78	(-7.2328171333356623, -2.2578135280129477)	(-7.8118826641324244, 2.4960624600004078)	(6.9253256459671029, -6.8695379538439507)	(8.0721022605106256, -1.843796458852875)	1.0	slash	0.935376
10	N	A	M	M	A	N	B	B	M	8	0	shapes	N	8	False	78	(2.2262438785537544, 7.1738859949857066)	(-5.8480774255058066, -4.2944348261473557)	(-8.6900363735574722, 2.4983313686226492)	(-2.9068451582715742, -8.4945625110416856)	1.0	z	1.12625
11	N	A	N	B	B	A	M	M	A	8	1	shapes	A	8	True	78	(-4.1194354219459521, 8.4008376098614121)	(7.1365504914406603, -2.282186151802251)	(4.2304124123792768, -5.4044827833845286)	(4.0090046179362293, 0.6781371628535755)	1.0	slash	1.32849
12	N	A	B	M	M	N	A	B	M	8	4	shapes	M	8	True	78	(-2.0280158873074328, 3.4198047447672657)	(6.3194373484964874, -7.9203950300370094)	(-4.2879875115663229, -0.3696421344940628)	(-3.3714819028134952, 7.3320551187022502)	1.0	slash	1.01013
13	M	A	M	A					A	4	0	shapes	M	8	False	78	(-4.5376081138208324, 7.6932982655322135)	(3.2809949065119817, 8.1064935110319283)	(-0.64997267686125149, -8.1583556608399199)	(7.3210892861774575, -0.6866620710845357)	1.0	slash	0.769743
14	N	A	B	B	N	A	M	M	N	8	3	shapes	B	8	False	78	(-4.1410143542908573, -1.1551995306437775)	(-1.088822047605734, 5.7611662901934118)	(3.9883322525573259, 5.6498214004023097)	(-7.1643013559842066, 7.1557772809583771)	1.0	z	1.17107
15	M	A	A	N	B	M	N	B	B	8	7	shapes	B	8	True	78	(4.8066722918473292, 7.1879096914129565)	(1.5811995505920304, -6.5286600634552165)	(-5.5677399424707081, -1.2170143748300877)	(7.6341322333276693, -6.6031131269187746)	1.0	slash	0.979072
16	N	B	B	M					N	4	0	shapes	N	8	True	78	(-0.6532192342955554, -0.53073981209824872)	(-7.4392160725270777, 0.19116363297738026)	(4.3951665526245076, 3.0917706582971434)	(6.1491907638530119, -5.9299801564949393)	1.0	z	1.20662
17	M	A	A	N					A	4	0	shapes	M	8	False	78	(-4.3285886141017684, 5.7324963414183081)	(-0.58640571703336342, -3.0505658775409135)	(7.1494651317269025, 7.3429306787000499)	(8.1821516559558916, -3.5796819719098387)	1.0	slash	0.774224
18	N	A	B	A	B	N	M	M	A	8	0	shapes	N	8	False	78	(-6.0684942177623, -3.6595068059356155)	(2.5980017875270125, -7.4127870157645992)	(5.3610915909178267, 0.71845898637150896)	(-0.50870522835430521, 7.0574555054637322)	1.0	z	0.949437
19	M	B	M	N	A	B	N	A	M	8	5	shapes	B	8	False	78	(1.056710902399475, 2.9288824867881829)	(-4.7905489496990619, -7.9567256468759355)	(4.1815640586448346, -1.2842758533340151)	(-8.5899576067515806, 0.37901767947917442)	1.0	slash	1.21955
20	M	A	B	B					M	4	1	shapes	A	8	False	78	(-5.2052228107408709, 1.9250500989001829)	(6.6895710244092701, 3.2017905149919361)	(4.4424706533548939, -7.6420390090978483)	(-0.41159882036777162, -6.2167112490539251)	1.0	slash	0.577179
21	N	A	A	B					A	4	2	shapes	A	8	True	78	(-1.1173013117174868, -6.150975491888178)	(-4.5089963967990254, 4.2408840885823604)	(4.0527046718699413, 8.1735459708412428)	(3.7453831421096098, -0.25955012650067388)	1.0	z	0.728942
22	M	B	A	B	A	N	N	M	N	8	5	shapes	N	8	True	78	(4.647410207888143, -5.1974500487240434)	(-5.8919208133632699, 6.5797535074026499)	(6.7547754402587419, 6.6171784873655586)	(-8.5654175821480649, -7.7772560393456267)	1.0	z	1.19461
23	N	B	N	B					N	4	0	shapes	N	8	True	78	(6.4566465038567102, -0.21594518436011256)	(-6.8468092717741067, -6.3642018164180048)	(8.1719932818380485, 4.137985367088401)	(-1.5613940580058792, 4.9326725093184223)	1.0	z	0.996188
24	M	A	A	N					N	4	3	shapes	N	8	True	78	(-1.9968865505174049, -7.2185684641677579)	(6.417116854411745, 6.2694911469770691)	(5.9728845033241509, -4.8886870054517875)	(-6.8397241788491723, 1.1094575233440249)	1.0	slash	1.04001
25	N	A	M	N	M	B	B	A	B	8	5	shapes	B	8	True	78	(-4.2617111270684713, -4.8260304859611836)	(5.9003440095565693, -1.8229710578487772)	(7.8091687264736365, 3.0648399089975609)	(-5.2564914675709549, 6.6632643595774539)	1.0	z	1.45114
26	N	A	M	N					A	4	0	shapes	N	8	False	78	(3.2296906876397813, 7.0938691932881213)	(-3.0157075828552369, -1.4743276159214131)	(-4.9630782616572997, 2.0287622064112298)	(0.99054749105032336, -4.0886522942214043)	1.0	slash	0.939052
27	N	A	N	B					A	4	1	shapes	A	8	True	78	(-8.1015316029776141, 0.23259717448153516)	(-1.3616401985421733, -7.8898590536517652)	(4.8527543274845542, -1.2887575816437291)	(7.7919624295360848, 8.3705253716879646)	1.0	z	1.25474
28	N	A	M	N					N	4	3	shapes	N	8	True	78	(-7.694386373782482, 0.18377547553178353)	(6.3526406284911907, -7.647434823626984)	(1.0610298656691342, 7.9104657971805707)	(-1.4639864452805966, -0.49567098867340675)	1.0	slash	0.830359
29	M	B	M	A	B	A	N	N	B	8	5	shapes	A	8	False	78	(-1.6542074528579045, -5.4589749948662041)	(-6.1151872379942809, -5.56473148369877)	(-2.3254901658896863, 2.4310878456370375)	(2.112470121525801, 3.3151744249835495)	1.0	slash	1.00365
30	M	A	A	N					N	4	2	shapes	A	8	False	78	(-1.2806299723144345, -6.3200439172352434)	(5.0033885067709249, -5.0489444805985793)	(7.0805913316803544, 3.0672988408749866)	(-5.8334903054957428, 7.7077567645061471)	1.0	slash	1.06931
31	N	A	M	A					A	4	1	shapes	A	8	True	78	(5.9891776775394909, -8.4636130091211541)	(6.90265625535271, 6.9557602707324833)	(-0.34213196581408489, -7.4728209183209495)	(-7.0433360326462573, 0.7918564352956512)	1.0	z	1.07327
32	N	B	M	N					B	4	2	shapes	M	8	False	78	(3.7675390107012774, -3.835517799135018)	(-2.8555582765179803, 2.6011225975008401)	(2.9732202167332353, 0.41804213130306245)	(-7.8151088947067704, -7.7195546780858972)	1.0	slash	0.805019
