TrialNumber	stim0	stim1	stim2	stim3	stim4	stim5	stim6	stim7	stim.probe	ttl.stims	corr.num	trial.type	stim.corr	block	match	Subject	stim.pos0	stim.pos1	stim.pos2	stim.pos3	ran	resp	RT
1	N	A	A	M					B	4	3	shapes	M	Practice	False	79	(4.7690693151787471, 6.7984072711496832)	(-2.5974194752414874, 4.2132527366289327)	(-2.3278069333930729, -4.3944298552332199)	(7.9147167301951811, -6.4343428202932529)	1.0	slash	3.01692
2	N	B	B	M	N	M	A	A	B	8	1	shapes	B	Practice	True	79	(6.1483492540139313, -4.8665233462131097)	(3.4494485024713235, 2.2893509988161291)	(-0.40322966174878694, 6.224895127321922)	(-7.9759016082302683, 4.7572833299037498)	1.0	z	1.2587
3	N	A	M	N	B	B	M	A	N	8	1	shapes	A	Practice	False	79	(6.9036409968164651, -7.3355441987541425)	(6.6937672752369561, 0.69327536164681192)	(-7.3232566500953267, 3.4938115780197663)	(-1.8780579133641222, 3.1390552401492791)	1.0	slash	1.76419
4	M	A	B	M					M	4	0	shapes	M	Practice	True	79	(-3.1908304613417577, -5.578084842004734)	(0.89531504952891083, 3.3878763035858324)	(2.5606940582041773, -1.8283844807532184)	(-7.8498225704116376, 0.20975287837144485)	1.0	slash	1.45376
5	M	A	N	N					N	4	3	shapes	N	Practice	True	79	(-1.6321417836755794, -0.92912282892061526)	(2.942194750732618, 7.4466189438543964)	(8.2126209311248566, -6.4273673523183623)	(-3.068546678494136, 3.4477024541402397)	1.0	z	0.941386
6	N	B	M	A	N	B	A	M	M	8	2	shapes	M	Practice	True	79	(5.4738557850929315, 3.1223395636426563)	(2.5087513164882456, -7.0169877074353169)	(-3.1387566009885957, -4.8145854623844571)	(7.352471191188652, -3.146843187083264)	1.0	slash	1.18852
7	N	B	N	M	M	A	A	B	N	8	3	shapes	M	Practice	False	79	(3.4155234875013942, 3.2428976363397286)	(0.63686264961747696, -8.5781840123131676)	(5.1125745023544802, -1.104229516920161)	(-4.8399178562775296, -2.6109393474714651)	1.0	z	1.25653
8	N	B	M	B					A	4	3	shapes	B	Practice	False	79	(0.13108018011549305, 6.8741874583169924)	(-8.6587353869058266, 6.8175705158368665)	(-3.7978649689857971, -7.7462040426637708)	(3.7152575558908563, -8.2263390283638387)	1.0	z	1.15816
1	N	A	N	B	A	M	B	M	N	8	2	shapes	N	0	True	79	(2.1822707072304723, 5.8596564108161289)	(-2.7945309055869227, 5.2844740238124199)	(-7.7330927588538101, 0.33745037706729697)	(5.6651780647825625, -8.0195631099342339)	1.0	slash	1.17533
2	N	A	B	A	B	M	M	N	B	8	4	shapes	B	0	True	79	(7.0903307701271885, 3.523717835565332)	(-1.8932423945644521, 8.3904178189314926)	(-6.5516462700687539, -5.0340324487196701)	(2.7263849836381056, 0.94338954963064303)	1.0	z	2.31289
3	M	B	N	B					M	4	0	shapes	M	0	True	79	(-2.6424937725207034, 4.9109346732098356)	(5.648238184833799, -5.0825666933342664)	(6.0932029253259525, 6.8686981432243197)	(-0.62903646194529017, -3.2013867320546785)	1.0	z	0.860591
4	N	B	B	A	M	N	A	M	A	8	1	shapes	B	0	False	79	(1.6960269611852805, 3.330511150630235)	(1.5136570026272462, 7.9142130880755381)	(3.7644947644750459, -3.2708068055292676)	(-8.546026091130237, -1.7851503510488618)	1.0	z	0.990145
5	M	A	N	N					A	4	3	shapes	N	0	False	79	(-2.0905152797335997, -1.5395639219617356)	(3.7747336113116177, 3.243123572137101)	(-3.4432393500284961, 7.3929536459305005)	(4.5130996119449698, -3.4532612293718747)	1.0	slash	1.17766
6	M	B	M	A					B	4	3	shapes	A	0	False	79	(-6.47336643882619, 7.0681970988039335)	(7.7553073360079274, 7.060076655099552)	(-5.9113351039872448, -5.1609416985397907)	(5.1035618025726261, -0.89468289954864755)	1.0	z	0.903465
7	N	A	N	A					A	4	3	shapes	A	0	True	79	(1.6282080721514038, 4.3209817335452918)	(-2.5477993676489197, 8.1255107393777273)	(-4.1914210316101377, -1.2901413901759131)	(6.6005104436431594, -0.79081956021798039)	1.0	z	0.674984
8	M	A	N	A	M	N	B	B	A	8	3	shapes	A	0	True	79	(1.8888013708072204, 4.1562491333843017)	(4.3025861621839052, 7.38198722059375)	(7.3302744943422873, -1.0242369812490866)	(-0.44965533393033752, -8.0243572745463823)	1.0	slash	1.54471
9	M	A	N	A					A	4	1	shapes	A	0	True	79	(-1.0799663789497771, -7.1429307861729692)	(5.4642096882936677, 8.6817687122538629)	(-2.6658700890087959, 0.95209333657859929)	(2.3647777017491407, -2.0874977878734757)	1.0	z	0.862275
10	N	B	M	A					M	4	2	shapes	M	0	True	79	(-8.2489127826310149, -2.510442077683372)	(-2.5900528079617757, 5.4720807630346098)	(1.3390649117810085, 0.85294446750812547)	(1.643615893436138, -5.4333091907692186)	1.0	z	0.837981
11	N	A	N	M					B	4	1	shapes	A	0	False	79	(0.96360597170675177, 3.2130455774219726)	(-7.4981929583668219, 4.088026781719142)	(-8.2669332694320339, -5.8171770663398767)	(4.185124890696013, -7.3535849949307641)	1.0	z	1.66362
12	M	A	N	B	M	N	B	A	M	8	0	shapes	M	0	True	79	(5.0437197348212859, 5.5847759944243371)	(-1.7555434567237356, -3.4549573385725063)	(0.47404207495847572, 6.9253433371623885)	(6.2839395184045408, -8.6433047100144922)	1.0	slash	1.80705
13	M	A	M	N	A	N	B	B	B	8	0	shapes	M	0	False	79	(-0.89401974050053301, -3.6789712666893033)	(0.16236442898742354, 2.954589194800036)	(7.9027735353540578, -0.67189049574194826)	(-6.8096740346110209, -8.5739822596239552)	1.0	slash	1.40254
14	N	B	N	B	M	M	A	A	B	8	1	shapes	B	0	True	79	(6.4731887531440062, -8.3539316541286297)	(-3.8585427396030916, -1.161151329682367)	(7.2215918278886608, 4.3540022498459692)	(3.0603060800314665, -3.4562218883724052)	1.0	z	1.36626
15	M	B	B	M					A	4	0	shapes	M	0	False	79	(5.6600674682139811, -4.6477653779115897)	(-4.1121909845990769, -5.4298581803324701)	(-5.5692857527734034, 3.2589059507280371)	(2.1688013904370056, 7.3550956869501825)	1.0	slash	0.719904
16	M	A	N	B	M	A	B	N	M	8	3	shapes	B	0	False	79	(8.3800787784129618, -5.7563957684085914)	(-4.5058586846000717, 0.95560830272208719)	(-1.783575894762552, -7.8135753191999378)	(-1.2280768279692502, -2.5741309216171286)	1.0	slash	1.03772
17	M	A	A	M					B	4	2	shapes	A	0	False	79	(-7.8690177063675666, -0.63365949989597148)	(-7.0886946943965912, 6.6545844513033572)	(8.2332732500134753, -3.5968165254957656)	(8.3685169842856411, 1.8491894414387513)	1.0	z	1.49527
18	M	A	M	A	N	N	B	B	A	8	2	shapes	M	0	False	79	(4.18659573226474, 7.7536746374067036)	(4.2892048496191606, 1.508910998714331)	(-4.5523824456910438, -8.6594253647496959)	(-0.42290734855023437, 0.7978042356300783)	1.0	slash	1.64084
19	M	A	A	M					M	4	1	shapes	A	0	False	79	(0.15400902758926449, 5.2816747087457472)	(6.4427483651289741, -4.031441554248139)	(-3.9723533356713041, -3.2865605492011563)	(-7.6433990931052351, 6.9191471725137141)	1.0	slash	0.850487
20	M	A	M	A					A	4	3	shapes	A	0	True	79	(4.3136170304273591, 0.7701680660263861)	(-8.6102723638326975, -6.2273741618688705)	(-3.2278180053316747, 4.8290678414911614)	(3.1882999182192364, -3.0937648327154834)	1.0	z	0.648983
21	M	A	B	M					B	4	2	shapes	B	0	True	79	(5.3785087620788392, 4.8672703937667237)	(-0.91304870516675063, -5.7471640723990358)	(7.4685195769673527, -3.3741119069384489)	(-1.791002785355337, 6.5915722639679757)	1.0	z	0.741774
22	N	A	B	B	M	M	A	N	A	8	4	shapes	M	0	False	79	(1.765574252095373, 7.2418291954447529)	(6.4184559092529412, 6.9726665402568013)	(-7.0055076363205933, 2.7412961142641485)	(-4.5853381639700288, -5.5384396307198411)	1.0	z	0.868864
23	N	B	N	B	M	A	M	A	M	8	3	shapes	B	0	False	79	(-2.9976046721512954, -4.381406182729612)	(-4.1014097741220752, -0.0058379463300362033)	(-7.4062026799526191, 3.5284468521669226)	(2.2885536800185342, -0.97137501567867002)	1.0	slash	0.957025
24	N	A	A	B					B	4	3	shapes	B	0	True	79	(-4.0051635028182906, -7.1669703510161735)	(1.5551233216592237, 1.4832128866956236)	(-1.6974449340828413, 7.7821498005129968)	(5.9932969662396154, -0.10022355825764073)	1.0	z	0.582694
25	M	A	B	A	B	N	M	N	M	8	6	shapes	M	0	True	79	(8.2021725258927987, 3.3303018956880681)	(2.0705223452139361, 1.2493921329190361)	(-6.2068648058869194, 2.3981357269879666)	(-6.1827321562552235, -1.8594029652681687)	1.0	z	0.758554
26	N	A	M	M	B	A	N	B	N	8	0	shapes	N	0	True	79	(1.5346291867420963, 6.3940345586169727)	(5.7517298425736936, 6.9027429680479191)	(1.6881999607188103, -1.740366884469787)	(-3.084866559364265, 8.0536274486206452)	1.0	slash	1.32387
27	M	A	N	B					N	4	2	shapes	N	0	True	79	(-0.6122991911739728, -4.6994439612600472)	(4.0665257088249458, -4.3343359932451246)	(6.8312695349118684, 7.8442597167861337)	(-6.937340205732812, 7.6052771749744537)	1.0	z	0.677679
28	N	A	A	M	N	B	B	M	N	8	1	shapes	A	0	False	79	(-3.7303321355009604, -8.2271347170345184)	(0.73273956226268133, 8.2467293181565076)	(-8.5901823052058628, -4.706421653851141)	(4.7377023957806657, 7.1032078333685096)	1.0	slash	0.69122
29	M	B	N	A	A	M	B	N	A	8	0	shapes	M	0	False	79	(-4.8705018195541019, 0.87895663287587666)	(2.4633827788723774, -7.2102733392882632)	(8.7258875989617408, 4.7522359738638631)	(3.9325559584570282, 1.489677775340418)	1.0	slash	0.900917
30	M	A	B	A					M	4	1	shapes	A	0	False	79	(4.8257974091715123, -1.6576477579486273)	(-8.0695369694518622, 5.6190005108796068)	(6.0151440073989306, 4.6312224367328945)	(-5.3410310665483189, -0.89517291277282762)	1.0	slash	0.650445
31	M	B	A	A					N	4	0	shapes	M	0	False	79	(0.43269699840504217, 1.4291454600393241)	(-3.8111267483856484, 6.7418166600496914)	(7.9579150019199467, -6.3008618255673632)	(-8.6671348141599704, -4.5785987521574132)	1.0	slash	0.890275
32	M	A	M	N	A	N	B	B	A	8	1	shapes	A	0	True	79	(-7.81450023795243, -4.9119437595182323)	(3.3327074016217892, -1.3074655462474478)	(7.8708865553665852, -3.4415463131294821)	(-5.2687920888339708, 2.7231030572380899)	1.0	z	1.20433
1	N	B	A	B					A	4	2	shapes	A	1	True	79	(-1.4310132400920246, 0.98051761373517543)	(-4.1441842447496517, -8.6315621803462435)	(8.3095100730823113, 6.1615255716193822)	(6.2961737408984728, -5.7637027141843316)	1.0	z	1.35729
2	N	A	N	A	B	M	B	M	B	8	0	shapes	N	1	False	79	(6.3895421184792021, -5.4160492607805608)	(4.2098434887215586, -2.009251718247997)	(-3.9449188602002501, -7.6511704495298272)	(-5.6494986257153688, -0.43024762973741204)	1.0	slash	1.52318
3	M	A	A	M	N	B	B	N	M	8	0	shapes	M	1	True	79	(2.4040954865539774, -3.9270212742074193)	(6.2008379376186156, -0.16267192761601379)	(-5.2107756861022914, 3.4351193828190816)	(4.2539681768665982, 4.8264596200986354)	1.0	z	0.638635
4	M	B	B	M	A	A	N	N	A	8	3	shapes	M	1	False	79	(-2.989941772508212, 5.1940297230317203)	(-7.9394562922078649, 4.8643213610494538)	(-0.67126278719537069, -0.95043513115545242)	(3.463338215214641, 7.9112784268279484)	1.0	slash	0.964499
5	N	A	M	A					N	4	2	shapes	M	1	False	79	(-3.9456429839013696, 1.3362983542196414)	(-6.0772542892306767, -8.3796487893070193)	(5.3769942738429073, 3.5440426371278697)	(6.5521792413915456, -0.59574377552709912)	1.0	slash	1.47603
6	N	A	N	B	B	A	M	M	N	8	1	shapes	A	1	False	79	(-0.31867038300670636, -1.8859830639601309)	(-8.3943819640247881, -5.6896759519620863)	(0.50497141229472753, -7.9560258050313024)	(-0.040169567144276996, 6.9880313906819254)	1.0	slash	1.43358
7	N	A	N	B					A	4	1	shapes	A	1	True	79	(-0.65894701494713281, -8.2318007278440977)	(6.3397653475283242, 3.2471589452038092)	(-8.7260400698739797, 6.4964135950045385)	(7.7901876310499922, -6.9192485198941336)	1.0	z	1.06911
8	N	A	M	M					N	4	3	shapes	M	1	False	79	(-8.2363112779033543, 8.4003053186722312)	(-4.2708117334850053, -2.7828990641188946)	(7.8800901743070249, 3.0849434117354413)	(0.09303744332898134, -0.38876842687028024)	1.0	slash	0.688879
9	M	B	A	N	A	N	M	B	N	8	3	shapes	N	1	True	79	(-8.5198536620087584, -0.61038985900237108)	(5.5232486396912766, 3.1414437405632007)	(2.5843681051951606, -3.2794831285107762)	(-1.4193608943175464, -2.1322307769460567)	1.0	slash	0.700578
10	N	B	M	N					N	4	2	shapes	M	1	False	79	(6.0705502730161349, -4.9651824255656143)	(-5.4941082120506763, 5.1939203706479713)	(-0.60506967751077489, -5.0988333220928421)	(2.0269626716037994, 3.2569950649861514)	1.0	slash	0.850204
11	M	A	A	N					N	4	3	shapes	N	1	True	79	(4.3577286379561713, -7.8219738048180965)	(6.8268031264895015, 2.7982436362444005)	(-8.4799332242371328, -5.6520424794575845)	(-2.4237099989069888, 3.7296721652201636)	1.0	z	1.04167
12	M	A	B	B	A	N	N	M	A	8	1	shapes	A	1	True	79	(-3.8298719055123911, 2.5538418095903008)	(7.6112889076877082, -4.730636508008101)	(-5.3488541296121221, -3.16366471908312)	(1.3574027237172182, 3.3440411169052062)	1.0	z	1.40544
13	M	B	N	M					M	4	1	shapes	B	1	False	79	(-0.23677921826827841, 5.8747661700196705)	(-0.19225876972585532, -7.2488502216374524)	(4.473089348981615, 1.9498629429046943)	(8.6392814482470754, -8.5422157057139749)	1.0	slash	0.975067
14	N	A	M	N	A	B	B	M	N	8	3	shapes	N	1	True	79	(7.2202401255203643, 5.3317677252965332)	(3.4953050680990856, 3.8515910330568168)	(-7.2924198511514318, -0.87198431795462117)	(8.7040467358800591, -6.8740174865286239)	1.0	z	1.17702
15	N	B	B	M					B	4	1	shapes	B	1	True	79	(-0.19909609127309658, 2.0873744428769907)	(8.4029816148963405, 2.0090001536792386)	(-8.4539869448380784, -6.4198377743485207)	(3.1734046164779866, -4.1540773656310011)	1.0	z	0.57446
16	M	B	A	B					A	4	2	shapes	A	1	True	79	(4.2047653582348605, 1.6734388883514004)	(-6.4312521045024633, -4.8787124357377731)	(1.5634007249680764, -6.6076014042507962)	(-2.2013705759253881, 7.1650347641559673)	1.0	z	0.829986
17	M	A	A	N	B	B	N	M	B	8	6	shapes	N	1	False	79	(-0.38467872234628508, -4.6958044072311802)	(5.6872385329879567, -1.134738977446653)	(2.133944697207971, 5.9923775347957644)	(7.6797776754943641, -8.5749056989306602)	1.0	slash	0.719729
18	N	A	A	B					A	4	2	shapes	A	1	True	79	(5.1241138756022657, -5.0363265471457881)	(-2.1015133282961802, 3.6681639913573285)	(-1.3166189982333467, -3.5429681875119323)	(8.5644329657025331, 6.6120390992598583)	1.0	z	0.641503
19	N	A	B	N	M	B	M	A	A	8	1	shapes	A	1	True	79	(-5.0080904683405834, 3.1891016405822104)	(-8.5823591552659906, -1.0302929489133614)	(3.2751424475452762, -2.7482258577401497)	(-2.0086049568333531, -1.7311632151293335)	1.0	z	1.74882
20	N	A	B	M	N	A	M	B	N	8	0	shapes	N	1	True	79	(-7.3641306142423071, -2.5897576437888068)	(-8.4075507584600011, 8.6533070627328499)	(1.7991848186974906, -5.3889947904494697)	(-4.1569373433579617, 1.9085058960940611)	1.0	slash	1.41242
21	N	B	M	N	B	A	A	M	N	8	0	shapes	N	1	True	79	(-6.2782646703765055, 2.4213072925343315)	(5.4250147107748958, -3.7851294714636827)	(0.98162938001652122, -8.5463652395500471)	(1.2783309106994363, 5.8498401440343368)	1.0	slash	0.95798
22	M	A	M	B	A	B	N	N	A	8	5	shapes	B	1	False	79	(-5.6166988488345, 0.74678634998880256)	(1.0079026492257857, 5.1798076776536774)	(-7.530592066365994, 6.7752181871035901)	(1.6140597986168128, -5.1918388175455936)	1.0	slash	3.72783
23	N	B	M	M					M	4	1	shapes	B	1	False	79	(-1.0337599491983092, -2.8017460796675193)	(-5.8915189732453204, 4.3811463394191801)	(1.4909037502475186, 1.0128725941437278)	(8.0966832056817672, -6.5962575369244973)	1.0	slash	0.703312
24	M	B	M	N					B	4	3	shapes	N	1	False	79	(-6.2868789620147494, 3.2740000309460484)	(-2.0681574294852831, -2.4059645355602486)	(6.750027584375216, 3.535975020896803)	(8.2085247873735625, -2.3053382797925073)	1.0	slash	1.10089
25	N	B	N	M	B	M	A	A	N	8	1	shapes	B	1	False	79	(-5.0966041877147266, -2.9187914419202228)	(6.692777949385512, 6.9747403170346729)	(1.9060492411127274, -0.14512676572647187)	(-6.7472879094270697, -7.130684383934347)	1.0	slash	0.804584
26	N	A	B	M					B	4	1	shapes	A	1	False	79	(1.6840882182137822, -5.4758599482157289)	(-2.8656916405809678, -4.3799054290841664)	(-8.4389431046567633, 1.1290462006140025)	(1.2026705327116467, 6.1372705811473054)	1.0	slash	0.982048
27	N	B	N	M					N	4	1	shapes	B	1	False	79	(7.7848246330276787, -2.8061051636484242)	(6.5684282978554087, 3.4761756218739297)	(-6.8771714249461855, 8.1045369656039732)	(-1.9840420485192425, -1.8630638571967442)	1.0	slash	0.739984
28	N	A	A	N	M	B	M	B	M	8	7	shapes	B	1	False	79	(0.92055616024143561, -1.9825518567574605)	(3.7342335574282863, 5.4124017920985708)	(-4.439665818800318, -8.5600228798324718)	(0.73137909371455123, 8.3179300623026542)	1.0	slash	0.648987
29	N	B	N	M					N	4	2	shapes	N	1	True	79	(-0.2233271067196192, -4.1956226859951355)	(-0.91637382641694032, 0.69765852457888933)	(5.3564815102015153, -5.2486911347276966)	(5.2028260878851924, 0.92940755125758301)	1.0	z	1.48715
30	M	B	N	A					B	4	1	shapes	B	1	True	79	(2.3684948547734592, -1.6953853950558955)	(5.6167753281474848, 6.8863136403861116)	(-0.53407330685467791, -8.6516382560012524)	(-6.2114433541049525, 3.5276461065949167)	1.0	z	1.57475
31	M	B	N	N	M	A	B	A	M	8	1	shapes	B	1	False	79	(-3.8570020024125133, 3.5753212327704347)	(-8.2246479358820821, 3.342017687133028)	(4.2200045236192931, 5.6982780114809426)	(-3.3193176634678219, -3.8886737429716653)	1.0	z	1.23227
32	N	A	A	M	B	B	M	N	B	8	4	shapes	B	1	True	79	(6.1765830472686627, -5.4174291058051391)	(4.9675330001025078, 5.1040038656052165)	(-3.0665160688218434, 4.5742075896701184)	(-8.3979887702694889, -3.6101168899480962)	1.0	slash	0.862008
1	N	B	B	M					B	4	0	shapes	N	2	False	79	(-4.778049177853319, -4.1820162870784019)	(2.4588918837139797, -0.73691793965990904)	(4.9233697165799875, 6.3391302205713806)	(-2.248431081763604, 8.1029078088693751)	1.0	slash	0.649554
2	M	B	N	M					A	4	1	shapes	B	2	False	79	(-3.4111034307743449, -0.82514128177387391)	(3.743949618130916, 8.6147253199423943)	(2.7365372649110729, -1.8371508261085978)	(-1.1876329976891391, 3.1477669928701832)	1.0	z	0.977346
3	N	A	A	B	B	N	M	M	A	8	1	shapes	A	2	True	79	(5.7045815181864281, -1.3028054354865555)	(8.4423082490837515, 3.2480286982691595)	(-4.3566631380637189, 4.3181822349923635)	(-6.1463213260937364, 0.36952079008874428)	1.0	z	0.947027
4	N	B	A	N	B	A	M	M	A	8	3	shapes	N	2	False	79	(0.59579768373935238, -7.5061040866193736)	(0.31075871923957443, 6.8217431185123196)	(-7.6619447187467333, 8.203551867897712)	(6.0445877057936066, -5.7854214798859624)	1.0	slash	0.858675
5	M	B	M	B	N	A	A	N	B	8	3	shapes	B	2	True	79	(-3.4375200598931359, 7.0832014836960902)	(8.2248950594697909, 0.42137834193535895)	(2.4357329239070182, 4.2767509260967724)	(2.3852729943344517, -3.9540498822076326)	1.0	slash	1.91599
6	M	A	A	M	B	N	B	N	M	8	7	shapes	N	2	False	79	(-6.8088038037471552, -7.3697488681719427)	(5.0544572270499302, -1.1071408275445522)	(1.9021052470017263, -7.936446752478683)	(-2.5497437921043833, 7.1233150000512691)	1.0	slash	1.32965
7	N	B	N	A					B	4	3	shapes	A	2	False	79	(2.6932664744082082, -2.9099737708081683)	(-7.0055834590922572, 1.7121852828835298)	(5.9961580745303902, 6.6942562454363124)	(-5.9792084200119291, -5.6499823586803064)	1.0	slash	1.09706
8	M	A	A	M					N	4	1	shapes	A	2	False	79	(6.0436099154058684, -0.15420249103403805)	(-2.384629543748976, 5.4454319288167472)	(-1.5571631133028569, -4.4709642340332865)	(2.6334902378050167, 6.5915926541218361)	1.0	slash	0.631244
9	N	A	A	N					A	4	2	shapes	A	2	True	79	(6.0691669979552962, 8.6986966621748181)	(8.0505781711824618, -5.9240871310311167)	(-0.0067159855351182074, -1.9963345962137948)	(-1.4232799278201407, 3.8200629682407214)	1.0	z	0.658715
10	N	B	N	B	A	A	M	M	M	8	0	shapes	N	2	False	79	(4.2951491033688391, 0.97197475640343889)	(-5.7187003385058315, -3.2207834782401754)	(-4.6786717381744642, 6.618716182624043)	(2.3958447142676853, -6.9553374778967623)	1.0	slash	1.2363
11	M	A	B	B					A	4	2	shapes	B	2	False	79	(0.03371696234589372, 5.5694387905412501)	(-5.659876311672722, -7.9834657286625852)	(-4.5890208624901163, 3.9999813381520202)	(1.5424268748203094, -3.6092912530409071)	1.0	slash	1.54587
12	M	A	N	B					M	4	0	shapes	M	2	True	79	(1.6355756940146886, -3.3798101130410174)	(-6.0628373191962952, -2.0773902669774307)	(1.0119520987495072, 2.8003149660366837)	(-3.107566156135773, 7.6008832751587398)	1.0	z	0.663139
13	M	B	M	N					M	4	2	shapes	M	2	True	79	(-6.2617425229132344, -7.9570176245904163)	(-0.040281098209936417, 5.4643534066812638)	(2.7797303288260871, -8.4680960974346107)	(6.0395735030057267, 3.4517889735262397)	1.0	z	0.87728
14	M	B	M	N					N	4	3	shapes	N	2	True	79	(8.4450052192292731, -1.6601329419235862)	(-1.2504118067369436, 5.4351869996230633)	(8.1639995125271092, 7.5971767137183548)	(-3.0626744169704843, -7.9129749761879147)	1.0	z	0.87287
15	M	B	B	M					M	4	3	shapes	M	2	True	79	(-0.0082573064207771552, 5.7878256216528552)	(-8.042119038876006, -5.2152548066346096)	(6.4886227113247852, -5.6315696115229228)	(8.5182365429948774, 2.5017362320450811)	1.0	z	0.612525
16	N	A	A	B	B	N	M	M	B	8	4	shapes	B	2	True	79	(-1.0987707950943477, -0.9348548851036691)	(5.4916249281884841, -1.4687043096203221)	(6.5870785784281107, -6.689567853281063)	(7.1314840045289216, 3.3662224569881971)	1.0	z	0.974102
17	N	B	M	B	A	N	A	M	M	8	5	shapes	N	2	False	79	(-5.9493789402808002, 7.6690858607730412)	(-7.3319510375312333, 1.0925724320238803)	(-1.6819291806755219, -6.582967421146579)	(0.98055085531255237, -1.7705109232381107)	1.0	slash	1.13584
18	M	A	M	N	A	B	B	N	B	8	6	shapes	B	2	True	79	(-5.1789280066501613, 8.3730227235579271)	(-0.73278532048966483, -1.374630290275241)	(8.4644181193034704, -3.2309079534963656)	(-7.7644409540758588, -1.72512833484266)	1.0	slash	1.08139
19	N	B	A	A	N	M	B	M	M	8	1	shapes	B	2	False	79	(4.3153891480440816, 0.16997871673445353)	(2.1695295073081589, 6.4214908267323683)	(4.8131128448211431, -5.4394187062483805)	(-6.6100174602332746, 1.3969700167311139)	1.0	slash	1.12501
20	M	A	N	B					A	4	3	shapes	B	2	False	79	(-1.5037217215086658, -8.3300517162502636)	(-2.1219065383685978, 5.5139129355556999)	(0.095579825653031136, -0.68495146147586716)	(4.0388537953301924, 0.75448734949009655)	1.0	z	0.630761
21	M	A	N	A					N	4	2	shapes	N	2	True	79	(-6.8408029360169467, -1.1639513607965508)	(7.0535761587511381, -0.49828738258756644)	(-7.1322199515652862, 5.55637677929451)	(0.62652916295762928, 5.9086490035804218)	1.0	z	0.61051
22	M	B	M	A	B	A	N	N	M	8	0	shapes	M	2	True	79	(1.4234026780929288, 4.8468415585416267)	(-3.5298128182961124, 0.49302316060714624)	(2.5585792132483114, -6.314430454308428)	(6.8842996331344786, -0.76193177971105985)	1.0	slash	0.918325
23	M	A	N	B	A	M	B	N	N	8	0	shapes	M	2	False	79	(1.5714444127876384, 4.0760916933170712)	(8.1736537012133859, 7.9793397624302287)	(-0.66610682732478921, -7.0493724331672816)	(-3.4245405565552058, 2.4354049015861055)	1.0	slash	0.835645
24	N	B	N	B	A	M	A	M	M	8	3	shapes	B	2	False	79	(-0.022631258271083254, 3.0568904507242767)	(-6.1532579527794038, 5.3321644420534984)	(6.1865799595708992, -4.0003730191082614)	(-7.1704973241597809, -7.1678332821858097)	1.0	z	1.03345
25	M	B	N	M	B	N	A	A	N	8	5	shapes	N	2	True	79	(3.3096479734019368, -7.6316656715494515)	(-0.086644709299273259, 7.963499886809597)	(-5.1518017304881258, 3.4757128272211251)	(3.1300052204784272, -3.5330744115762363)	1.0	slash	0.646873
26	M	A	N	A					M	4	0	shapes	M	2	True	79	(1.5360704252381794, -6.9397354119849108)	(-6.505056891249442, -4.8576441523273015)	(-4.4226295710374579, 3.7225430739846832)	(0.78117545381820008, 2.1506555000254579)	1.0	z	0.678381
27	N	B	N	A					B	4	2	shapes	N	2	False	79	(-4.1016906469369756, -2.5037053464646037)	(-6.6974416585875094, 3.860298315423492)	(7.7507803168906086, -5.9848481974371195)	(1.2513988548765802, 0.65037146563824955)	1.0	slash	0.954239
28	N	B	M	A	N	A	B	M	A	8	3	shapes	A	2	True	79	(-7.2877776314160991, 5.2884105629937288)	(6.8253763857133531, -7.748696914268046)	(-5.6458382224617552, -6.7870920406431958)	(-2.639313992623503, 2.0789028383117287)	1.0	z	1.32797
29	N	A	A	M	B	N	M	B	M	8	3	shapes	M	2	True	79	(6.2411517853379959, 2.695090420343865)	(-4.6247293080932508, 3.1575185955569314)	(-0.47934401866820409, 6.7007372367753639)	(5.2691473634450272, -8.0300822694863179)	1.0	z	1.47752
30	N	B	B	A					B	4	2	shapes	B	2	True	79	(7.3371551822090808, -4.7739472426486653)	(-0.71889736620329003, -0.31291742485061036)	(-3.0157925266843106, 3.1073903487272556)	(2.3501017506585189, 5.707576953159391)	1.0	z	1.08725
31	N	B	N	A					B	4	2	shapes	N	2	False	79	(-6.862124533918438, -4.9161091388913611)	(3.3756009346526614, 1.8901436532305418)	(7.7110164171814688, -1.195000425295567)	(-4.6130832940430047, 7.6680783624514781)	1.0	slash	0.888803
32	N	B	B	M	A	A	N	M	M	8	5	shapes	A	2	False	79	(4.5987643987488642, -3.5329959496562804)	(-8.5928610883101584, -1.7471746077180912)	(2.9057902512806368, -8.3334929252809431)	(-3.7706438446508512, -8.4542172270387059)	1.0	slash	0.884393
1	N	B	A	N					N	4	0	shapes	N	3	True	79	(-8.6498810962632007, -3.396700770959626)	(5.4666779317348109, -3.596191921426132)	(1.8469043415841764, 2.1141062831254906)	(-5.4643164862530664, 1.7786815395451612)	1.0	z	1.19605
2	N	A	B	B	M	M	N	A	B	8	3	shapes	B	3	True	79	(5.9092242601157938, 4.0358586605766753)	(-5.8605496675044995, 2.7929596254501945)	(2.3865849848111704, 0.13781656482997384)	(-6.6461239632977884, -6.8294761015344339)	1.0	z	0.849599
3	M	A	N	M	B	A	N	B	A	8	1	shapes	A	3	True	79	(-1.8576837970542286, 7.2464998824744082)	(5.4700177216929795, -4.5082062727443262)	(3.5592542073715894, 0.26318110761622471)	(0.76726645461904219, -7.4918448280365979)	1.0	z	2.56523
4	M	A	B	A	M	N	N	B	B	8	0	shapes	M	3	False	79	(-4.6944406807390235, 5.5076930654452774)	(-5.8808374501331713, -0.014436976375097998)	(-0.18507422853656053, -4.7380789842802766)	(4.2663031422994706, 1.3300022886170542)	1.0	slash	1.00089
5	M	A	B	N					M	4	1	shapes	A	3	False	79	(-3.8783402322831408, 3.1033336870986332)	(2.3710863682262744, 6.6917835784466924)	(-0.16354205188483562, -5.6410697565707117)	(5.8796535022349765, -4.3693845001921892)	1.0	slash	0.758511
6	N	B	M	N					N	4	0	shapes	N	3	True	79	(-4.1470696165956724, 3.1261489085241987)	(-3.6446892022391095, -7.7721642841933312)	(3.0769235892782003, 6.2624582095157546)	(2.1078023184220847, -0.33376449505722405)	1.0	z	0.92019
7	M	A	A	M					N	4	2	shapes	A	3	False	79	(3.0743818931719051, 3.9098534376921261)	(-2.6786175763274249, -0.42895573348833516)	(0.14851836771956251, -5.7513841223594842)	(-4.4488359895826743, 5.8774113823512355)	1.0	slash	0.737718
8	N	B	B	A					B	4	1	shapes	B	3	True	79	(1.7130592937325666, -4.2457889830977695)	(5.6809906119781886, 2.8200833675156556)	(-0.17465039761537682, 6.3999801833353374)	(-3.2376852850861475, -8.074389359590235)	1.0	z	0.967473
9	M	A	N	A	M	B	B	N	N	8	2	shapes	N	3	True	79	(-3.0640739343898495, -1.8157367301785223)	(-0.52498404118228947, 2.2355591419167631)	(3.7218453887116052, -5.9089887282384321)	(-1.2498457086408248, 6.7298441218530378)	1.0	slash	1.44308
10	N	A	B	B	A	N	M	M	A	8	5	shapes	N	3	False	79	(1.4377278884780349, 8.1870294755692221)	(-3.613025793189597, -2.3231653148396223)	(-6.0501423150222102, 8.3685720813139532)	(6.6472438051058962, -7.5004301713590591)	1.0	slash	0.822635
11	M	B	N	N					N	4	2	shapes	N	3	True	79	(5.0900597831572707, 0.91920409180649898)	(-1.9141236879316832, 7.142458763987662)	(1.9363648290332396, -8.6519460045578427)	(-0.18474140348232382, -5.2584159058674986)	1.0	slash	1.70783
12	N	B	M	B					A	4	3	shapes	B	3	False	79	(-0.76773173382101767, -5.2042283794321857)	(4.2843132398287231, 7.5587619004657007)	(6.7542562185490631, -7.8225979418426252)	(-2.4745584239459131, 7.9191916912342499)	1.0	slash	0.951762
13	M	B	B	A					M	4	0	shapes	M	3	True	79	(8.7404300415260749, 0.24399507168351953)	(-8.1886121642203982, 3.1338855820278599)	(-8.6051220371438752, -2.9203036070042758)	(6.4384079547089659, -7.3220210177702096)	1.0	z	0.599397
14	M	B	M	A	B	A	N	N	N	8	4	shapes	B	3	False	79	(-1.0969599160879211, -3.2513201487846359)	(8.1002663212570667, 5.1058175606097276)	(5.8942447683253452, 0.34066570785512873)	(-1.1385628801036249, -7.6113818125185251)	1.0	slash	1.68527
15	N	B	B	A	A	N	M	M	M	8	7	shapes	M	3	True	79	(0.38779275462838925, 1.1240904344284921)	(5.2280458062028821, -5.9494720520937161)	(-8.1443770936175426, -1.0549675634548272)	(7.8796241276991346, 4.6311449421374355)	1.0	slash	0.942782
16	M	B	A	B					M	4	2	shapes	A	3	False	79	(1.5799792454268076, -3.8040407612243605)	(3.3488032777646186, 8.2711677549678839)	(-4.4420495861621392, 0.14287785258102303)	(-4.5995617484983153, -4.1613048103242019)	1.0	slash	0.628034
17	N	B	A	M					N	4	1	shapes	B	3	False	79	(6.3790378890051471, -7.7657031544233153)	(-3.7938058173889724, 2.5932412980201232)	(5.4372669128647075, 5.0786340881868171)	(-0.73289268241914485, -1.9828524183560639)	1.0	slash	0.79996
18	N	A	A	B	M	N	M	B	B	8	7	shapes	B	3	True	79	(7.5485558078298887, -1.927060176754873)	(2.5339419120924127, -1.0091689600752467)	(-7.7886676141894489, -5.1565508439043333)	(-6.5975802192372992, 4.4614651422789553)	1.0	z	1.11005
19	M	B	B	A					N	4	2	shapes	B	3	False	79	(1.006899014165489, 2.944874870083682)	(0.13545296689668085, -4.7501911800268282)	(-3.0785677035582895, 0.26401301419372381)	(-8.5313757087558919, -2.4147010593804392)	1.0	slash	0.601323
20	N	B	B	M	A	A	N	M	A	8	0	shapes	N	3	False	79	(7.3436374583909725, 0.21112746838293717)	(-4.4925708085548735, 7.5011214881983364)	(4.616366704538752, -7.4964543891164688)	(1.4921516185923451, -1.8929814743338875)	1.0	slash	0.796889
21	N	A	M	N	A	B	M	B	N	8	3	shapes	N	3	True	79	(7.7613959470315983, -7.8740733613994687)	(-2.401673574773902, -1.3457343698150384)	(4.9510019300385437, -2.7340765978364923)	(-8.2671159422959075, -7.8401086865860723)	1.0	z	1.10658
22	N	A	N	B					B	4	1	shapes	A	3	False	79	(-7.9669651877059708, -7.7412230532347346)	(-6.4643962692350074, 0.25946511434006325)	(6.9798603967874477, -4.4777105049388686)	(7.3051662422007553, 1.7462180830010752)	1.0	slash	1.1041
23	M	B	B	N	N	A	M	A	A	8	7	shapes	A	3	True	79	(-2.4788443560151805, -0.15313811033316682)	(6.9615602749423626, -8.3323799128666831)	(1.938283931715965, -4.8919493494858326)	(7.5099171998851233, 4.0275712552914342)	1.0	z	0.760057
24	N	B	A	B	N	A	M	M	A	8	4	shapes	N	3	False	79	(2.2039248358347869, 4.5037047448987675)	(-3.8433724876443991, -2.9715474939513955)	(7.0925454651347817, 8.3135968481453446)	(3.7080281439471605, -5.0083131742966511)	1.0	slash	0.727697
25	M	B	N	N	A	B	M	A	N	8	7	shapes	A	3	False	79	(-5.5210918532388789, -0.70647324173202364)	(2.9059624395627175, 1.7214444297764491)	(-3.6247613022915868, 8.5091327191736212)	(-8.1635061943438494, 4.2658093938235755)	1.0	slash	0.699233
26	N	B	M	M					B	4	0	shapes	N	3	False	79	(-8.0901345370187769, -3.5991532377752211)	(8.5428145616153586, 5.2753690027625506)	(-5.5305539152164354, 6.2772638056647594)	(7.1770317438479125, -2.4879696498417214)	1.0	slash	0.874972
27	M	B	B	N	A	N	A	M	B	8	1	shapes	B	3	True	79	(3.8739314873152715, 1.5748828417089022)	(-1.9154979918405619, -8.7151335781896062)	(6.4603240180719474, 8.5056999678703917)	(8.1051448349994537, -1.2765063580475502)	1.0	slash	0.896658
28	M	A	N	A					N	4	2	shapes	N	3	True	79	(6.2129394034139835, 2.3929955008273716)	(0.77661167495080541, -6.2204969864932078)	(-4.1812745370534126, 2.0773407353323954)	(-5.0005855435049273, -6.4071171392563224)	1.0	z	0.991787
29	N	B	B	A	M	M	A	N	N	8	6	shapes	A	3	False	79	(-6.4251157151343525, 5.4560792182697728)	(-5.7966029014909282, -1.6535499731286256)	(2.2063522881861015, 5.9197339455450901)	(4.9234872281159028, -2.6483736531119995)	1.0	slash	0.925336
30	M	B	M	A	B	A	N	N	B	8	7	shapes	N	3	False	79	(-1.4561565967155907, -0.76600668162683139)	(3.2778209719356397, -4.8015411598148603)	(4.4813817071419724, 2.8735574462603086)	(-3.7071560158248555, -5.7615637720247026)	1.0	slash	1.03342
31	M	B	A	M					B	4	1	shapes	B	3	True	79	(-5.6892807017011817, -7.2456889730258762)	(-3.2029536207021483, 7.6835851717482733)	(7.776141134531521, -0.75022066119292496)	(3.3935011509612991, 4.7663467798204486)	1.0	z	0.74112
32	M	B	M	A					B	4	1	shapes	B	3	True	79	(-1.844323606312523, -8.6399160507123263)	(-6.6817683650301554, 6.1591868076648435)	(3.4866337263620739, -1.1853771741390284)	(1.0860082747183295, 5.4732378211412041)	1.0	z	1.0507
1	N	B	A	N					N	4	0	shapes	N	4	True	79	(-3.3169049547435812, -7.9088526877610281)	(-0.15313670055562056, 4.2031258345564826)	(5.6963637635786242, -7.1709903457631281)	(0.46625684213167418, 8.1760637360496098)	1.0	z	0.868467
2	M	B	A	A	B	N	N	M	N	8	2	shapes	A	4	False	79	(-5.6573668177425658, 4.6553081327072849)	(7.6226977875029469, 2.8910071272983888)	(-8.6552962902306554, 1.7200192606830562)	(-8.0789805140679913, -5.8940252528850099)	1.0	slash	0.691962
3	N	B	A	A	B	M	M	N	B	8	7	shapes	N	4	False	79	(-6.5699414652101922, -7.8544224777792868)	(7.6116301239702793, -5.6471168252811914)	(3.5871195747349933, 0.095602665559169964)	(-4.3528422900170094, 2.3738334719846179)	1.0	slash	0.749742
4	M	A	A	M	N	N	B	B	N	8	7	shapes	B	4	False	79	(-7.847918494011644, 0.35859766318895936)	(1.9535412011971669, -5.4375472355944154)	(5.9183399209885774, -3.0839043410211087)	(2.9218793344014209, 2.6574878223752432)	1.0	slash	0.773291
5	N	A	N	A					B	4	0	shapes	N	4	False	79	(-0.38255223198630439, 7.3450173566680412)	(-2.8523677575158111, -0.68730664040277567)	(2.4769367265350954, 2.1594297945283216)	(1.8625083944009262, -3.6072784959905508)	1.0	slash	1.03258
6	N	B	A	N					N	4	0	shapes	N	4	True	79	(-6.6222852843262032, 0.62903174730812239)	(2.5802673028163277, -0.2451483284482272)	(-5.2996281496863871, -4.7619285452583737)	(6.2031133435389698, 6.5347033867989044)	1.0	z	0.796477
7	N	B	A	B	A	M	M	N	A	8	7	shapes	N	4	False	79	(2.2674952558825989, 4.0050661208693654)	(-0.79492896205565522, -3.8966377618081509)	(-7.4583743513717593, 2.0469622658144289)	(-1.6299026039561344, 1.3568687189192072)	1.0	slash	1.08236
8	M	A	A	B	M	N	B	N	N	8	5	shapes	N	4	True	79	(-5.2154725078026622, 2.8102456634597957)	(0.27201186401036459, -8.4186356764548727)	(-0.36104878483056879, -0.54882693168361385)	(3.7460794545424143, 0.13743237703357281)	1.0	z	1.37381
9	M	B	N	M	N	A	A	B	M	8	0	shapes	M	4	True	79	(0.1162706049283031, 4.8431292676530457)	(0.57174486412139558, -7.7893543763112731)	(3.7937377198942155, -2.8911483121846437)	(-6.5544225426370986, -0.42275047432361568)	1.0	slash	0.991627
10	M	A	M	B					B	4	2	shapes	M	4	False	79	(-0.58145464854648665, 5.4266822249340336)	(6.2749377084317945, -2.2521172698608938)	(-3.3377394415777903, -8.5512263716781121)	(8.4836928814314838, 3.4332676962773743)	1.0	slash	1.48335
11	N	B	A	N	A	M	M	B	M	8	6	shapes	M	4	True	79	(7.4053341997372293, 7.2853468053417281)	(-8.6201037890269685, -8.6947789977216363)	(-1.6911412047033361, 2.9265403438091138)	(4.2704051278193855, -4.8154858581025488)	1.0	slash	0.630791
12	M	B	N	N					N	4	1	shapes	B	4	False	79	(2.1912143087538531, -6.6036163205514855)	(-2.4858650384397736, -5.9396658391823935)	(3.1912426298083272, 4.7632973179511282)	(-4.2921763665245249, 6.1795764559074389)	1.0	slash	0.626328
13	M	B	B	M	A	N	N	A	B	8	4	shapes	A	4	False	79	(-2.1644950645369718, 7.8063605352577241)	(-7.8363911806521527, 1.8249464597162568)	(7.0919951012948967, -8.3019880805744428)	(-8.64176590605339, -5.6068787334166386)	1.0	z	1.02613
14	N	B	N	B					B	4	1	shapes	B	4	True	79	(-6.2718378757622677, 7.7328246563111129)	(5.712632074062661, 1.8474901237830768)	(1.2504725529125018, -6.0839179387896518)	(-5.8203194382706602, -2.9364895224004588)	1.0	z	0.70384
15	M	A	B	A					A	4	3	shapes	A	4	True	79	(-8.6540594694766781, -7.5021901262678377)	(2.9244794771244553, 7.153531761087601)	(2.7380634043604193, -3.9514883340198228)	(-4.3317752333160824, 0.49014530605575324)	1.0	z	0.909392
16	N	B	B	A	M	M	A	N	N	8	4	shapes	M	4	False	79	(-6.1598167624625226, -7.6779009394576452)	(1.4490556167916928, -0.7905764737135339)	(-2.4768568803102902, -4.3482200156181099)	(3.4358932908115687, 3.3123999568555504)	1.0	slash	1.53466
17	M	A	A	N	M	B	N	B	M	8	4	shapes	M	4	True	79	(-3.9555600714944132, 7.4658640983394449)	(1.0544307521316032, -2.3999558699917012)	(7.3043612134752252, 6.6094967918132781)	(5.4896656489642623, -0.8537223006854493)	1.0	slash	2.00884
18	M	B	A	M					B	4	1	shapes	B	4	True	79	(5.5085783755042321, 3.8177592261907467)	(-6.7592224449416953, -0.53497419047937456)	(-2.5027097744189941, 3.9256022514982476)	(7.6920165177497459, -7.8802631101804046)	1.0	z	0.61632
19	N	B	N	A	M	M	A	B	A	8	7	shapes	B	4	False	79	(-2.5009895116417429, 7.5664017427394619)	(8.5967752032278675, 3.8594013117957129)	(-6.822389285366536, -2.6398758590583666)	(-4.5489923665531729, -8.6637110944186677)	1.0	slash	0.841991
20	M	B	B	A					B	4	1	shapes	B	4	True	79	(-3.8440007981535471, 7.9317875048962563)	(-5.3318766759747174, -6.7876093555119423)	(7.4711876331571041, 3.442108200232834)	(2.5730223081154264, -3.413731354971528)	1.0	z	0.580487
21	M	B	A	A	B	N	N	M	A	8	3	shapes	A	4	True	79	(4.9383797059764944, 1.4335084992774387)	(-4.2567705729308924, -7.2774407073528682)	(-7.5097169577223646, -0.53092291318549734)	(0.12276139520784923, -7.650249073238145)	1.0	z	1.13728
22	N	B	A	A	N	M	B	M	M	8	5	shapes	M	4	True	79	(-0.384568021668942, -2.9044494679970541)	(-7.4440572558663085, 1.7465087322740374)	(8.6005116479379815, -7.7840773990268879)	(0.52068030187999881, 2.7746515899727164)	1.0	z	1.45832
23	N	B	M	N					M	4	3	shapes	N	4	False	79	(-2.8493040851550946, -6.5276670721591472)	(-7.8840118425695582, 3.0196034415366846)	(3.8021957061536256, 4.653802918264164)	(0.48608620584197482, -0.68097450348061983)	1.0	slash	0.776381
24	N	B	B	M	M	N	A	A	B	8	1	shapes	B	4	True	79	(-1.6210457606796664, -7.5131424114807679)	(2.8181479739952788, -1.551689120567409)	(1.2500114352692986, 6.7628769224476404)	(-3.4629090323964151, -3.7749901176914404)	1.0	z	0.704095
25	N	A	A	B	N	M	B	M	A	8	5	shapes	M	4	False	79	(-5.5697581880981932, 3.8330812879055305)	(-2.0535876349523488, -4.7537667887943451)	(0.28591025960225736, 2.1066525477813567)	(5.7266912295455192, 1.43955078285925)	1.0	z	1.06365
26	N	A	N	A					A	4	2	shapes	N	4	False	79	(-1.2623455748988484, 8.0793525586031549)	(-1.8549435700889365, -4.2239275859276697)	(2.8066845033916792, 5.7058667683291286)	(6.8703753156151421, -4.979958460195693)	1.0	slash	0.660943
27	N	A	B	B					N	4	1	shapes	A	4	False	79	(-5.4641838008326413, -0.25789531405237653)	(7.4302594243450528, 6.3293676116549182)	(2.8509324366415409, -6.2765904378942832)	(-2.700965623044385, 6.5307678016555855)	1.0	slash	0.939051
28	N	A	N	B					N	4	2	shapes	N	4	True	79	(-0.44827725122891238, 6.9947527639002143)	(4.0011440905184124, -8.183472984816639)	(-7.2608160317754411, -3.0271886415477738)	(8.2715995917681404, 2.5637412598138596)	1.0	z	0.638417
29	M	B	M	A					A	4	3	shapes	A	4	True	79	(-6.5820587602883975, 2.1351107785249379)	(4.8849818446917688, -5.3796940051246089)	(5.0361201257729391, 3.8859629071275279)	(-1.592048877407592, -2.4062928384194588)	1.0	z	1.14197
30	M	B	M	B	A	N	A	N	A	8	6	shapes	A	4	True	79	(-0.15874365646121369, 2.0798886932271614)	(-6.9214572678361943, -0.48970107850188782)	(-8.6121558597636554, 3.3416451103990017)	(2.4919007091711318, -1.9491779881812601)	1.0	slash	0.973948
31	M	B	A	N					M	4	1	shapes	B	4	False	79	(-1.2060825035950513, -8.1251916509399909)	(-1.8902915396349949, 0.19472514824532716)	(4.1189334269061799, 2.4643908300636461)	(8.0714010343984093, -4.9089970304336017)	1.0	slash	0.835572
32	M	B	A	B					N	4	0	shapes	M	4	False	79	(-1.5386563185687283, -0.59594850420173096)	(5.9379263996113547, 7.5182456375446591)	(-6.1690083517841003, 5.7238606674356394)	(3.0449212909221988, -7.9850194557472634)	1.0	slash	1.07135
1	N	A	M	B	B	N	M	A	N	8	3	shapes	B	5	False	79	(0.42059261984192275, -7.643233799315909)	(-6.8289321421799398, 5.8914784385825545)	(0.82553851844936688, -0.43266602774181884)	(1.5857561574181602, 7.806169084378844)	1.0	z	1.59297
2	N	A	N	M					B	4	3	shapes	M	5	False	79	(-0.64036000008354144, 0.7851037165735697)	(0.59227559460657453, 6.3453640917899659)	(-7.737950262442963, -8.0586204064359421)	(7.1918090800404588, -4.778416715644374)	1.0	slash	0.658376
3	M	B	N	B					M	4	0	shapes	M	5	True	79	(1.6419906379859555, 6.5856749339463345)	(-2.9195850511439447, -5.00623265633795)	(7.9493796037537656, -2.2510604636364082)	(-2.6597610092963651, 6.5747384534964208)	1.0	z	0.766297
4	M	B	B	A	N	A	N	M	B	8	3	shapes	A	5	False	79	(8.4578127237797922, 8.173917649058744)	(-2.821259482059201, -0.69279866739352336)	(3.7648263291140189, -2.9210605836580923)	(-7.791659602880169, -2.4268711811817765)	1.0	z	0.913757
5	M	B	N	A	M	A	N	B	A	8	5	shapes	A	5	True	79	(-4.8028608060788018, -1.6665763414052037)	(3.7459883600658177, -2.9257496238881391)	(0.56784467828911289, -7.9955841437299444)	(7.4767741351614916, 7.378791257619465)	1.0	z	0.807355
6	M	B	B	N	N	A	A	M	A	8	4	shapes	N	5	False	79	(-7.1081296371194469, -5.6324486992529001)	(-8.570536718405247, 4.1141917330127402)	(3.4853972298513742, -5.8314223399042158)	(3.180688006525056, 1.8951244127479328)	1.0	slash	1.16508
7	N	A	M	B					N	4	2	shapes	M	5	False	79	(-1.9566056174877602, -5.385858447679265)	(5.8207422724061981, 2.55229925720956)	(-0.80444641853798338, 1.4481246674152892)	(8.1150506218806591, -7.1860374323082628)	1.0	slash	0.93474
8	M	A	M	N					A	4	0	shapes	M	5	False	79	(6.6624580052240159, 3.0109754826691173)	(-0.34451469463561502, -7.5129044057468448)	(3.748266931639364, -4.9194074539443982)	(-7.2084430542287068, 1.7846481425945662)	1.0	slash	0.692009
9	N	A	A	B					N	4	0	shapes	N	5	True	79	(2.8224104968165591, 5.2778003147943657)	(-5.2519303411399063, -7.0080510276823089)	(-4.5115449337542586, 6.3204540233003552)	(3.194046297080698, -8.5057135614023824)	1.0	z	0.811999
10	M	B	N	M					M	4	3	shapes	M	5	True	79	(8.4628780332355262, -4.7891737934714156)	(5.4792298469663052, 2.1538510578017025)	(-5.102336752066341, 2.6644166566817802)	(-7.6114946358694109, -4.1906755681407919)	1.0	z	0.507623
11	N	B	M	N	A	A	B	M	N	8	4	shapes	A	5	False	79	(-6.835159287530475, 2.388356061529656)	(1.882596942210931, 1.5802130281649021)	(-1.4047878077902727, -8.7090887576690648)	(6.7286075358599895, 7.3989569537676303)	1.0	slash	1.05919
12	M	B	N	B					B	4	2	shapes	N	5	False	79	(6.1875004949712054, -2.1708192562197244)	(-5.3455174855802028, -4.5635376712558582)	(4.7228113473641766, 2.6168096637390228)	(-6.6507136010553891, 3.8341102122550392)	1.0	z	0.936431
13	M	A	A	N					N	4	3	shapes	N	5	True	79	(-4.7600132365289749, -5.3840421020961582)	(0.14473110605645267, 7.8982701310159165)	(-3.4525688120144959, 1.5179593880091602)	(5.7591691982365205, -0.65450361566201032)	1.0	slash	0.736683
14	N	B	A	B					B	4	0	shapes	N	5	False	79	(-4.7592301221238511, -6.7249957908045754)	(1.5901562678255363, -4.6831348191745725)	(2.7285464746325339, 0.66568928325452248)	(-5.0099539866856961, 4.1508078163340922)	1.0	slash	0.992274
15	M	A	A	N					B	4	0	shapes	M	5	False	79	(-3.0928494499866606, -2.9631535456431575)	(0.42700131260613361, 2.2396304183852802)	(1.0200800322877797, -2.7142099952125198)	(-6.964202564558934, 8.672281442887332)	1.0	slash	0.738086
16	N	B	M	N	B	A	A	M	A	8	6	shapes	A	5	True	79	(1.1541011513782333, 7.2464707312961139)	(6.6349838260890301, -4.5994829828806294)	(7.5296443410959633, -0.13530408304603725)	(-3.3556715854806312, 7.9733384218427688)	1.0	z	0.792267
17	M	B	M	A					B	4	1	shapes	B	5	True	79	(-4.6345259793492657, 4.9634560098039184)	(6.8466017265555212, 3.5087652669930076)	(6.0379169791149465, -1.3575703266849679)	(-0.1977015513796232, -1.0178959953672653)	1.0	slash	0.709399
18	M	A	B	M	N	N	B	A	A	8	4	shapes	N	5	False	79	(6.1406070568747726, -5.1741640542190241)	(0.19693152172697737, 3.411316707461884)	(5.2391764053405048, 2.7130583550706717)	(-0.078018960837329843, -1.8690375419709317)	1.0	slash	1.1189
19	N	B	A	M	N	M	B	A	B	8	3	shapes	M	5	False	79	(-1.8381567344718626, -8.0144485687323535)	(5.0052632392186513, -1.1456340687756761)	(0.45508378027279583, 4.9982566972818621)	(-4.1134521383603095, 4.3068892262215446)	1.0	z	0.860441
20	N	A	B	M					B	4	1	shapes	A	5	False	79	(-5.3936131344629619, 1.9455848573266668)	(0.66594532950248819, -3.6416831229102744)	(1.6459104731072713, 2.410941323821298)	(-4.1687569923893859, -3.9111760809156735)	1.0	slash	0.778182
21	N	A	N	A					A	4	1	shapes	A	5	True	79	(-0.34553141028368017, -4.2568523842445209)	(-8.1401879858144053, 6.1293935517930347)	(5.435478151792152, -5.6212813982798373)	(5.1449034983628348, 2.6594834756298056)	1.0	z	0.631837
22	N	B	N	A	B	A	M	M	N	8	5	shapes	A	5	False	79	(1.6594785066759901, -2.7684043173774766)	(6.1681805129614009, 8.5801525173863915)	(8.4610642375811196, -1.7040507823889506)	(-0.15295921182060646, 4.1047571298881529)	1.0	slash	0.997432
23	N	B	N	M					N	4	3	shapes	M	5	False	79	(-0.85274682389495293, 8.2159622511879604)	(-1.6155035219922897, -1.6293363389399014)	(6.8442152800180018, -2.2599574269431075)	(4.9509146225855876, 8.3001395156902973)	1.0	slash	0.969049
24	M	B	N	M	A	N	B	A	N	8	2	shapes	N	5	True	79	(-1.8554552067243266, -4.7806657261348136)	(0.4595406004604019, -0.97948830935965248)	(-6.1280608650232793, 1.0756877775207023)	(7.9505397471820949, -5.4765713838290813)	1.0	z	0.852843
25	N	B	M	M					N	4	0	shapes	N	5	True	79	(3.5152678411623057, -2.3378916680321202)	(-6.7119973867733647, -1.47100687265785)	(4.8117801956995088, 7.5947294512983454)	(-1.1732661485601295, 0.36907613479933765)	1.0	z	1.26041
26	M	A	M	A					M	4	0	shapes	M	5	True	79	(1.8383803086005415, -8.1355122286040125)	(-5.8262755836219817, 8.6403203283592553)	(1.0917781209663779, 3.4828665469653544)	(-7.1903755202788124, -4.077808634318715)	1.0	z	0.938036
27	M	A	N	N	B	A	M	B	N	8	3	shapes	N	5	True	79	(-6.1193699938578607, -5.567935392868435)	(-6.6969645579902446, 6.1822457582831003)	(4.6254330757899993, 1.7638465561616972)	(5.7533356589600544, 5.7386805785621142)	1.0	slash	1.08361
28	N	B	A	N	B	M	M	A	N	8	0	shapes	N	5	True	79	(5.8988967419547347, -7.1039095954729969)	(4.7571321585122242, 8.0735857214334956)	(-1.8101610106652251, -3.7061928230653445)	(-2.4116299666407581, 5.4170084726626175)	1.0	slash	2.7591
29	M	A	N	B	B	A	M	N	B	8	5	shapes	A	5	False	79	(-1.7914958150615599, 5.3117865214267042)	(-4.5891660467420552, 1.263425101819788)	(-1.841572400994413, -3.3362305054006249)	(7.6810368821194608, 0.90553828287040616)	1.0	z	1.12282
30	N	A	A	N	B	M	B	M	N	8	0	shapes	N	5	True	79	(-5.5387994724860263, 7.5545686656203372)	(3.2620466963051538, -8.5909912757482534)	(-0.21900474682605164, -3.3164548225501358)	(7.7666883474290458, 3.8800897734165254)	1.0	z	0.814589
31	M	B	A	N	B	A	M	N	B	8	4	shapes	B	5	True	79	(6.9557654908086022, 6.8744250978109562)	(-4.5220205309216706, 6.3647785721709358)	(-4.0223548911812408, 0.063876307310726688)	(4.3485281996642993, -2.7363123917718077)	1.0	slash	1.5123
32	M	A	N	B	A	M	N	B	N	8	6	shapes	N	5	True	79	(-8.6991971231893306, 5.5837429065649502)	(-8.6306789582349381, 1.1622251683412941)	(6.8723757220595516, -6.9455732017923673)	(-6.1580911310502584, -2.4490435771783039)	1.0	z	1.7589
1	M	A	A	B	N	M	B	N	N	8	7	shapes	N	6	True	79	(-3.8717815209531565, -7.1362448489844192)	(0.45187362274491427, -3.6656821687978232)	(-2.7399847915772853, 2.1710013142722993)	(7.2758133161911793, 0.21750766384294273)	1.0	slash	0.971557
2	N	A	A	B					B	4	0	shapes	N	6	False	79	(-0.83740918984072632, 4.9415686529978089)	(-2.8001533341007665, -7.5960152105577095)	(0.30856374550153554, -3.0722258667106601)	(7.4880524713657444, 3.5602579188102688)	1.0	slash	0.810572
3	M	A	A	N					B	4	3	shapes	N	6	False	79	(2.9502709432930398, -6.0344759884158492)	(-3.1109100655322584, -4.2152654921061323)	(-3.1081061947122475, 5.7907368258759142)	(1.927675450121983, 0.022075721677412119)	1.0	slash	0.690665
4	M	A	N	B	B	M	N	A	B	8	4	shapes	B	6	True	79	(-1.8605691439088936, 1.0520613237057876)	(-4.3897295729165569, -2.4386729612223865)	(6.49885406985074, -1.4167613801168875)	(-5.8085983459230182, 5.8835889368714618)	1.0	slash	0.550329
5	M	B	A	B	N	M	A	N	N	8	4	shapes	N	6	True	79	(1.4675326566459592, 3.7801700036667008)	(0.19551131531958177, -6.5494823693344753)	(7.8648666786846526, 0.075944547319414468)	(1.8431380280474166, -1.3776444598719833)	1.0	z	0.437711
6	N	B	N	B					M	4	3	shapes	B	6	False	79	(3.3244545549595355, -4.9240453127628179)	(-6.0705609817864215, -6.0377416277276117)	(-2.0964428781442921, 0.53497197097104809)	(5.3300196381507359, 2.7375401052341353)	1.0	slash	0.639549
7	N	A	A	M	N	M	B	B	M	8	3	shapes	M	6	True	79	(-4.6366246126565995, 6.9043722852067919)	(6.3169139334784941, 7.3731498791097181)	(-8.6257839178264728, 7.923671770877263)	(4.0298013765983747, -5.4549684838978063)	1.0	z	1.1893
8	N	A	N	A					A	4	1	shapes	A	6	True	79	(7.7984734012377253, -8.2986905243643072)	(-0.61761062247076381, -7.906239101481626)	(7.4233412855109506, 6.2052016273293695)	(-6.379116647920787, 7.4597349974425313)	1.0	z	0.872941
9	N	A	B	B	N	M	A	M	A	8	0	shapes	N	6	False	79	(2.5304134610905074, -5.4944326936551331)	(5.9964049673219098, 0.77279753397754014)	(-4.3053230742726107, 1.0601911076273396)	(2.344462016398289, 8.1252206839991175)	1.0	slash	0.772578
10	M	B	N	B					B	4	3	shapes	B	6	True	79	(-7.9839612268503268, 8.4044950482987595)	(-0.3665195018985159, -1.7737086901427146)	(5.2992266056454653, 3.2800775820959522)	(6.2114884543409854, -5.4469465150043028)	1.0	z	0.668173
11	N	B	B	N	M	A	A	M	A	8	4	shapes	M	6	False	79	(-0.63288434714542952, -5.6193892197445932)	(-2.1169486144868355, 2.1829749881129459)	(2.1845605231463452, 4.9058025649297292)	(6.7338459756269042, -4.7001842927364912)	1.0	z	1.10761
12	M	A	A	M	N	B	N	B	M	8	4	shapes	N	6	False	79	(6.7522278578327715, -7.5870402625430389)	(5.4528258018028133, 3.9317647294701015)	(3.2880334264796911, -1.4957018369857389)	(-0.29415643096085553, -4.1551760081183602)	1.0	z	0.915546
13	M	B	N	A	M	N	B	A	N	8	5	shapes	N	6	True	79	(-2.1726250850229309, 6.6631828320462638)	(2.4147563975447266, -5.4750180547675749)	(-8.3065858384585418, 5.1928664367825075)	(7.6601783377941217, 6.6135680459538992)	1.0	slash	0.681117
14	M	B	M	B	A	A	N	N	B	8	1	shapes	B	6	True	79	(-7.7571442042353134, -4.2881846383109394)	(1.8455855919791588, -5.7413948185197636)	(5.385461282339584, -2.6293797287960565)	(6.2925816035168864, 4.0983131621154882)	1.0	z	0.788781
15	M	A	B	N					A	4	1	shapes	A	6	True	79	(-6.1441847214347529, -1.1500636989255115)	(2.4370104190899546, -1.4497745710248822)	(-1.5498521882619771, 1.8540065676540198)	(1.8468158786204878, 5.5623803970101466)	1.0	slash	0.672328
16	M	A	B	A	B	M	N	N	B	8	3	shapes	A	6	False	79	(0.6311231495904277, -6.2856929699000945)	(7.3146762938231795, -2.7258568056823727)	(3.6783418886222439, 0.39617532165952873)	(6.778754633581876, 3.4831369560602194)	1.0	slash	1.17408
17	M	A	M	A	N	N	B	B	M	8	3	shapes	A	6	False	79	(3.7316874006050824, -1.4176697078535287)	(-2.5650659685446335, 2.6843062447100738)	(4.2965304756890514, 8.5820223603594989)	(-4.2623759813261337, 8.6830556918899369)	1.0	slash	0.648964
18	N	A	A	N					A	4	3	shapes	N	6	False	79	(-4.9415586325191132, 6.4969076522110001)	(4.502039383561959, 8.0108239800920273)	(5.8563637020255719, -0.1245925365882119)	(-3.2925976804917028, -3.9522991479257712)	1.0	slash	0.585463
19	N	A	A	B	N	M	B	M	B	8	4	shapes	N	6	False	79	(3.7326016495172674, 4.7511596075779075)	(7.2204944207605983, -1.3623116234661126)	(-5.9527544814750062, -6.8219870357154475)	(-8.5501521239485747, 7.8586847540995315)	1.0	slash	0.993101
20	N	B	A	A	B	N	M	M	M	8	6	shapes	M	6	True	79	(-1.3087659060547265, 1.6678713844624138)	(-7.8656068143955666, 0.42341195680812937)	(0.016460033458251644, -8.6788034173037509)	(6.299570413022753, -2.8097930410237071)	1.0	z	0.862232
21	M	B	B	M					B	4	1	shapes	B	6	True	79	(2.9880352257006937, 2.8812190077966058)	(-2.8269876717666094, 6.6518132181931442)	(-7.3230606363332038, -5.0472921444033112)	(7.6033079649469322, -3.004653447973495)	1.0	z	0.916153
22	N	B	B	A	M	M	N	A	A	8	7	shapes	A	6	True	79	(-2.0087252767433945, -6.1330645063656295)	(-6.1519017312142283, 1.5324457693372935)	(-1.1449537665587259, 3.4712169505761512)	(5.7480943142622376, 3.7451162711240027)	1.0	z	0.751965
23	N	B	B	N					N	4	3	shapes	N	6	True	79	(-3.1358980627213029, -2.0797183416036242)	(5.2778595262268588, -6.889913525142914)	(-6.9331638728044513, 3.8195322724202949)	(5.3316576772499591, 0.95910739300239634)	1.0	z	0.643531
24	M	B	A	B					A	4	1	shapes	B	6	False	79	(3.2021600493642133, 5.1804041652724298)	(-2.2472251703910802, 0.53518856767616718)	(-1.0553603201564865, -8.0709068107508894)	(6.9422409153297924, -1.5015182282126203)	1.0	slash	0.892853
25	M	B	B	N	M	N	A	A	B	8	7	shapes	A	6	False	79	(6.0388085454777762, -6.6208329606268261)	(8.2173375687629502, 6.9870187258893051)	(-4.5037098517737064, 3.5539730381567978)	(-8.2508729042659787, 1.503319599665593)	1.0	z	0.918801
26	M	A	M	B	N	N	B	A	M	8	7	shapes	A	6	False	79	(-1.1450281439308769, 0.67675461352716404)	(6.4882756664477395, -6.0708139809144592)	(-4.3168143062384621, 5.7759057424474474)	(2.8974794936401906, -2.3681075323347711)	1.0	slash	1.09226
27	M	A	B	N					N	4	2	shapes	B	6	False	79	(8.2420777069540883, 7.7768153727247196)	(-4.6189174689468819, -4.8980050743957575)	(-3.7358746064632324, 7.2795910053422901)	(6.5817160179437586, -8.3137471339174258)	1.0	slash	0.908224
28	M	A	B	B					B	4	3	shapes	B	6	True	79	(-0.43579632204483154, -8.6477722245633277)	(2.5534589070185358, 6.2956065295654788)	(0.2358070555608478, -3.9988644413195553)	(-3.09308073746526, 4.2281472828241071)	1.0	z	0.567646
29	M	A	A	N					M	4	3	shapes	N	6	False	79	(-0.177433825989608, -1.4379795422312123)	(6.8363815514298132, 1.2414362429754426)	(2.4795725693696209, -8.7059140919509819)	(-2.062348956594481, 3.2567060118004925)	1.0	slash	0.847662
30	N	B	N	M					N	4	0	shapes	N	6	True	79	(6.0752331455927795, -3.4630852889155683)	(-2.8089329210062779, 3.6235246071773393)	(-3.7550123590414506, -0.56580793748379499)	(4.0930516471270568, 6.9106227462364327)	1.0	z	0.665237
31	N	B	A	A					A	4	3	shapes	A	6	True	79	(-8.221854426174934, -1.8367587492083493)	(-0.18291909142119778, 2.204221222001344)	(7.8659947670225492, -7.531712450675939)	(4.5338303385223622, 2.2964681600953138)	1.0	z	0.430973
32	N	A	B	A					A	4	0	shapes	N	6	False	79	(-3.2286805462862249, -2.658252669836398)	(0.45300681837381873, -5.0707431789518527)	(-0.13695626573045239, 0.25273666732462807)	(8.2378734283336676, 0.67243944814042855)	1.0	slash	0.738751
1	N	A	M	M					M	4	2	shapes	M	7	True	79	(-0.95896240551703649, -4.0708379755092743)	(3.4631349195781436, 0.079831710666132594)	(-2.5722019371055884, 6.5146032617750382)	(8.4463564559062867, -5.857533628636391)	1.0	z	0.534169
2	M	A	A	M					M	4	3	shapes	M	7	True	79	(-4.850653636353389, -0.71720153397625275)	(7.5625333874010963, 6.1233922053974048)	(5.5916496278429442, -6.8142617361503754)	(-8.4257307565859438, 3.4466185156103304)	1.0	z	0.541946
3	M	B	M	B					N	4	1	shapes	B	7	False	79	(-5.6244371654353582, -6.8858196704084698)	(-3.8552469780042147, 4.0644425636449135)	(4.6997020600949355, -0.22927848305801213)	(8.3501448662005195, 7.7301238322662371)	1.0	slash	0.539713
4	M	B	A	B	N	A	M	N	N	8	5	shapes	A	7	False	79	(5.800367493726748, 8.4906768688129404)	(5.2407667949989989, 3.9249559486670158)	(2.7123319546471443, -4.9412272253532112)	(-0.49157269036741091, 1.8961916690508307)	1.0	slash	0.610982
5	M	A	N	M	A	N	B	B	A	8	3	shapes	M	7	False	79	(-3.6302856951215006, -3.1912659776601382)	(5.0048141116752145, 3.0133918938828295)	(-7.6023531064603693, 6.754914967765659)	(-3.8414499933616391, -7.308476791015373)	1.0	slash	0.548762
6	M	B	B	A	A	M	N	N	M	8	0	shapes	M	7	True	79	(-3.445614959211313, -5.0627138156032387)	(0.85540616299869399, -7.973130153276391)	(3.8140317273381186, 2.3961187412490652)	(4.54387922750111, -3.286976409294355)	1.0	slash	0.596621
7	M	B	N	B					N	4	1	shapes	B	7	False	79	(-6.6442218803993738, 8.34696152375205)	(-8.2092223185781119, -6.0358424697583315)	(0.95951186042802306, 3.525913041782303)	(7.4832595974978133, -2.5966149863889774)	1.0	slash	0.688333
8	N	B	A	A					N	4	0	shapes	N	7	True	79	(2.8014546594288419, 0.005741945280282934)	(-7.7561699263507276, -4.543200407895017)	(-4.3355684522108513, 7.0037618432951145)	(2.4202763614863709, -6.6992932766815194)	1.0	z	0.883931
9	M	B	N	B	N	A	A	M	N	8	4	shapes	N	7	True	79	(2.6727631976683544, -1.9986347966408147)	(-0.26595575408833838, -4.7383473423246745)	(4.6752467522409855, -7.8121783808013543)	(-2.22222249039819, 0.18679557965862159)	1.0	z	0.767487
10	M	B	N	A	M	A	N	B	A	8	1	shapes	B	7	False	79	(-3.5285488705468895, 2.5120040490935729)	(7.2099689352299183, -1.7047531276526673)	(0.62304872690065949, 3.1065672576164438)	(-8.4235742241252911, 0.27308286010214999)	1.0	slash	0.827126
11	M	A	B	B					M	4	3	shapes	B	7	False	79	(-3.0651797169796868, 3.4330177482831026)	(0.56145190912137011, -2.5845231895273475)	(7.7909540941476614, 1.7476863728598229)	(-6.8281279372657409, -7.4439127745837483)	1.0	slash	0.630914
12	M	B	A	A					M	4	2	shapes	A	7	False	79	(1.0609608358401541, -7.7697141143266188)	(-5.5229505084578587, 2.5276795512223487)	(0.57124832758980126, 7.3710365514571876)	(-6.9021817511548802, -8.3424731739520741)	1.0	slash	0.714494
13	M	A	N	M					M	4	1	shapes	A	7	False	79	(-4.0150583534427104, 5.9599751670781949)	(7.2544224192430455, 7.0326846660128499)	(-5.8272535701405168, -7.6111369054464593)	(4.1521537665970847, -5.0202372262580539)	1.0	slash	0.55804
14	N	A	A	M	M	B	N	B	B	8	0	shapes	N	7	False	79	(0.97668716311513037, 5.3636681788670124)	(6.0536256246403735, 0.54068565289792758)	(-6.6434097864275694, -5.558880812876648)	(0.96112929944508174, -2.9259290233570319)	1.0	slash	0.611815
15	N	A	N	M	A	B	M	B	A	8	4	shapes	A	7	True	79	(-0.91252671079038539, -0.15563688385684316)	(7.4895818643271106, -4.776336235150743)	(-0.58434118423862458, 4.4961355119689408)	(-8.3576089844383183, 7.304727379623106)	1.0	z	0.651563
16	N	A	M	B					A	4	1	shapes	A	7	True	79	(7.2849183900009002, 1.6676281866694964)	(-1.8814557879707534, -3.8015147093819284)	(-1.3710517014520889, 6.2772855734272639)	(3.1298603991769909, -5.5733687098697882)	1.0	z	0.642951
17	N	B	M	N					N	4	1	shapes	B	7	False	79	(4.145893715697289, -6.8204232157575433)	(8.2066341530743117, 1.9561803761300904)	(-4.3125851271163294, 5.9745112695311651)	(-3.2923937939037211, -0.32680933717233707)	1.0	slash	0.620797
18	N	A	N	B	M	A	B	M	M	8	6	shapes	B	7	False	79	(-5.3505455425691117, -5.6920758447845827)	(-7.135879170511183, 0.13947200160405515)	(-5.6854501247202753, 7.4407702605226014)	(-0.71903359137884593, -8.687837268896855)	1.0	slash	0.64449
19	M	A	A	N					B	4	3	shapes	N	7	False	79	(-1.4132667831486625, 8.7090951677180932)	(-6.5070141719769312, -4.9735147764832117)	(7.8954045253791669, 1.2611007253172346)	(6.5301348132080239, -7.6756208969359188)	1.0	slash	0.662257
20	M	B	M	N					B	4	0	shapes	M	7	False	79	(-7.885935489862109, -4.435144847817015)	(0.93805275748747974, -4.1544398943765524)	(-6.1938475112670712, 4.5310648656917927)	(5.2696722747235913, 0.23840444323929155)	1.0	slash	0.771622
21	M	A	M	B	A	B	N	N	B	8	0	shapes	M	7	False	79	(2.9360872505489475, 0.88334999181245166)	(8.6977273237240098, -0.45922519532247463)	(-2.7205219400774787, 3.5537657979747248)	(6.7753228442638758, -6.9478013942747134)	1.0	slash	0.737585
22	N	B	B	M	A	M	A	N	N	8	4	shapes	A	7	False	79	(1.5991385517710892, 1.8997721647351042)	(-6.6132109487317035, -6.0805985581578845)	(-4.1052437446079466, -0.71009689230350048)	(8.1700325113295307, 0.29925537595382501)	1.0	slash	0.667139
23	N	B	B	M					M	4	3	shapes	M	7	True	79	(-0.56560808195908407, 4.304362367205341)	(2.4793609195676023, -2.7691953557945652)	(-2.9142126759212665, -7.1596906866664023)	(5.0759265365365849, 3.054072121252613)	1.0	z	0.632684
24	N	A	B	B					N	4	0	shapes	N	7	True	79	(0.44522526614662894, -2.9606114109700021)	(-4.9559336012745732, -2.1414460193721405)	(1.7132765429587504, 5.2515251065376578)	(-5.2914778021748994, 7.0611974840664971)	1.0	z	0.9483
25	N	B	M	A	M	A	B	N	A	8	5	shapes	A	7	True	79	(-4.229671282830668, -2.3814287433383949)	(2.1886412751865816, 1.8046048722076939)	(8.7204750656384107, 7.0095458847706009)	(-2.5447806863309097, 6.6235379582831051)	1.0	slash	0.610171
26	M	A	A	N					M	4	0	shapes	M	7	True	79	(-3.5584200185297528, 3.9618718351167974)	(2.9918570231143065, -5.1867187538624719)	(-6.4005341849213195, -2.6260321833716853)	(1.7726493489452082, 7.7518681630742208)	1.0	z	0.481489
27	N	B	M	N	B	M	A	A	M	8	5	shapes	M	7	True	79	(-6.0767838154502218, -7.4610689953430187)	(4.871042155743563, 3.6221095182061056)	(-5.3659496653780776, 4.1651931905349144)	(0.1413626034314337, -1.6291861420970255)	1.0	slash	0.533446
28	M	A	A	M					A	4	2	shapes	A	7	True	79	(8.7462238998350976, -8.5132970908161401)	(8.7036886620753471, 3.6967165845872092)	(-7.9640133579783461, 0.28536016304630962)	(-7.0669607407064694, -4.6797682688175666)	1.0	z	0.837205
29	M	B	B	M	A	A	N	N	M	8	0	shapes	M	7	True	79	(7.4261283807703862, -3.8997130468689543)	(8.2105303094381945, -8.0527687386823104)	(-5.3208321207517368, -2.7377868233491416)	(-0.54908206272647497, -0.31071600236975705)	1.0	z	1.02677
30	N	B	M	M	B	N	A	A	B	8	1	shapes	B	7	True	79	(-2.2251290766349543, -7.9257583570178589)	(-7.2646061913361679, -1.0150981075047047)	(3.5044200882842702, 3.865434818140745)	(3.894435820864242, -4.737259713227953)	1.0	z	1.06646
31	M	B	B	N	M	A	A	N	M	8	5	shapes	A	7	False	79	(-7.7048497975450916, 2.1128837604120747)	(1.9872621483414381, -5.8266030252817895)	(5.7130401825919002, -1.0604822967570202)	(-5.4009623454326841, -4.3903656720141191)	1.0	slash	0.986007
32	M	A	M	N	A	B	B	N	A	8	1	shapes	A	7	True	79	(-2.5171915355834509, -8.1233549180870668)	(-1.4916890902942992, 2.1325170032197249)	(2.9121064416095788, -6.4300584411135819)	(-0.28789974217363223, 7.291138472637428)	1.0	z	0.725675
1	N	A	A	B					B	4	2	shapes	A	8	False	79	(4.2319529574989048, -0.49574122933229781)	(5.8734109015412113, 4.8749484275749957)	(-1.4148277877838513, 4.4102098658307707)	(-1.6843156734836287, -4.6869019883047418)	1.0	slash	0.862032
2	N	B	N	B	M	A	A	M	A	8	3	shapes	B	8	False	79	(-5.506286007829523, -2.9581635469218837)	(1.7935161874552907, -1.0535203345275086)	(1.4267550638466027, 3.3216449846011908)	(-4.215883506526545, 1.7898750822791083)	1.0	z	0.74101
3	M	B	M	A					B	4	1	shapes	B	8	True	79	(-4.6548669231535227, 8.7394772735272745)	(4.268654902529633, 8.7469853788158964)	(1.7250411053673265, -6.1996229565574401)	(-2.6440981479363437, -3.21925053301955)	1.0	z	0.818551
4	M	A	B	N	B	A	M	N	N	8	7	shapes	N	8	True	79	(-2.3387048563931065, 1.0434527733469956)	(-0.31666972800087834, -8.3089463968349691)	(8.5261678974559629, 4.839275098195758)	(2.2518013999126421, 4.8859526778191906)	1.0	slash	0.518276
5	M	A	B	A					B	4	1	shapes	A	8	False	79	(-4.8390187892000052, 0.59656946795014321)	(4.0784586840468098, 3.3262373297549743)	(-1.2800844978754622, -1.3593092633411246)	(7.5055139670700513, -6.0179488166860846)	1.0	slash	0.823835
6	N	B	M	B	A	N	M	A	N	8	3	shapes	B	8	False	79	(8.1781209723719499, -2.4389407014418909)	(-4.1672630762290792, 6.5991485979385605)	(-7.908928161251886, -4.1762100153748678)	(-2.4972467112980299, -5.4284299455449103)	1.0	slash	0.701723
7	M	A	M	A	B	N	N	B	M	8	2	shapes	M	8	True	79	(-1.257997168553441, 0.43516977495026765)	(-6.8522187877567546, 1.4711247977361293)	(-0.78202294080078438, -8.5445210745346518)	(6.2152128361651418, 5.7233642768626467)	1.0	z	0.717303
8	N	B	N	A					B	4	1	shapes	B	8	True	79	(5.4356338679203269, 4.8792456517038509)	(-8.1160010305596746, 7.7617802695173239)	(-0.5224742842430512, -6.8370035678436798)	(5.338024873840153, -4.0790697289531392)	1.0	z	0.766845
9	N	B	B	A					A	4	0	shapes	N	8	False	79	(-2.3045824155973786, 2.840664419342259)	(0.64391339495329802, -3.3421064599831221)	(-7.4251435906597703, -7.980015092002672)	(2.5972939740129313, 1.8949877613510591)	1.0	slash	0.702616
10	N	B	N	M	M	A	B	A	N	8	0	shapes	N	8	True	79	(-0.70339549236754983, 6.9308855545824049)	(5.4172579351615777, -6.6905771360950865)	(0.16641101556913895, 1.0299387274024632)	(8.4300318815214297, 0.33977949722778433)	1.0	slash	0.668237
11	M	A	B	M	A	B	N	N	N	8	3	shapes	M	8	False	79	(3.5719297178917362, -0.67029013002708027)	(-3.7897980719988515, -0.18788085437630642)	(-8.0258477089699412, 2.0112125073219111)	(4.6867679971328293, 6.2440512280760352)	1.0	slash	0.736013
12	M	A	M	B					B	4	3	shapes	B	8	True	79	(2.7756487903091838, -1.5154293926938491)	(-1.3326749807936107, 3.708291929750068)	(-5.3089557777498229, -1.3736021739999256)	(3.0777366008976461, 2.7696444853269266)	1.0	z	0.757721
13	M	A	M	A	N	B	N	B	M	8	1	shapes	A	8	False	79	(7.8075882756997821, -7.8885198227148896)	(-6.1967864314811525, -4.5290351159926461)	(0.53655518541468794, 3.914709365032726)	(-4.9650562749219169, 8.4116790176507727)	1.0	slash	0.659301
14	M	A	N	B	A	B	N	M	B	8	6	shapes	N	8	False	79	(-8.5551444317621641, 2.6350267977093402)	(3.8952523617113446, 6.9993156623387254)	(-0.7974365094320941, 2.2060128400437122)	(4.6244057370651142, -4.9343996872134213)	1.0	z	0.980796
15	M	B	N	M					N	4	0	shapes	M	8	False	79	(-4.3330502167279725, 6.0233008355524174)	(7.4538245500765008, -7.5373940330682876)	(-7.2140392919183949, -6.8532050120823591)	(5.6860323672625075, 5.8806983664467758)	1.0	slash	0.818615
16	N	A	A	B	M	B	M	N	M	8	7	shapes	N	8	False	79	(-5.3342825499684476, -2.6590667039258022)	(3.6060981621258748, 3.3575119823741009)	(-4.9533147290600539, 4.7773347580133283)	(5.2239003169462137, -6.1908509890493049)	1.0	slash	0.972065
17	M	B	B	N	A	M	N	A	B	8	2	shapes	B	8	True	79	(-5.4975940067816893, -2.6468503661614138)	(-2.5601372123573585, 8.4453218801869667)	(7.7259711506646376, -4.7129783584613163)	(-3.0610542182520808, 1.1209021438584177)	1.0	z	1.37174
18	M	A	N	B					M	4	0	shapes	M	8	True	79	(-1.5441088823941627, 6.0806108969423036)	(-2.0621970340025628, -1.6926527578245842)	(2.5085042867398499, 4.6898032968019745)	(1.5130520583676361, -4.6965780104472206)	1.0	z	1.33138
19	M	B	M	N					B	4	3	shapes	N	8	False	79	(-4.9952800312752617, -1.2929044441339661)	(7.6278617026293851, 1.3915575909405806)	(1.0311055436040419, -7.0590566301906943)	(-1.1046590530686116, 4.0273858033703132)	1.0	slash	1.48088
20	N	A	M	N					N	4	1	shapes	A	8	False	79	(-1.7265049234874823, 1.9213517880343538)	(6.999955763748531, -2.6873427605177307)	(-5.6453944947630683, -7.1784270377717085)	(7.9947267563563784, 5.0990176945653616)	1.0	slash	0.658541
21	N	A	A	B	M	N	M	B	N	8	0	shapes	N	8	True	79	(-2.4336241972514561, -8.5179674476512641)	(2.5369045336152585, -7.379664299895647)	(2.7509821901379663, -0.95040307757140585)	(7.7737592445029868, 4.1819628194836582)	1.0	z	0.884336
22	M	A	B	M	B	N	A	N	N	8	5	shapes	N	8	True	79	(-0.4616726651838885, 1.5400794164922154)	(-6.9695474478697221, -6.5610210041955703)	(7.7828438763501779, 2.5868947869198227)	(-7.5016215274113591, 2.6028933812725743)	1.0	slash	0.687565
23	N	A	M	B					N	4	0	shapes	N	8	True	79	(3.1330187662899753, 0.99325024391390393)	(-5.4145342918654347, 1.3720545948985716)	(-0.32564317826480682, -8.6364004481381329)	(4.7510116086976915, -8.1603125554454969)	1.0	z	0.543554
24	N	A	B	M					N	4	3	shapes	M	8	False	79	(-3.5228262148823291, 1.2450346933030616)	(-5.6671251246355716, -8.7406357498749774)	(1.0068345736552615, -4.3555192482990126)	(3.3025968525652658, 4.0556464764401365)	1.0	slash	1.06921
25	M	A	B	A					M	4	0	shapes	M	8	True	79	(-0.077184996131350658, 5.6270198756496814)	(8.5958887709451517, 6.7597121582864883)	(2.1438542105423686, -1.6541349230834586)	(-4.3571932625026104, -6.7919739902190379)	1.0	z	0.616953
26	M	B	M	B					B	4	3	shapes	B	8	True	79	(3.0763818690118736, -0.48512129247099622)	(-1.0101988024050268, 3.6445934878457251)	(-6.5813835946671277, -3.4647930714917194)	(4.0351419390041041, 6.9765485065151598)	1.0	z	0.752476
27	M	B	M	A					N	4	3	shapes	A	8	False	79	(-3.8963421791110946, 5.7463145720413671)	(5.8602168845156513, -0.83852836627276339)	(7.6892750821217426, 4.7400069476867994)	(-5.9668159648117101, -3.8220387085976952)	1.0	slash	0.604373
28	M	A	A	B	N	M	N	B	B	8	5	shapes	M	8	False	79	(-6.9314549767910973, -0.57905231985530037)	(-3.5622411701025394, -8.3756357243617767)	(8.1093696330215437, -7.4620359791065605)	(3.0096129038906803, 5.0479308995032177)	1.0	slash	0.903926
29	M	B	N	M	N	A	A	B	N	8	5	shapes	A	8	False	79	(6.4684668430448529, -3.5668295233317533)	(-3.7928123383672387, -3.2244158867284218)	(0.23623221984034792, -1.8530084502446673)	(-3.5984019239000435, 5.1804763212869958)	1.0	slash	1.10359
30	N	B	A	B					B	4	3	shapes	B	8	True	79	(-4.0479027584391716, 2.3734523960713059)	(6.7759746525389595, 2.3711126212158948)	(6.0718380767037985, -2.8244053600108598)	(-1.3678759787713464, -2.1954872712847244)	1.0	z	0.661128
31	M	B	A	M	A	N	N	B	A	8	2	shapes	A	8	True	79	(0.10417070959237584, 4.4269078729640441)	(-1.6858085051956682, -8.320099525500904)	(-7.2569800986530986, -3.061506738758828)	(6.2684184631431759, -2.3091516952367517)	1.0	z	1.1569
32	M	A	A	B	N	B	N	M	B	8	5	shapes	B	8	True	79	(5.0174384458687324, 6.3209742176526795)	(-1.1096515813105787, -5.5261861878219785)	(-7.6360998068122106, -1.0312616216980262)	(-6.8650135939392758, 4.9799970701262524)	1.0	z	1.2344
