TrialNumber	stim0	stim1	stim2	stim3	stim4	stim5	stim6	stim7	stim.probe	ttl.stims	corr.num	trial.type	stim.corr	block	match	Subject	stim.pos0	stim.pos1	stim.pos2	stim.pos3	ran	resp	RT
1	N	B	M	B					B	4	3	shapes	B	Practice	True	8	(2.2308123195909015, 2.6355035379307203)	(7.0496038969909236, -8.2956269046978033)	(-5.4129605186193519, 6.4512874362124872)	(-8.6327966016849533, -7.2506725192491075)	1.0	z	1.97168
2	N	B	M	A	N	M	A	B	A	8	3	shapes	A	Practice	True	8	(0.67935220121129447, 4.2413993622493997)	(-7.5157155753952001, 6.8061958208193669)	(6.3278381678957381, 8.6575905088399914)	(-0.73011594739623575, -0.86894900594048163)	1.0	z	4.00525
3	M	A	M	A					A	4	2	shapes	M	Practice	False	8	(3.6852233122446147, -4.5791028685864772)	(5.2380546919050204, 2.4081293156191954)	(-2.2272393433134088, -3.3160594476459853)	(-3.2294172480040322, 3.4534287752652091)	1.0	z	1.53462
4	N	B	B	N					B	4	2	shapes	B	Practice	True	8	(-5.8610323069569095, 0.99605272795060706)	(2.6391160969495822, 3.6004369725135454)	(8.491242013047902, -7.6003265417704871)	(-1.2684732794050868, -0.41227477833243498)	1.0	z	1.4703
5	N	A	M	N	M	A	B	B	N	8	4	shapes	M	Practice	False	8	(-8.0001502867542928, 1.360278713802451)	(7.1629848639617517, -5.6667187849166769)	(-1.1604407116804358, 6.1417058890452498)	(-5.5607964100698091, -5.36196863960628)	1.0	slash	4.58179
6	M	A	A	N	N	B	M	B	A	8	3	shapes	N	Practice	False	8	(-6.2494110896457524, -0.75697786692676416)	(-5.4784728259135598, -8.3816276037384316)	(6.1184990726552684, 7.0576240282976421)	(2.0498575847606215, -4.339859991962653)	1.0	z	1.54915
7	M	A	M	N					B	4	2	shapes	M	Practice	False	8	(-4.9519448367027321, -7.3022817273082206)	(6.9109246560258732, 1.502254418732889)	(-8.4382808883861635, 1.1031898797174922)	(3.7824142555034843, -8.3895989998831855)	1.0	slash	2.20085
8	M	A	N	M	A	B	B	N	M	8	0	shapes	M	Practice	True	8	(5.5861058659751706, 6.519276751525414)	(-1.6000709454764204, 6.1357230289734712)	(-3.1400544959911523, -6.516877375342025)	(-8.0905545433776496, -5.0496235196063957)	1.0	z	1.39836
1	M	A	B	A					M	4	0	shapes	M	0	True	8	(-8.3145687629028942, 7.3596452665425396)	(-6.2803320977062551, -2.3104842779958306)	(2.8148548849377999, -3.5581329074893171)	(7.3506782107246025, 0.7001190723141697)	1.0	z	0.958831
2	M	A	M	A	B	N	N	B	N	8	2	shapes	M	0	False	8	(6.524296996640393, 1.5897769030957178)	(5.6217339916284583, -7.7746815274179824)	(1.0937040675840812, 1.1624442313908947)	(-7.6741608225081368, 4.9672422371305913)	1.0	z	0.532578
3	M	A	N	A	B	N	B	M	N	8	4	shapes	B	0	False	8	(1.2959640193028594, -4.8315751343522582)	(2.6657540893242118, 0.78706471398385069)	(-4.5888823978882636, 1.606878357993299)	(7.5617499125019521, 5.1101373772668701)	1.0	z	0.222211
4	M	B	A	B					B	4	1	shapes	B	0	True	8	(7.7133957282030394, -6.1677004515240466)	(-8.7187443033337715, -1.4814872168687536)	(3.4021624161727306, 1.7093206909336303)	(-3.3202720715540996, 0.34431516816841423)	1.0	slash	1.10775
5	N	B	B	M	M	A	A	N	N	8	4	shapes	M	0	False	8	(4.6356286351234886, 7.3300974650205077)	(2.3307294491661494, -8.6906490057027295)	(1.0807719504317159, 0.34377797596588167)	(-7.8542116131020485, 6.252083347594894)	1.0	slash	1.29957
6	N	A	B	B					B	4	3	shapes	B	0	True	8	(8.6097812425542983, -8.6254712261031052)	(-6.8242294994527848, 7.8151048833538397)	(2.9451576771822126, 5.5547503582474622)	(-4.4868255922595619, -8.5235715545789876)	1.0	z	0.793115
7	N	B	N	B	M	M	A	A	B	8	3	shapes	B	0	True	8	(-7.540666897516429, 8.1161657865573567)	(3.9576656434422777, 0.93865648860227857)	(-1.876445207326249, -3.8202592708192569)	(7.8686303174029, -2.3945561288728001)	1.0	z	0.838812
8	M	A	N	N					N	4	2	shapes	N	0	True	8	(2.6231685680182064, 8.5400485557430521)	(7.2196380671522427, -3.884911343618394)	(-8.4301745228174347, 6.7907626814976716)	(-7.3982883706311506, -6.5501416823837264)	1.0	slash	0.984458
9	N	A	B	M	A	B	M	N	B	8	4	shapes	A	0	False	8	(4.2011725005778722, -0.68732756703705888)	(-4.320775282733142, -4.6316245854913456)	(-1.9516770160329573, 6.9663782186835714)	(-6.3502621257146004, 4.8522666862157777)	1.0	slash	0.912164
10	N	B	M	A					B	4	2	shapes	M	0	False	8	(-8.3785842841824518, -1.3097346671546992)	(2.3596961032648185, 6.3367585659329286)	(0.75279363955261225, -1.6430823707592568)	(-3.3472612919687768, 6.5481282023977272)	1.0	slash	0.883835
11	N	A	B	N	A	M	B	M	A	8	2	shapes	B	0	False	8	(0.36228941825727112, 6.4150771846311869)	(-2.4051128441467391, -5.9840824512575246)	(3.8589353907915065, -7.2513979404538187)	(-7.8970763729888098, -6.0572635346133712)	1.0	slash	0.88746
12	N	B	A	B					B	4	3	shapes	B	0	True	8	(-0.85975772574519382, -7.0962285419965792)	(7.5128088926687617, 2.0167089490207992)	(4.8427474156758912, -8.0087842954510631)	(-6.7902710445186685, 5.3647979540493171)	1.0	z	1.23909
13	N	A	M	M					N	4	1	shapes	A	0	False	8	(4.6302436790572905, 4.5902763639957058)	(-1.6645320712936043, -6.2106067125225159)	(-7.939227833446882, 2.4993256248330518)	(7.9137523760685973, -1.3362255837823991)	1.0	slash	2.56062
14	N	A	M	M					N	4	2	shapes	M	0	False	8	(3.185856554490897, 3.4383165470858756)	(-5.9732122219746842, 6.6768971666273877)	(-5.7483369315213633, -0.050532725770397136)	(7.4748330049926359, -7.3304794826190056)	1.0	slash	0.850062
15	M	A	N	M	A	B	N	B	M	8	3	shapes	M	0	True	8	(4.7762428495055254, 7.8217344617940441)	(-0.59998853216946557, -8.4031330623879441)	(2.2914412619783562, -3.2679278830970295)	(1.8127812358430582, 0.88793845625868073)	1.0	slash	1.50995
16	N	A	M	N	M	B	B	A	B	8	5	shapes	B	0	True	8	(-3.425992983179218, 6.3911848653859469)	(0.45653855008720967, -8.71021888106654)	(5.91401183904064, -7.8639811392994163)	(3.766984398222526, 7.5438007101971714)	1.0	z	1.22149
17	N	B	N	M					B	4	0	shapes	N	0	False	8	(-2.8750888617448682, -8.1429664546738074)	(6.9445292495546003, 5.5990945336196649)	(7.9061440163284651, -5.8241925623137831)	(-7.1144234158185551, 0.95125698196628683)	1.0	z	0.995055
18	M	A	B	B					M	4	1	shapes	A	0	False	8	(6.7740360323000619, 7.5509988261895948)	(5.7289504823684005, -2.3047467714939316)	(-8.3195567114443172, 1.3052546195997348)	(-3.7191715895473685, -4.0787581250352511)	1.0	slash	1.74262
19	N	B	A	B					A	4	0	shapes	N	0	False	8	(-2.5268740352238686, 6.8678518894307992)	(-2.4035483545354257, -2.1004307279389627)	(4.6627218813279647, -8.3270073831714235)	(6.4299019346782345, 4.1505864819152585)	1.0	z	0.380252
20	M	B	N	N	B	A	M	A	M	8	3	shapes	N	0	False	8	(4.7303193403950985, -8.1048682423029739)	(-7.3394318372693448, 0.35393842224025462)	(-1.6032933645598657, 4.6454594691145914)	(-8.0486959906368831, -3.7993566463053936)	1.0	slash	0.941816
21	N	A	B	M	M	A	B	N	B	8	2	shapes	B	0	True	8	(1.7566333418881328, -1.5024626921549977)	(-8.0135677334084559, -1.9380353196604032)	(4.0296160548520401, 7.0073369165996251)	(-3.7059145691704902, -8.1329739143027879)	1.0	z	1.50152
22	N	A	A	M	B	M	N	B	N	8	6	shapes	N	0	True	8	(0.65218537310674307, 0.67168729444212616)	(6.2912963939958626, -0.13476159636429941)	(4.9800912218244058, 3.94603990418371)	(-4.7713578470177689, 7.7396832324165992)	1.0	z	1.17316
23	M	A	B	M					A	4	1	shapes	A	0	True	8	(5.740108224456991, 6.393820021548553)	(-0.19719980023775285, -4.0836444229974136)	(-7.5932470703725867, 0.36877455679321614)	(1.7269283673643159, -7.7515053631429822)	1.0	z	2.02079
24	N	B	A	N	M	A	B	M	A	8	5	shapes	A	0	True	8	(-3.0944117877534687, -6.4161022499613969)	(7.4995925188610499, -3.8531261129971259)	(3.6522648095046328, 7.2683928815186505)	(2.5427295864246862, 0.74779453228706316)	1.0	z	1.22843
25	M	A	A	N	B	M	N	B	A	8	2	shapes	A	0	True	8	(-6.5173098664211579, 0.95840458981518495)	(-0.89069061889474721, 0.34323132244402821)	(6.9558194108859333, 8.7129571178677097)	(2.3346243417876149, 5.6429599066911784)	1.0	slash	1.89788
26	N	B	B	N					N	4	0	shapes	N	0	True	8	(3.9924234204703275, -5.5493133575592015)	(-6.5029247422305971, -5.4305762605132433)	(1.2410916562828582, 5.6257967917356968)	(-6.1061355146067919, 7.496476415779064)	1.0	slash	4.2395
27	M	A	N	A					M	4	1	shapes	A	0	False	8	(7.3948788629592777, 1.1925377499834831)	(8.4468237618029107, -3.462396379912053)	(-1.1669903810068414, -3.3928191749715673)	(-0.59931407755198407, 8.4400167210394557)	1.0	slash	1.02491
28	N	A	B	A	M	B	N	M	M	8	4	shapes	M	0	True	8	(5.9405046700837971, -2.1569825142070815)	(-5.0373418210578018, -6.406933356147464)	(0.28219787825067755, -4.6995541296110002)	(7.3609420988878611, 5.2901081808217363)	1.0	slash	1.22451
29	N	A	M	B					A	4	1	shapes	A	0	True	8	(1.5158888599563696, 5.3724816681776382)	(-2.3957338946669262, 7.81993311444824)	(-1.6299992108988075, -6.479219113596832)	(6.7685743934976283, -5.694454742561426)	1.0	z	0.950207
30	M	B	N	N	M	A	B	A	A	8	1	shapes	B	0	False	8	(-1.2791589238245313, 5.4829498541237776)	(-4.9743328219509166, -1.0594063139187515)	(2.9950019069910461, 7.2803186308895178)	(4.7489425304705488, 0.87274218074559151)	1.0	z	1.71759
31	N	B	M	B	A	M	A	N	N	8	3	shapes	B	0	False	8	(7.4849703474201874, 1.0176688241291654)	(-5.9736791057507901, 0.49620235566569271)	(-0.85981244516640576, 5.6370129783153935)	(4.1568424243724706, -5.770071711082057)	1.0	slash	0.891527
32	M	B	N	B					A	4	0	shapes	M	0	False	8	(-4.9351469498897753, 7.005609548506964)	(4.3752565352637571, -1.0953744570470958)	(1.6851109885582396, 5.1398726021941297)	(-7.6215272049636651, -0.99189357311726134)	1.0	slash	0.931075
1	N	A	N	M					M	4	3	shapes	M	1	True	8	(7.711912287245287, -2.7808087377914807)	(-8.6349125588529603, -6.7327005174109473)	(7.349516241146663, 6.2167728104978597)	(-8.6614265272453412, 6.3431793305870947)	1.0	z	0.758546
2	M	B	B	M					N	4	2	shapes	B	1	False	8	(-6.3563952741517129, -2.4744612710599885)	(5.2378012469124524, -3.0360569842136691)	(-5.7749181075056741, 1.6028085164444175)	(4.9995296419615958, 2.7974555300055837)	1.0	slash	0.896462
3	M	A	M	B	B	N	A	N	B	8	3	shapes	B	1	True	8	(7.9130735122283511, 2.9793683967953442)	(-5.9432805142559229, -5.6445948460419384)	(3.4195429273817055, -0.40700118641524696)	(3.2290143236422875, -6.3064624417839035)	1.0	z	2.18618
4	N	B	A	M					N	4	3	shapes	M	1	False	8	(-3.708466925121515, -1.5044229256698198)	(-2.2318454891157247, 8.0059406374585507)	(2.3708642801986048, 1.4509658092426605)	(7.2732257518382646, -6.1302094977111175)	1.0	z	3.46343
5	N	B	B	M	A	M	A	N	M	8	1	shapes	B	1	False	8	(-3.8701772410843844, 3.9777653797837065)	(-0.68099285444024815, -8.276479745545414)	(-0.43988682515126953, -3.0311763647018557)	(1.30375604141385, 6.5777589642141887)	1.0	slash	1.26311
6	N	A	B	N	A	M	B	M	B	8	6	shapes	B	1	True	8	(-2.6497541075239646, -4.8356804021537547)	(4.1791553682232401, 3.7807816677089559)	(7.8959953190649124, 1.9990502573849636)	(-5.3676426341784023, -0.36847628579818448)	1.0	z	1.5026
7	N	B	M	B	M	N	A	A	B	8	1	shapes	B	1	True	8	(-6.580242247236554, -4.3578311723231886)	(1.0779883348000716, 4.7208399139793382)	(8.2335739433035613, -1.4790526017444652)	(-5.7593393606480321, 7.0694018665901481)	1.0	z	1.03018
8	N	B	B	M					N	4	3	shapes	M	1	False	8	(6.7026878666868317, 5.5643646152975226)	(-0.95112117727846179, 8.4196252209671343)	(0.9001054752844535, -5.237508321461589)	(-5.1436555275812932, -5.522619509618508)	1.0	z	1.69789
9	M	B	A	M					B	4	1	shapes	B	1	True	8	(8.3324269738582721, 2.2943852617397908)	(-1.5661210729294668, -8.3447848618062199)	(-8.7395586764151432, 4.4449104286485941)	(4.0785008509545175, -5.9205838503745154)	1.0	z	1.23152
10	M	A	N	M					A	4	1	shapes	A	1	True	8	(-0.43931841919718373, -0.8556692849593448)	(7.9644056689216143, 5.7094688619819856)	(-8.2089614569340856, 8.571249756559304)	(5.0830823566689087, -0.063916492943558723)	1.0	z	0.851118
11	N	A	N	M	A	M	B	B	M	8	4	shapes	A	1	False	8	(7.1891170008305902, -6.993974640130979)	(-2.1456186366833894, -0.87264385996374738)	(2.6405327520162523, -7.8412168164949829)	(-5.2195856791081692, 3.8611122852490443)	1.0	z	1.69252
12	N	A	N	A	M	B	M	B	B	8	5	shapes	B	1	True	8	(-0.29800870380786826, 1.575062863553395)	(5.5921087300678991, -5.7277033589919935)	(-8.7348298320400009, 3.4409285650791261)	(5.3812918703398029, 1.570034949407189)	1.0	z	0.478027
13	M	B	B	M	N	A	N	A	B	8	1	shapes	B	1	True	8	(-7.2193412596532784, 2.5254334237053957)	(-5.4501245662776245, -6.2720653530747246)	(0.76528212022515696, 3.0994300939261255)	(5.5409869650593002, -0.19368751113340643)	1.0	z	3.20386
14	N	B	B	N	A	A	M	M	A	8	4	shapes	A	1	True	8	(7.3935495416086887, 0.16739867581671142)	(2.4137550737168763, 2.244498147444645)	(-5.1877580230484543, 0.39658452591992877)	(-8.5301950287032415, -2.074688201055233)	1.0	z	1.94355
15	N	A	N	B	A	M	B	M	B	8	4	shapes	A	1	False	8	(2.4004041611807203, 5.4543368899696336)	(-3.6549067338608126, -2.0156025949467784)	(3.8205733626274423, -7.6526978815942996)	(-5.3623615538850951, 2.3676061315855161)	1.0	z	5.57485
16	M	A	B	B	A	N	M	N	N	8	6	shapes	M	1	False	8	(8.4800895310947908, 2.695227858700143)	(-5.0958350845630562, -3.640787531603884)	(3.8354698328749901, 8.0399721857655813)	(-0.12013568312949552, 2.4664982870792809)	1.0	slash	1.31236
17	N	B	M	N	M	B	A	A	N	8	6	shapes	A	1	False	8	(0.34892915621829346, 4.0707612077678768)	(-2.3163041829898718, -3.3390534890940913)	(7.4850084718515113, 7.9872057370991136)	(8.1230665921300158, -3.259154920511703)	1.0	z	1.17385
18	M	A	M	B	N	B	A	N	M	8	0	shapes	M	1	True	8	(-0.33118434547805364, 2.3901803699600723)	(-0.18671612354264155, -6.9494824035671332)	(-7.8489506688621633, -4.023705612433897)	(2.3224659512702708, 8.3899617972339833)	1.0	slash	4.76745
19	N	A	M	B	A	N	M	B	N	8	0	shapes	N	1	True	8	(-2.6633125675837004, -3.7082816398691678)	(7.8626941200823843, 3.0197370023896966)	(2.190803305646579, 4.4563390054757193)	(-8.3202020041684932, -8.72420791546873)	1.0	z	1.34686
20	M	A	M	A					B	4	2	shapes	M	1	False	8	(1.774308263254742, 3.5203131089951096)	(3.331101086854769, -8.3727704747998626)	(-4.4911492430456175, 6.759985465799133)	(-4.929079760492467, -0.53726564276263744)	1.0	z	3.96846
21	M	B	B	M					B	4	1	shapes	B	1	True	8	(-6.3099091178096582, -8.130988554255655)	(1.6796258776072062, 6.9446261769484927)	(3.4305208401127771, -8.1048879828602391)	(-1.8303695972815808, 3.8415178625833342)	1.0	z	1.02382
22	N	A	A	N					A	4	2	shapes	A	1	True	8	(2.172983110701491, 3.1722698938327181)	(3.7467093118993091, -3.2533722005756012)	(-2.6813800736071798, 2.5944583205529206)	(-3.1117700028108386, -6.5259338318825)	1.0	z	0.613601
23	M	A	N	B	A	M	N	B	N	8	7	shapes	B	1	False	8	(5.1506144910667562, -7.683772920514178)	(1.5559492033221627, -1.2160034700905031)	(-5.3162753517213144, 8.1111703517843416)	(8.1541112282972747, 2.6305890959394276)	1.0	slash	0.88723
24	N	B	B	N					B	4	0	shapes	N	1	False	8	(7.0215612101490912, 7.4604341328425612)	(4.8805352451649764, -3.9905870497326523)	(-6.5312420562778035, 5.4354113061314049)	(-2.4214627054798861, -0.94948688670703607)	1.0	z	2.20871
25	N	B	A	N					A	4	2	shapes	A	1	True	8	(3.1898161317247684, 6.3342970615498437)	(-3.7511371741651116, 7.5227249452661731)	(7.1260177350978093, -1.0333157495922327)	(-6.8097379957193054, -6.8803830899289586)	1.0	z	3.03228
26	N	B	M	B	M	N	A	A	M	8	1	shapes	B	1	False	8	(-8.715902790282037, -2.4650976294951379)	(3.2244955750650881, 7.9510188309147374)	(2.6911539382705936, -1.5139645987193688)	(1.5390209155360886, 3.5995263533268442)	1.0	z	2.27791
27	M	B	N	A	A	N	B	M	N	8	6	shapes	B	1	False	8	(-7.544334203969485, 7.7711267258825352)	(6.0335802493672404, -2.5858367467329391)	(-2.171472490268445, 0.089841119382661816)	(-5.6021550968992297, -2.776050525706367)	1.0	slash	0.933322
28	N	A	M	N					N	4	2	shapes	M	1	False	8	(7.1527975276092626, 1.8970375297716249)	(-7.5628766676812793, -8.2194198034757999)	(8.7483912797653041, -3.3828961552469083)	(-2.1001700521133344, 2.911434126755438)	1.0	z	3.75702
29	N	A	B	B					M	4	0	shapes	N	1	False	8	(0.73388500920286326, -8.6412790536264765)	(-1.2808568731783527, -1.7695408385276954)	(-6.8636659319184794, 4.5704085686380189)	(7.1583570711331781, 1.3697566352091712)	1.0	slash	1.61639
30	M	B	N	B					A	4	2	shapes	N	1	False	8	(1.7181196214356014, -3.0377666010854893)	(-8.7021655028065243, -3.7201018582582517)	(3.0419946826114561, 8.3392523044289533)	(-7.1313555593130795, 4.0293427308153369)	1.0	slash	1.11209
31	N	B	M	M					B	4	1	shapes	B	1	True	8	(6.2116187130202789, -0.47231258956603206)	(3.3069291127928544, 4.64539991764509)	(-4.6614166887483313, 2.9654611188454627)	(-5.5726214980303554, -6.2781227565479831)	1.0	z	1.03762
32	M	A	N	N					M	4	0	shapes	M	1	True	8	(-1.879390330790895, -1.1851935784913952)	(-6.2247863155364396, 2.7409926292538582)	(7.9476815988283001, 6.5717761464052469)	(7.0168729444490072, -6.2105176038828116)	1.0	z	0.735339
1	N	B	A	M					M	4	3	shapes	M	2	True	8	(3.6910858748407183, 1.2911025547322694)	(-0.51335750750773457, 2.5170739762813152)	(1.1010197393774082, -7.8796226644216301)	(-3.7639231359680059, -1.6519654157098183)	1.0	z	0.755039
2	M	B	A	N	N	M	B	A	A	8	2	shapes	A	2	True	8	(6.8969030900681911, -0.60308314604656488)	(-4.7346405248126802, -4.6462463669628908)	(-2.2118254968275375, 2.9122106256141773)	(4.2630858356215349, 4.13941019200211)	1.0	z	0.344699
3	N	A	A	M					A	4	1	shapes	A	2	True	8	(7.634220336555348, 1.6994879006340007)	(1.3682472576997977, -3.9181199393499186)	(-6.5303425346070672, 7.5546590703072667)	(-5.8604753876328708, -2.3738604992616539)	1.0	z	1.48636
4	N	A	M	M					N	4	0	shapes	N	2	True	8	(-4.382465585204355, -5.7138354621001382)	(3.9919735160833234, 8.1605703313315416)	(-1.8336415456497877, 6.8349829683411745)	(6.6969350486029278, -2.4520992558347041)	1.0	z	0.720074
5	N	B	M	B	M	N	A	A	B	8	0	shapes	N	2	False	8	(-6.1906659879977219, -8.252747397772433)	(-8.1737108647913779, 4.4325381386139728)	(0.90388735561016276, 6.5413109655472716)	(7.8586594916229799, 7.7205619580222589)	1.0	slash	0.853463
6	M	A	A	B	M	N	B	N	B	8	3	shapes	B	2	True	8	(5.0061503901724969, 7.5747892306333817)	(-5.9306258948898947, -4.2378438340954467)	(0.17681836022507191, -3.9700382459817369)	(-3.8788897393838342, 0.97714463365911897)	1.0	z	2.07928
7	M	A	B	A	N	B	M	N	B	8	2	shapes	B	2	True	8	(-0.23518417966284844, -8.6511146834323682)	(4.4100693340012125, 3.9612828960234854)	(0.52150854607305952, 2.1993633580513805)	(-4.735713384691949, -1.7805223101873153)	1.0	z	0.580653
8	M	B	B	M					A	4	3	shapes	M	2	False	8	(-8.4657430915484326, 8.2356868565230066)	(2.8893612162930662, 2.5766370359331781)	(-0.20709228408723845, -8.4323798445697413)	(3.6668537571736337, -3.0324321934158425)	1.0	slash	0.930585
9	M	B	N	B					N	4	3	shapes	B	2	False	8	(-4.5554025663332638, 4.1006462371226835)	(3.0442955410098484, -5.3049148781148876)	(1.0290952205832529, 1.1558522657574812)	(-6.0479513876465081, -7.0141038178847541)	1.0	slash	0.738128
10	M	A	N	B					B	4	1	shapes	A	2	False	8	(8.1625015670981469, 8.4983667724719893)	(5.3713890861243012, -3.4392080542558778)	(-6.9789177934544639, -7.6480441361585374)	(-0.62698429196637484, 6.3926744087132885)	1.0	slash	0.767844
11	M	B	B	N	M	A	N	A	A	8	7	shapes	A	2	True	8	(0.024686252626510807, -2.2653587292459374)	(-7.1634332003113652, -7.0963595817036698)	(8.1758842211643206, 7.8930032583697596)	(-2.573407839702476, 4.3309286466784513)	1.0	z	2.67544
12	N	B	B	A	M	N	A	M	A	8	7	shapes	M	2	False	8	(-1.4655923393084178, -8.631511690387681)	(-4.066816523490739, -4.0563499381058366)	(0.99109276995289974, -2.238126206601593)	(5.1076203055396174, 3.7153460937429124)	1.0	slash	1.05691
13	N	A	A	M	M	N	B	B	M	8	2	shapes	A	2	False	8	(6.43774846311746, 5.3002137372280167)	(4.2443568343782445, -4.8046105853803907)	(-4.2667246191261317, -2.827821214322344)	(0.042846067660699205, -4.88707871572662)	1.0	slash	1.32264
14	N	B	M	N					N	4	0	shapes	N	2	True	8	(1.3705313723144688, -0.60064601730399225)	(7.491872505983121, 4.5323049493637892)	(-1.6990700704367798, 3.0415817311503766)	(-2.9391951049906062, -4.7189224462296036)	1.0	z	1.04413
15	M	A	M	N					A	4	1	shapes	A	2	True	8	(-0.41944477273912284, -5.4183043110084501)	(4.8800218725186113, -7.8569103556257813)	(-1.9413597945695473, 7.2031255303870019)	(7.8079580104837092, 2.2038673313153794)	1.0	z	1.81386
16	M	B	N	N	B	M	A	A	M	8	0	shapes	M	2	True	8	(-6.263915301235909, -7.3855902871540042)	(7.6560252399950812, 8.3348320955640709)	(-4.5064321772052516, -1.1015974440543941)	(5.1725830966396611, -3.9332065277772053)	1.0	z	1.37546
17	M	A	M	B	B	A	N	N	B	8	7	shapes	N	2	False	8	(-1.6792500749591435, 0.068188653024090939)	(-7.6732535751801372, 1.7551055164367835)	(3.7802800281997957, -1.822054726381344)	(-1.1857628317761773, -6.0079633218004993)	1.0	z	1.18502
18	M	B	N	B					N	4	1	shapes	B	2	False	8	(4.000372182247812, -6.6584795167075352)	(-1.4099907608791851, -5.3063104410359765)	(7.6920929701570344, 8.0355780671882577)	(-7.3554399333911356, 5.0394932340206466)	1.0	z	0.494514
19	N	A	B	A					A	4	1	shapes	A	2	True	8	(8.5794130800032455, 8.6034926920711854)	(7.155366718090244, -2.1413851682821301)	(-8.5685423407055037, -1.0465558095624132)	(-1.8392728624611632, 8.2712277537440677)	1.0	z	0.870408
20	M	B	N	M					B	4	1	shapes	B	2	True	8	(1.3549649572326299, 5.2084196540976091)	(-2.7318524322434099, -0.68095478083766281)	(-3.5973447081336545, 5.4851827223781857)	(1.3995428542644905, -7.7144909073183463)	1.0	slash	2.80192
21	M	B	M	B	N	A	A	N	M	8	2	shapes	M	2	True	8	(5.8146844410537852, 6.0913539176451401)	(6.6102588513389744, -4.4025849614803656)	(-6.6760624809470492, 1.7052550814229157)	(1.3561698900209294, 8.4293241006087563)	1.0	z	4.9174
22	N	A	B	M					B	4	0	shapes	N	2	False	8	(-8.5156128209167186, 0.51109014689513543)	(7.9275089319878269, 4.901188488905845)	(5.7899193590435729, -7.5714181090339991)	(-1.1849975412015938, -3.5147433075024228)	1.0	slash	1.51083
23	N	A	M	M	B	B	N	A	A	8	3	shapes	M	2	False	8	(-1.3044761258720818, -5.3226534703328339)	(-3.4730372011983963, 2.91389362604464)	(3.5895599756976964, -8.6017866876258484)	(5.4730135421175916, 3.8115624421100698)	1.0	slash	3.59639
24	M	B	A	B	M	A	N	N	M	8	0	shapes	M	2	True	8	(2.6499727189941087, 1.989060556294806)	(8.0561899426251244, -2.0266241865848773)	(-3.6539829180119581, -2.6516877717096072)	(0.0039709002053545106, -4.9420622202105724)	1.0	slash	4.92963
25	N	B	B	M					A	4	1	shapes	B	2	False	8	(-3.4943983975069068, 8.5725573804868951)	(-5.9572314581722576, -5.5198041151291735)	(7.2876231279017176, -3.2443899602010342)	(1.0220059698483333, 7.8462633591071835)	1.0	slash	1.04129
26	N	A	A	N	B	B	M	M	M	8	1	shapes	A	2	False	8	(3.53208923390123, -6.0862387441088979)	(0.61748257780893034, 7.5783301048208109)	(-6.1923452884482622, 6.4708071677035672)	(-3.0675470200496102, -6.093891693341881)	1.0	z	1.46103
27	M	A	A	M					A	4	3	shapes	M	2	False	8	(3.2870895559062134, -2.2755461234193435)	(5.478187170282526, 8.6515997851700241)	(-0.43109511818617285, -6.6862776067429408)	(-0.36299066527079127, 2.69490070710048)	1.0	slash	0.658511
28	N	B	A	N					N	4	3	shapes	N	2	True	8	(-2.6563832853981282, 3.5427998149840647)	(6.7839723663921401, 2.2767333930355065)	(3.5302841017703717, -8.6551692234108124)	(-5.1203943180031732, -1.3755555575617171)	1.0	slash	1.68008
29	N	A	N	M	B	A	B	M	M	8	3	shapes	M	2	True	8	(8.4141501586929799, 0.88820438562754056)	(-0.34870449957312921, 3.3434810278033744)	(-7.1566081728194737, 5.7785400396780169)	(-8.739010209683002, -8.0822653674500646)	1.0	slash	2.10962
30	M	B	M	N					B	4	2	shapes	M	2	False	8	(-5.6888516847515369, -6.2661854107780242)	(8.2398877808287807, 0.68705384277448367)	(6.0937686841507244, -7.9446794224713129)	(-7.5368691430921562, 4.778602076786834)	1.0	slash	0.905098
31	M	B	M	N	N	B	A	A	M	8	5	shapes	B	2	False	8	(7.4499149495983374, 7.061773708081315)	(-7.769050105503343, -5.5666793370044783)	(8.41912304955585, -6.6002744555811965)	(-1.9249302632282985, -2.7812292599491499)	1.0	z	1.65682
32	N	A	B	N	M	M	A	B	A	8	2	shapes	B	2	False	8	(6.8981084379546473, 3.3348932186689542)	(-4.4117302474143845, 1.0676249242580536)	(2.8340338209838123, -4.8848740677298785)	(-6.7056857399918615, 5.6033959127417798)	1.0	slash	1.07446
1	M	B	B	N					N	4	3	shapes	N	3	True	8	(-1.7240259171589907, -4.0688993286822228)	(-5.9396546307937808, 5.7921985378449712)	(6.5781382219633411, -6.4828647454037966)	(8.4245827250484595, 4.9757269632659344)	1.0	z	1.00816
2	M	A	N	M	A	B	N	B	A	8	1	shapes	A	3	True	8	(1.4891036980146541, -3.6089565677588888)	(-5.058534704177001, -3.7958806850840379)	(6.1870253069347978, -5.101366744871922)	(6.751382851207433, 4.8542282754150552)	1.0	z	1.93169
3	N	A	A	M	M	N	B	B	B	8	6	shapes	B	3	True	8	(6.4473544183398328, 6.2232026799108571)	(-7.2439479775763669, -4.495791725260319)	(1.0022315270124125, 0.40893936083770832)	(0.15927652527791558, -4.2871334102810028)	1.0	z	0.533281
4	N	A	M	A	M	N	B	B	M	8	6	shapes	B	3	False	8	(-0.71465908123915511, -4.0161868796018965)	(6.6854207795486129, 7.1160993536535297)	(0.5568842091990085, 4.3748003338211863)	(-8.0465431283338624, 4.5549866458619608)	1.0	slash	0.903
5	N	A	M	B	B	M	A	N	A	8	7	shapes	N	3	False	8	(8.5973834811795697, 7.1097899685085899)	(-4.7085505864608708, 5.1010689315919784)	(1.7064083088024784, -6.6513317710739912)	(0.12802927436171352, 1.2873111956765815)	1.0	slash	2.89458
6	M	B	N	N					N	4	2	shapes	N	3	True	8	(1.2596873304656899, -2.7343983867418267)	(-4.1238298150575234, 5.0247630322580061)	(-1.8149111939993334, -5.8602027457743997)	(0.37007596315773306, 5.4321293974015852)	1.0	z	0.758058
7	N	B	M	M	N	B	A	A	B	8	5	shapes	B	3	True	8	(6.4663126203715091, 5.5564852469731481)	(-5.6062647438646529, -6.7108921655213107)	(8.6106284574798657, -6.5224581384397657)	(-5.0817275993366149, -1.2575579717418206)	1.0	slash	1.09972
8	N	A	M	N					M	4	3	shapes	N	3	False	8	(4.4874092058138473, -6.5264874663537089)	(1.7098450253454622, 5.3296946305363733)	(-3.9602040625666355, 0.51995983807549884)	(-1.1437986037220531, -7.1559051355693795)	1.0	z	2.21718
9	M	A	A	B	M	B	N	N	A	8	6	shapes	N	3	False	8	(-3.7772250568949612, -4.7258599254268177)	(-6.3422005705891511, 6.2239297658654085)	(7.3080304264429294, 4.1538734611267589)	(7.6570647020339422, -8.0228034038847635)	1.0	z	1.77092
10	N	B	N	A	M	M	A	B	M	8	3	shapes	A	3	False	8	(-6.0729525891969587, 0.9502683634551623)	(5.0507328238698879, -3.9538747798956839)	(-4.5442738085577288, -3.1228327820643882)	(-1.713187096503046, -0.26190779830489674)	1.0	slash	1.59057
11	N	A	B	A					A	4	1	shapes	A	3	True	8	(7.6430043954503937, 6.9279620102958468)	(1.0982599655836403, -6.4420399391499314)	(-7.6498622216662957, 0.29105918536100894)	(-2.4595854051533523, -1.034747548033967)	1.0	z	1.98606
12	N	B	A	N	B	A	M	M	M	8	6	shapes	M	3	True	8	(1.6793149651888868, -5.040405663306176)	(-0.62627563584997148, -1.5456907362281695)	(-4.6513234255658134, 5.2067993872831408)	(2.7705348796808664, 8.2742668821568479)	1.0	slash	1.48116
13	N	B	M	N					B	4	1	shapes	B	3	True	8	(-5.0466299748819301, -3.7922741623290328)	(0.35882071835601081, 2.8295603998057004)	(2.6743751185567461, -1.4127534061214924)	(-6.2968138937841243, 2.0980580027603875)	1.0	slash	1.57122
14	N	A	A	N					N	4	1	shapes	A	3	False	8	(-0.27397483699409264, 4.2224002106388561)	(-6.3280967399536081, -4.2211514724013828)	(7.5637720229272496, -6.0748790640083152)	(4.2198422978917467, 1.5538006215045268)	1.0	z	111.992
15	N	A	N	B	B	M	M	A	A	8	1	shapes	A	3	True	8	(7.4460581653856401, 0.6297453072307615)	(-2.4274262071414459, 3.6308771869101157)	(7.388655214540286, 8.0515678210861097)	(-7.1963112560901354, -3.5108324235632216)	1.0	slash	1.19153
16	M	A	B	B	N	M	A	N	N	8	6	shapes	A	3	False	8	(0.96493221440252519, -5.7888861028268312)	(8.0866328698446424, 5.6643834003009701)	(0.30115970755248966, 0.55683209215266771)	(-4.3693444316679226, 7.2608301206325656)	1.0	slash	0.884941
17	N	A	N	A	B	M	B	M	N	8	1	shapes	A	3	False	8	(-6.2051026047415476, 5.9098198032657319)	(3.6090007838535669, -1.4412068517481504)	(0.72458626740510823, -7.2803198094318073)	(-8.3163838199811071, -5.0287369909769017)	1.0	slash	0.512594
18	M	A	A	N	B	M	B	N	M	8	2	shapes	A	3	False	8	(0.61300752989786034, 2.3777952068653487)	(4.8767879112152883, -1.5491384473172145)	(-4.6623823953844079, -5.3598830954108987)	(4.1199583534386903, 6.6847006905625328)	1.0	slash	1.80619
19	M	B	M	B	A	N	N	A	B	8	3	shapes	B	3	True	8	(3.2183368432525761, 5.7055390753127675)	(-3.5378461987305201, -8.7154269969106135)	(-5.2020185128920495, -0.87365367423122908)	(-8.383814989039541, 7.5390686180133351)	1.0	z	0.921848
20	N	A	M	B					M	4	1	shapes	A	3	False	8	(4.9794179224809092, 0.28517325596758702)	(3.7384925925017267, -8.2245460886381281)	(-5.0041262347904096, 8.6109237160512215)	(-0.26589965760360101, -5.1255698917932007)	1.0	slash	1.21961
21	N	B	M	B	N	M	A	A	A	8	6	shapes	A	3	True	8	(-0.6063565124474124, -1.7061314683927096)	(-7.4711316678763531, 6.8199979270238611)	(0.95775009430585101, -6.957504404717195)	(0.90801202162311156, 8.3818539097059421)	1.0	slash	2.05327
22	M	B	N	M					A	4	0	shapes	M	3	False	8	(8.0515663329605331, -5.6694155381131077)	(-7.4819235676895604, -3.6832010357848741)	(5.6324647694020094, 7.5906793749541457)	(-5.0197582897184363, 6.82797941860143)	1.0	z	0.980625
23	M	A	A	M					M	4	0	shapes	M	3	True	8	(0.58965247426988299, 6.7153860453963699)	(-0.54293503647396157, -2.7349140354523236)	(7.4322075296631525, -4.2019960005015378)	(-3.9500665291609209, 4.0695404482647817)	1.0	z	2.50652
24	N	A	A	M	N	B	B	M	A	8	2	shapes	A	3	True	8	(3.7877635841077044, -1.6308603080934656)	(5.5875172196295146, 4.2994024432652758)	(-1.8091672832871168, 1.4025131666099178)	(0.76855593817801271, 7.2884762860476826)	1.0	z	2.50594
25	N	A	A	B	B	N	M	M	B	8	5	shapes	N	3	False	8	(-3.2767777696176212, 7.2029069071080087)	(1.6459288636909246, 4.8445465921723212)	(6.5277532143446297, 7.8492125893183626)	(-2.4458951332918701, 0.00081998947172401415)	1.0	slash	3.26545
26	N	A	A	M					N	4	0	shapes	N	3	True	8	(-3.0366177359046675, -7.4973833508253076)	(-2.5447976027913679, 4.4631980738938548)	(7.2434723261934462, 2.2592053363228022)	(8.5713035704669487, -5.8759243923280211)	1.0	z	5.99087
27	N	A	M	M					M	4	2	shapes	M	3	True	8	(-7.1465919323433011, 6.8046228093120948)	(1.3818257954305988, 4.035644584673431)	(3.9018167015891532, -4.8683103961258674)	(-7.8864151919266652, -8.1675052946625044)	1.0	z	2.11416
28	N	A	A	M					A	4	1	shapes	A	3	True	8	(6.9288188553339332, 7.3363894979800044)	(-0.608467704172865, -8.1589675805443349)	(4.8660945891631844, -8.6647155546496553)	(-3.4746075589607246, 1.4787308001879431)	1.0	z	4.17352
29	N	B	M	B					A	4	2	shapes	M	3	False	8	(-4.8618043641534543, -5.0127114914955149)	(5.1428489783655511, -6.7539546425430501)	(-4.3070115584000161, 4.1271487303891572)	(4.7968256039092427, 5.4457799039977886)	1.0	z	4.01918
30	N	A	N	A					B	4	1	shapes	A	3	False	8	(-0.50549686616474432, 4.0248902804417135)	(-0.79749200357792827, -4.8800058260301693)	(7.5572049039675377, -8.2858569015851131)	(3.8782272152968957, 0.090039654665467594)	1.0	z	2.34466
31	N	A	N	A					M	4	0	shapes	N	3	False	8	(0.12231117803447233, 8.2587179578930545)	(-0.99872652371930215, -2.275313050955976)	(5.2019696886860789, -1.9363633786740033)	(-5.8892584770450629, 6.1752434242473431)	1.0	slash	1.18995
32	M	B	A	A					M	4	2	shapes	A	3	False	8	(-6.9325116759725338, -0.37840554534398407)	(4.0278027002769381, -6.5160821498859018)	(-2.4306793344230062, 3.718522027252229)	(4.9102805584800837, 2.6724510394954546)	1.0	slash	0.929717
1	N	A	N	A					B	4	3	shapes	A	4	False	8	(-4.7238249036928019, -0.93868964898580742)	(2.9518948657209894, 2.3003682416061189)	(5.281736244607659, -8.4282116434708048)	(-8.0366688536964972, 6.3204629616332664)	1.0	z	1.07746
2	M	A	N	B	B	A	N	M	B	8	4	shapes	B	4	True	8	(6.7281618232079818, 3.71994616532103)	(-2.6718760144049343, 3.6034320742385955)	(-4.2953193410702637, -6.1046887125502352)	(7.9582311355314737, -0.43803926089869449)	1.0	slash	5.11489
3	M	A	N	N					N	4	3	shapes	N	4	True	8	(-5.2484126603579844, -5.273562565696345)	(-8.6613984567293283, 2.4711470715296571)	(0.74729179280051561, 7.5960225470177996)	(1.7052125691674949, -6.8397224577988247)	1.0	slash	1.39018
4	N	A	M	B	B	A	M	N	B	8	3	shapes	B	4	True	8	(-4.1972633596841007, 0.81604807156664272)	(1.7240526885591176, 5.5580360169052039)	(-2.4627745422764464, 6.2607361883502755)	(-0.31071606727286749, -4.3106800955480091)	1.0	slash	11.7576
5	N	B	M	M					A	4	0	shapes	N	4	False	8	(-7.9629200116941847, 3.188285217748918)	(1.2901642788377092, -1.3241211959560415)	(3.4641774516561785, 8.1747747406577069)	(-3.7372513446867464, -4.7710790505198917)	1.0	z	0.870862
6	N	B	M	M	N	A	A	B	A	8	5	shapes	A	4	True	8	(-5.8011324046664727, -3.5180871188277605)	(8.0134869394048209, 6.9506838763825929)	(2.9480487497531218, -6.8108515392329236)	(-3.2427099939347821, 3.0080070677369939)	1.0	z	1.09239
7	M	B	M	A					M	4	1	shapes	B	4	False	8	(-2.8536682001755533, -7.1370054839205865)	(-8.5200950096012384, 3.8850811594308574)	(3.831485784710825, -8.6133053371619184)	(3.1683555540885457, 4.7974718853712375)	1.0	slash	0.668057
8	M	B	B	A	M	N	N	A	B	8	6	shapes	N	4	False	8	(0.46349093928522755, -4.0255930563141371)	(5.6011013166131267, 3.6571528341471495)	(-8.6568341227610759, 5.6734933964374363)	(-7.3130823768975795, -8.1353064868240796)	1.0	slash	0.811677
9	M	A	M	A					A	4	3	shapes	A	4	True	8	(-3.9837454252323168, -7.972769287852012)	(8.6917164205711686, -0.1854779088648062)	(0.059669103043644256, 6.3301452858501452)	(-5.2913691569642571, 0.81551612535113804)	1.0	z	1.33118
10	M	B	A	B					A	4	2	shapes	A	4	True	8	(3.468928594655063, 6.6144673612312932)	(-0.29758316164665111, -6.478623800326595)	(8.1933556633761491, -6.2820181694252746)	(-8.1158157326923668, 5.9338834025712455)	1.0	slash	0.75511
11	M	A	A	B					B	4	3	shapes	B	4	True	8	(-0.67859878394221163, -7.7455174809946374)	(2.64590631833053, -4.2065718832132601)	(-6.5923241798132732, 5.0346617210238893)	(8.4434881852482206, 6.4159461027099898)	1.0	z	0.734624
12	M	A	N	N					N	4	2	shapes	N	4	True	8	(-6.2194813066319661, 0.16585759733149885)	(-1.6917091551661194, -1.1626279286375576)	(3.9611905461033068, 3.3909535208162751)	(7.7710252247411979, -8.6742168438201244)	1.0	slash	1.50229
13	M	A	A	B	N	B	N	M	M	8	6	shapes	N	4	False	8	(-5.8744071932765873, 5.4311001034328541)	(6.8686929605373539, 3.9624519139868077)	(2.6843235403272239, 0.68348942149594194)	(-6.6500977107244363, -4.4021979565545397)	1.0	z	1.25185
14	N	A	B	A	B	M	N	M	M	8	5	shapes	M	4	True	8	(0.83300469904902208, -3.4260601975666427)	(-7.7269039536798827, -7.0444333629939333)	(2.3274463502261291, 5.7578880075633734)	(3.6377000753319582, -6.4236538080063035)	1.0	z	2.70942
15	N	B	A	N	A	M	B	M	B	8	4	shapes	A	4	False	8	(3.2073180749544097, 4.9183975715000123)	(-6.6967918823066377, -1.7805851610936276)	(-6.3660141601152542, -7.3557867984191061)	(3.6820760504981376, -8.1296081478748761)	1.0	z	1.1091
16	N	A	N	M					A	4	1	shapes	A	4	True	8	(-2.1135645757836024, 0.16526689662004301)	(7.6384995579581769, -4.1133423576817023)	(3.8533904671685821, 7.3275029129844214)	(-4.2765513785252143, -4.0665442366196212)	1.0	z	1.3526
17	N	B	B	M	A	N	A	M	M	8	6	shapes	A	4	False	8	(7.1531087685636319, 0.19349464070730527)	(-7.9814972716167318, 2.9214412698171977)	(-6.2862623126895869, 8.0217241580744236)	(-3.0016937841877844, -8.4407441456421282)	1.0	slash	1.13408
18	N	B	N	A	A	M	M	B	A	8	1	shapes	B	4	False	8	(-1.8669036568429043, -6.3678651484894928)	(4.9052578720294537, 3.2511555713830553)	(2.3075853584879873, 8.1091524110290472)	(-1.1856476274216075, 5.5421749568324099)	1.0	slash	0.99188
19	N	A	N	M					A	4	3	shapes	M	4	False	8	(2.3745500330631497, -5.792827613292765)	(6.0255833512624317, 0.30833181386012853)	(-0.044581808983540583, 0.91078251065381188)	(-6.3577284264572587, -5.5890912402535333)	1.0	slash	1.13143
20	N	A	B	B					M	4	0	shapes	N	4	False	8	(-8.2088080389284226, -4.9847231260017217)	(-1.6681945061895842, 2.564942098011862)	(3.5744270415035295, 4.1936288808477933)	(8.1838897472957512, -1.7042684874101974)	1.0	slash	1.23514
21	M	B	B	M	A	A	N	N	A	8	4	shapes	A	4	True	8	(2.5893256896850616, -3.8606319196025476)	(-0.32781213592467573, 8.5842585185717724)	(7.9238690693380036, 0.52086881993001732)	(3.8440509076984402, 7.3594877514565589)	1.0	z	1.56882
22	N	A	N	B	B	M	A	M	N	8	7	shapes	M	4	False	8	(-1.7620706162985682, 2.0832402142137294)	(-7.9621993211254445, 7.2741416485469976)	(4.1226957182251827, 5.549148522947327)	(3.5020555492737504, -8.1194102185203985)	1.0	z	2.04427
23	N	A	A	N					N	4	2	shapes	A	4	False	8	(7.7583206430648985, 3.0047954963747774)	(-5.7672937319721589, 5.2642588307699416)	(2.0292430446868259, -3.8027102324296544)	(-5.7757173795124768, -2.7550043500217409)	1.0	z	1.62195
24	M	B	B	N					A	4	3	shapes	N	4	False	8	(2.8757665092016271, 2.1811182249101755)	(4.3067572598347574, -8.6327971233958358)	(-0.40742425462627807, -7.1328620375746477)	(-0.21131548044360926, 7.9311357085560168)	1.0	z	2.6015
25	N	A	M	N					M	4	2	shapes	M	4	True	8	(5.4557294381935915, -4.7129990758335758)	(-5.1957281199827481, -0.28941169403939426)	(-2.972886181320332, 6.1852326943369622)	(6.5705486853061199, 2.0221445706664252)	1.0	z	1.40298
26	N	B	B	M	N	A	A	M	B	8	1	shapes	B	4	True	8	(6.8313432813786168, 2.5319383305208376)	(3.7599686181244625, -2.5632079373211631)	(-0.94058313782469938, 4.9204253474625173)	(-3.709840250129, -0.032871651038892225)	1.0	slash	2.94253
27	M	B	A	A					A	4	3	shapes	A	4	True	8	(-0.58209222700631003, 5.3588035059456693)	(5.5405076131640687, -1.4560518997119614)	(8.0276988017323703, 3.052472017004261)	(-7.0234938107164613, -0.17112578117179034)	1.0	z	2.068
28	N	B	B	N					A	4	1	shapes	B	4	False	8	(-8.2425771194548361, 0.43392417107153136)	(3.8099034850890554, -0.099903528864972557)	(-6.1011821858764455, -3.0096480870269033)	(0.99012407051682949, 2.9588527068136923)	1.0	z	3.31954
29	M	A	A	B	M	B	N	N	M	8	4	shapes	M	4	True	8	(-0.49823987619260457, -7.0845340340453085)	(-5.4193297245273548, 1.7781349950405936)	(4.6690614058745084, 3.9187827516277132)	(-0.43975771242021722, 7.4002289060999971)	1.0	z	1.46101
30	M	B	M	B	N	A	N	A	M	8	2	shapes	M	4	True	8	(-4.4087881389542822, 5.7010237828432153)	(3.3347079673433004, 6.1378156365724568)	(2.6290371987440952, -0.85944245853618018)	(-8.272356328973661, -2.1924962998990001)	1.0	slash	1.26864
31	N	B	M	B	A	A	M	N	A	8	7	shapes	N	4	False	8	(1.7857423385204463, 8.4060721077227534)	(3.5409205419084717, -7.3559266849555005)	(-6.6780547512760648, -5.5691924349045756)	(-7.1914151148409911, 2.5133315211184684)	1.0	slash	1.1483
32	M	A	A	N	M	N	B	B	N	8	2	shapes	A	4	False	8	(7.2621600030603872, 5.6381900412465189)	(6.4478399956226102, -5.9669066980570582)	(-8.3454159092260696, -2.3680970169337394)	(-2.0666267794160085, -6.7733408325492945)	1.0	slash	1.22797
1	N	B	N	B					B	4	0	shapes	N	5	False	8	(1.559612209166481, -6.8178543425763172)	(-8.4851832179166511, 2.1987487545509357)	(6.1646121097261695, 2.7123331960625237)	(-2.6211433851084394, -6.3623039719410652)	1.0	slash	0.971618
2	N	A	A	M					N	4	0	shapes	N	5	True	8	(0.38284626929734245, 4.992372730219083)	(-5.8651556006087642, -0.50067457265543425)	(5.2284186343462089, -8.5630921474825055)	(-6.1121721073204824, 5.4514531702308187)	1.0	z	1.44322
3	N	B	B	M	M	N	A	A	N	8	7	shapes	A	5	False	8	(-6.2124937869465775, 6.4477918191293124)	(-7.1990203221005906, -2.271270329066807)	(7.4355749889936149, -5.4800253451978556)	(-6.0273111865203246, 1.5759241679649598)	1.0	z	2.72615
4	N	A	A	M					A	4	2	shapes	A	5	True	8	(5.7832387669550993, 7.4513516235065467)	(-7.3716643497217609, 7.7523587775833143)	(1.3242317980983458, -1.6754457512305443)	(-8.0346965269469433, -6.1927121020971398)	1.0	slash	2.87226
5	N	B	B	M	A	N	M	A	M	8	6	shapes	M	5	True	8	(-6.3927361560669809, -0.65354014288244322)	(-2.7840144763043062, 4.4755768686672415)	(7.0108441944392865, -1.6781557781572527)	(-2.5946070734042062, 8.5173230748882602)	1.0	z	4.29172
6	N	B	M	B					M	4	0	shapes	N	5	False	8	(-3.2264149909522448, -8.4835718100031858)	(7.4847023593187352, 3.198372394975026)	(-5.8080345365162156, 0.10255374360486869)	(4.1746940512572532, -1.294919106530708)	1.0	z	3.12307
7	M	A	A	N	M	B	B	N	B	8	6	shapes	B	5	True	8	(-4.9596927244031974, 7.7768214304750138)	(5.4981921069874637, -0.40059787376791256)	(0.15747114065206702, 7.9543622616984742)	(2.0552803798844881, -8.1973212406635128)	1.0	z	6.11866
8	M	A	A	M	N	B	B	N	M	8	4	shapes	N	5	False	8	(5.84140886172632, -4.2456446598820436)	(0.9635759631146481, 0.057232080819336062)	(-0.097479608973193521, -4.0591593205889032)	(5.4337467022417343, 1.7452798748310681)	1.0	slash	6.26775
9	N	A	A	B	N	B	M	M	B	8	2	shapes	A	5	False	8	(-3.6028466934774066, 7.6866058542827247)	(2.7491894643824253, 3.1084521451286093)	(-2.1080058728770634, 2.2003039199094641)	(1.2594586075459144, -0.97850293015624157)	1.0	slash	1.33095
10	M	A	N	N	M	B	A	B	A	8	1	shapes	A	5	True	8	(6.6559094333423214, 4.9161059182746172)	(0.1312798064446401, 3.357663386869751)	(-2.3677955366384413, -0.64649701204416665)	(0.34487064979044391, -5.5875829869686005)	1.0	z	1.20472
11	N	A	A	N					A	4	2	shapes	A	5	True	8	(0.15279956526491922, 5.7058660593661852)	(-4.804539527616063, -3.8164425343501254)	(6.2735348379231972, -3.220126077462683)	(-5.5817307322531775, 6.6309041886722895)	1.0	z	1.47841
12	M	B	B	A					N	4	1	shapes	B	5	False	8	(3.0156923159983666, 8.5944816869553726)	(6.5775390651643288, -6.6602193955309126)	(-2.6489310450628105, -5.2116725490344002)	(-3.7519931007505152, 4.8220202794092959)	1.0	z	7.22382
13	N	A	N	B	M	M	B	A	M	8	5	shapes	M	5	True	8	(2.6112541787797419, -5.5523233724752341)	(-3.9456770401244494, -7.9079706372101235)	(1.6939985586173059, 5.3171651819229648)	(-5.7984008010053545, 0.84821058977280295)	1.0	slash	1.60704
14	N	A	A	N					M	4	2	shapes	A	5	False	8	(5.908384938249597, 4.8145552615812797)	(-0.35934792419372386, -3.5184749232261314)	(4.0105569602318205, -1.8229142151233306)	(-1.615318550128312, 6.4253188544484328)	1.0	slash	1.26266
15	M	A	M	N					M	4	2	shapes	M	5	True	8	(1.8127418958738666, 2.6283734672530397)	(7.7970007438404032, -6.8836036614511382)	(-1.7258135087178985, 0.0099940881811022564)	(-4.5627390125292662, -2.8667509543898628)	1.0	z	1.7083
16	N	B	N	B	A	A	M	M	M	8	7	shapes	M	5	True	8	(5.9206709632453975, -4.1742357934156749)	(-0.78568801628804863, 6.0601568007883966)	(7.0895731498572374, 0.19284281939191494)	(-2.9044612292024095, 1.2716119716160161)	1.0	slash	1.43383
17	N	B	M	B					M	4	2	shapes	M	5	True	8	(8.485300586218802, -5.5628718598704152)	(4.3305459450565671, 1.2254764674368772)	(-2.9386713229711345, -6.3339829271199086)	(-4.1574446034653931, 4.8701582787414885)	1.0	z	1.0614
18	N	B	A	M					M	4	3	shapes	M	5	True	8	(1.8442817356294885, -4.6039165774265802)	(5.2594749935771947, 3.949316176431152)	(-5.7910131422837612, -5.7703532042910064)	(-7.3814352550134634, 2.3393850976600117)	1.0	z	1.107
19	N	B	M	A	B	M	N	A	B	8	0	shapes	N	5	False	8	(7.2201905443712846, -2.2018443128830745)	(7.957701445204016, -8.6567548753313446)	(-7.4378241698047596, 2.4524643485630104)	(-0.20497559954818456, -1.8162932950736543)	1.0	slash	1.12254
20	N	B	N	M					N	4	2	shapes	N	5	True	8	(-5.9544615790103732, -4.5602995612531423)	(-4.7954120520015469, 1.6728007559211502)	(6.6578439173508421, 3.5495408399654824)	(1.6342884408808782, -1.1340638651074801)	1.0	z	1.42834
21	M	B	A	A					A	4	2	shapes	A	5	True	8	(-0.42304942174499871, 6.95829668094194)	(2.0594217753946626, -5.7648541972173444)	(7.5086209247916926, 1.7765132395377119)	(-1.6586140771519258, -7.9523786815322808)	1.0	z	1.25595
22	M	A	A	B	N	N	M	B	A	8	5	shapes	N	5	False	8	(-3.5040005414329976, -7.7207284942976031)	(1.3242475262084898, 4.6706510792061717)	(6.459549944065472, 4.1281074020207669)	(1.4734294578016893, -2.5435022369616807)	1.0	slash	1.00955
23	N	B	M	N					A	4	2	shapes	M	5	False	8	(-8.3008851026502857, -2.3820440613719045)	(-5.7007876452422774, 7.3179951028453267)	(1.4894772024120968, -5.7167629943236689)	(4.9745901888343411, 4.1122760273356178)	1.0	slash	1.03325
24	M	B	M	N					M	4	1	shapes	B	5	False	8	(7.3818703485835115, 0.34064010035399228)	(-8.5883731974075843, 4.0405850278299287)	(-8.6494726956570513, -4.1374328780852974)	(4.84488994482248, -3.1193755942792567)	1.0	z	1.63714
25	N	A	A	N	B	B	M	M	B	8	6	shapes	M	5	False	8	(-4.8837218262384932, -7.088478995185044)	(7.162927075443946, -3.8335531050799805)	(0.84669000537723882, -3.7761614856463321)	(2.3654061183622375, 5.9307963476839767)	1.0	slash	1.69869
26	N	B	N	A					B	4	2	shapes	N	5	False	8	(3.1102452292306353, -1.9522261842141599)	(-7.2293740902894275, 2.8755165028792788)	(4.4466985555305314, 7.943279627091286)	(-1.235484090387601, -6.870421684317483)	1.0	slash	3.46398
27	M	B	N	A	A	B	M	N	A	8	2	shapes	N	5	False	8	(-0.24456286914264069, -7.4465787874861249)	(-5.2875526950005405, -1.0732051536504379)	(5.75787943355561, -0.94911878565440677)	(-1.4675766447694985, 2.8061874388538044)	1.0	slash	3.26356
28	M	B	M	N	N	A	A	B	M	8	2	shapes	M	5	True	8	(6.3900504449531486, -4.520323583167138)	(-3.5191767058244396, -3.7314624804568286)	(2.2514769849131575, 5.74955025987121)	(5.2756983757672433, -0.49733997693710563)	1.0	slash	1.47896
29	N	B	B	A	N	M	M	A	N	8	0	shapes	N	5	True	8	(6.9439978877543957, 6.6298939881018661)	(1.8969844646924159, -2.4160795470348422)	(-2.8879400005258651, 3.919918491927298)	(-7.9620162375739278, 5.0290810488143745)	1.0	z	1.41262
30	N	A	M	B	M	B	A	N	B	8	3	shapes	B	5	True	8	(1.4221713741237068, 8.3407258166833778)	(-4.0272619372277498, -2.9987058219196978)	(-2.0993087898108191, -8.2728543883037489)	(-1.4502207912182277, 5.3822505129834148)	1.0	z	6.82958
31	N	B	B	A					N	4	2	shapes	B	5	False	8	(5.7323603000835259, 1.9779672223058622)	(8.2638381430844667, -7.3479139536629825)	(-2.1976116079548991, -8.3773255286536461)	(-3.7828586228725598, 6.2926134585233058)	1.0	slash	1.34524
32	M	A	A	M	N	B	N	B	A	8	0	shapes	M	5	False	8	(-7.3830056156405712, 7.4845663844082644)	(-2.0226194775717454, -5.8166641807594823)	(4.6187083340544888, 4.193622994484306)	(3.9775994013576454, -4.7103746549319458)	1.0	slash	1.55304
1	M	B	M	A	A	N	N	B	M	8	3	shapes	A	6	False	8	(0.32280707551475096, -3.4535635871496924)	(4.3122664241572615, -8.6254202039734142)	(-3.1293471251743084, -0.81841433325633162)	(-3.085412680694712, -6.1029742732450565)	1.0	slash	1.77859
2	N	A	M	A					N	4	0	shapes	N	6	True	8	(7.8679757445771621, 2.6594044080811177)	(-7.9159298532927753, 0.51520493948024715)	(0.45803695895109797, -3.803672758444546)	(-6.4921133214657587, -4.4508627186430152)	1.0	z	1.4722
3	M	A	N	M	N	A	B	B	B	8	7	shapes	B	6	True	8	(7.7723982568045713, 3.0285618735895579)	(6.464996298356537, -4.034433871927777)	(1.9583475262152792, 6.6334959791971517)	(-4.2832994003152436, 8.7282452216551363)	1.0	z	1.60763
4	N	A	N	M	M	B	B	A	M	8	3	shapes	M	6	True	8	(7.0931475290993795, 0.03671590367958899)	(-2.1130319991310023, 7.4866470818038557)	(-4.4165664185664557, 1.9277762527274831)	(-7.748668429230861, -1.1866394551738511)	1.0	z	3.5073
5	N	B	N	B					A	4	0	shapes	N	6	False	8	(-0.90249628091120648, 6.615804182337369)	(8.0687870774522246, -1.9237688649355151)	(-6.5725095722851794, -2.9527460589079624)	(5.1541986625293408, 5.1556452328434403)	1.0	slash	1.3688
6	M	B	M	B					N	4	1	shapes	B	6	False	8	(4.1695278869204966, 6.5633356525469893)	(-4.076101305038633, 0.31483762600753096)	(6.5929689502402784, -2.4885067047385485)	(-7.678576952566619, -5.5276152445070093)	1.0	slash	1.3683
7	N	B	M	B					B	4	1	shapes	B	6	True	8	(1.4316214903164788, 1.3223920115297769)	(-8.2991542605381952, 0.037195137718963878)	(8.5355761362800671, -4.2886946351423649)	(-2.3117490408378121, -4.0923627329100292)	1.0	z	2.08002
8	N	A	A	M					M	4	3	shapes	M	6	True	8	(-8.2724252589173322, -5.6775007724676794)	(7.8355328065124503, 0.41393440951015137)	(-2.4652797846697574, 0.36255270520488381)	(8.653681065628426, -5.9210936594749821)	1.0	z	1.22553
9	M	A	M	B	A	B	N	N	A	8	4	shapes	A	6	True	8	(7.4419178910655397, 6.142859622990601)	(-6.6008753706643883, 6.792339578360183)	(1.7452074295396542, -4.7569649265816603)	(-8.0829874322821667, -2.9525735404060738)	1.0	z	1.56122
10	N	A	M	N					M	4	3	shapes	N	6	False	8	(3.0951583815331762, 7.9580812781666026)	(-0.17229522182529777, -2.8926195785011597)	(-5.8547068775051132, 3.3826957932040003)	(4.0434642866200949, -3.2576923403399283)	1.0	slash	1.67467
11	M	B	B	A	M	A	N	N	M	8	6	shapes	N	6	False	8	(5.2502371694377263, -4.5343447077729042)	(-0.99583960516631898, -8.4683641820742555)	(-2.4039388918473987, 7.7582587053746295)	(7.7116698468940967, 1.2868169832114624)	1.0	z	1.84027
12	M	B	M	A	N	N	A	B	N	8	7	shapes	B	6	False	8	(-6.2074813149021892, 4.5788105006624864)	(-1.6185216473283788, 5.6473668257332594)	(5.3611211370435967, 8.0945580441138922)	(-1.0601459493575982, -4.7084762224169916)	1.0	z	2.12599
13	M	A	A	B	M	N	N	B	B	8	3	shapes	B	6	True	8	(-3.5098010588342197, 3.9572100901784637)	(-2.2648243306412583, -7.6110536396625328)	(-6.0468586965532527, -5.7366770140043881)	(3.7815226424745614, -3.4677449438548305)	1.0	z	0.929546
14	M	B	N	M	N	B	A	A	A	8	7	shapes	A	6	True	8	(-0.68257874220433656, -1.8473593322590114)	(-5.8963407037925659, -6.3291631551135996)	(8.6683613132526069, 2.9700689742836186)	(7.3211475644511701, -5.9056648300167591)	1.0	z	0.972996
15	M	B	B	N	A	N	A	M	M	8	6	shapes	A	6	False	8	(-6.3582591612265951, 1.2503135220190575)	(7.0357258249715233, 1.5560193976807106)	(3.8986101719211774, 5.675096740786616)	(-4.5188285963103558, 6.8851043129217118)	1.0	z	1.03061
16	N	B	A	A					B	4	1	shapes	B	6	True	8	(-4.4248738145407298, -5.8227299044539107)	(-5.7235220651541709, 5.6683739266942812)	(5.163213688617434, -6.0825605926456303)	(2.1607379238428379, 8.5915847546111799)	1.0	z	1.01034
17	N	A	B	N					N	4	0	shapes	N	6	True	8	(2.604564067727166, 6.3159280553005885)	(-3.7337883543948278, 4.4540675955360651)	(-4.7529663150647448, -3.3187809173175689)	(1.837433493377997, -3.4953911963260822)	1.0	z	1.12188
18	N	A	M	M					A	4	3	shapes	M	6	False	8	(1.9527271715127732, 4.6885145139683999)	(-7.8927216952513266, -6.2953581903665716)	(-4.9963793976784228, 4.1711681138415848)	(7.6090331773835054, -1.1246341401648721)	1.0	slash	2.48368
19	M	A	A	M	B	B	N	N	B	8	5	shapes	B	6	True	8	(-6.3978994945486729, 3.4003722241841796)	(8.5348329362421396, -2.4435539825044277)	(-5.7960011987981144, -6.7440050298209577)	(3.7222011528243204, 7.0302656225662439)	1.0	z	1.64732
20	N	B	N	B					N	4	3	shapes	B	6	False	8	(7.3293607122111943, 4.4031742461475467)	(-5.11840440599304, 1.5510642956338963)	(-5.1485634458701792, -4.1004219574494316)	(1.9280803061471854, -6.1233339396130599)	1.0	z	1.8088
21	M	B	M	A					A	4	0	shapes	M	6	False	8	(-6.1798595214553016, 4.5203842534479914)	(1.4911880117326, 8.0357048960261146)	(-8.0791133410314906, -8.5671940256440813)	(4.6051266973730343, -6.0200935652856709)	1.0	slash	2.80031
22	M	A	N	B	M	N	A	B	M	8	2	shapes	N	6	False	8	(-5.6609071550930459, 8.2988688694928925)	(-3.5977366694617618, -8.533353035847739)	(-5.1921077873661483, -0.89634197074252153)	(0.83728122984625308, -6.897826705682947)	1.0	z	1.15587
23	N	B	B	A	A	N	M	M	M	8	2	shapes	B	6	False	8	(8.1690479293589853, -5.2934972288520399)	(8.0962255233057228, 2.2525218620896279)	(-6.2797235350940914, -5.9800496269142513)	(0.18460072286895901, 1.3407507038127662)	1.0	slash	3.71343
24	M	A	N	B	M	B	A	N	M	8	6	shapes	A	6	False	8	(2.8392085853462472, 4.1154875228931918)	(-6.7281818924198689, 4.5744643506045151)	(7.0040550851123342, -7.0220206267432816)	(5.3411587287634301, 0.019128207948600817)	1.0	slash	1.97476
25	N	A	N	B	M	A	M	B	B	8	7	shapes	B	6	True	8	(8.0748491618310467, 6.7177656470126248)	(-1.4692868552545759, 7.8114167493506024)	(2.1046445843842267, 2.1920312760902796)	(-6.3843358589246915, -2.0540117726108029)	1.0	z	4.1045
26	N	A	B	B					B	4	3	shapes	B	6	True	8	(-6.0583887590878494, 1.0459323328380723)	(4.2660327265774249, -7.755726357351806)	(3.460514417591348, 6.662286754732996)	(-5.0641457750147785, -2.8571219317973817)	1.0	z	1.3499
27	M	B	M	A	N	N	B	A	N	8	5	shapes	N	6	True	8	(-4.4499991455126748, 6.1959107544642009)	(5.2155086344448112, 4.7279519543837605)	(-6.1503100045479879, -4.2710897182900887)	(5.9887487089889433, -5.2175773189038894)	1.0	slash	2.27716
28	N	A	N	M					N	4	0	shapes	N	6	True	8	(2.5806330113874498, -0.31560691371640992)	(-6.272943760254547, 3.1748088812357533)	(-4.7155369989575844, -1.3131960038589572)	(7.3934171241557394, 3.7782474932624055)	1.0	z	2.24089
29	M	B	A	M					A	4	3	shapes	M	6	False	8	(-0.194748304492256, 2.022015486074249)	(7.7344933364602539, 6.5392799315903858)	(3.0858428782670249, -7.2121978239329554)	(-6.4707425717945686, -4.0349989827039376)	1.0	slash	1.83451
30	N	B	M	N	A	B	A	M	B	8	6	shapes	A	6	False	8	(-3.7757326428810769, 0.44176049311190901)	(3.835219330338246, -8.411681439648234)	(2.7749988349047712, 4.6118899972330958)	(6.635845955350403, -2.4015150505368679)	1.0	z	2.8221
31	N	A	A	B					A	4	3	shapes	B	6	False	8	(0.3386585851186048, 7.9289971441668428)	(2.8827901934102638, -7.0678923810990879)	(-8.2045029524657291, -5.8278878056795627)	(-8.2505907090558868, 7.5932112871073834)	1.0	z	1.80949
32	M	A	N	N					N	4	2	shapes	N	6	True	8	(-2.8094964677469285, -6.7651959957058176)	(-3.0305666035459859, 1.5569706601368161)	(4.7242010340314788, 2.9686906606662475)	(1.9361885035520281, -8.4550221328360617)	1.0	z	1.2812
1	N	A	B	A	B	N	M	M	N	8	3	shapes	A	7	False	8	(8.5214756160013465, -5.0829525719459889)	(5.5824011343368074, 6.8474152448594321)	(1.1637521722924422, -6.3233756484217842)	(0.081328405272806492, 4.9586946133293743)	1.0	slash	1.53678
2	N	A	B	N	A	B	M	M	N	8	6	shapes	M	7	False	8	(-2.6666110954139208, 0.74381403749980102)	(-2.6489809692968862, 6.4205623188539143)	(7.1310311393166153, -2.6849402522649912)	(-5.7395022828708484, -6.3898620875880336)	1.0	z	1.64248
3	M	B	N	N	M	A	B	A	N	8	4	shapes	M	7	False	8	(4.2869085580773625, -1.6966631445408797)	(-8.0986762938681345, 3.3683730094077884)	(-6.9848718554492688, -2.1620781822111281)	(0.19350147295448394, 2.8066967048681839)	1.0	z	10.1818
4	M	A	N	A	M	N	B	B	A	8	7	shapes	B	7	False	8	(-3.593441659366035, 4.868242489156529)	(0.33995747027681311, -0.83499621333468976)	(0.77167432477184761, -7.8397326652834742)	(0.45412151918694299, 5.8196939086258013)	1.0	z	1.61292
5	M	B	M	N					B	4	1	shapes	B	7	True	8	(-0.74737489976030602, 8.7317880965766967)	(-8.1053206956961361, -8.4800461931996676)	(7.0687991857640338, -4.7224746376653792)	(3.9088572929335115, 1.6867004985337086)	1.0	z	1.54845
6	M	B	B	N					A	4	2	shapes	B	7	False	8	(-6.8753352871538684, -1.5145979969389769)	(4.9341283265692066, -4.958252289520277)	(7.7435113671388791, 5.6997033696508357)	(-2.13118868394809, 7.9856668442796241)	1.0	slash	1.10336
7	N	B	B	A	N	A	M	M	M	8	6	shapes	M	7	True	8	(2.4759393304063071, -0.96320431741239165)	(-8.3145143751374224, -0.51378162616538603)	(0.97385578757331892, -8.0033797076669941)	(5.191499848438248, 8.6795313375143621)	1.0	z	0.605786
8	M	A	N	A	N	B	M	B	B	8	5	shapes	B	7	True	8	(2.2942325752778441, -7.7320593542229368)	(-5.129082314867583, 3.3238130044021901)	(0.95327759688895419, 3.0016762503123182)	(-7.9204610544944796, -4.509026800692264)	1.0	z	4.03316
9	N	B	M	B	A	N	M	A	B	8	3	shapes	B	7	True	8	(-3.0946868027536283, 1.5512337354621266)	(6.8089907384770143, -5.4012368846403671)	(0.53589872085639101, 4.907565462548293)	(5.92121440517022, 2.953216366122426)	1.0	slash	1.57477
10	M	A	B	A	M	B	N	N	A	8	3	shapes	A	7	True	8	(4.7377455994176714, -1.9215388873610939)	(2.3798746853105559, 8.0437356234410622)	(-5.9954758906126315, 5.6423658659630647)	(5.3452041829505479, 2.6433265569344702)	1.0	z	1.66437
11	N	A	M	B					A	4	1	shapes	A	7	True	8	(-3.1138473390009302, 7.1990092882467742)	(-3.2179278213468052, -4.2919287319798887)	(6.4910364485780825, 5.6764599080467892)	(3.4835351111960318, -0.079683592283993576)	1.0	z	1.17394
12	N	A	N	A	M	B	M	B	M	8	6	shapes	M	7	True	8	(6.9584772022999033, 2.1299242831101264)	(-7.8507393976763327, -3.0808668205506491)	(1.287438391359542, -4.6398310141754786)	(-1.6558710353365846, 0.26285651312832137)	1.0	z	1.08772
13	N	B	N	M					B	4	2	shapes	N	7	False	8	(5.8512182405966051, -7.8780641964845959)	(7.2864470638531245, 2.0711154832612717)	(-3.105817651127242, -1.1990685290183816)	(-7.5628426610958819, 8.5656953675774972)	1.0	slash	1.19317
14	N	B	A	M					B	4	2	shapes	A	7	False	8	(-4.4439662697594642, -4.7496266981792017)	(-0.78715923999986703, 1.3212717646161565)	(7.0469804889377787, 5.3226039758964756)	(1.7755036827676349, -2.3430739069422035)	1.0	slash	0.964865
15	M	A	B	N					B	4	2	shapes	B	7	True	8	(-3.4496438812817614, -6.1708220812135153)	(8.1645207935366528, 4.9279764404641142)	(-7.9252377254856405, 1.2666971661013022)	(3.653296400366294, -6.990765516052587)	1.0	z	0.886412
16	M	A	M	N					M	4	2	shapes	M	7	True	8	(-1.3393454271309881, -0.65124011103321955)	(4.7367934276177213, -2.2517730688826738)	(8.6236881877569971, 0.79147233244375315)	(-5.5969920257684267, 1.7114511671162056)	1.0	z	2.95156
17	N	A	M	M					B	4	2	shapes	M	7	False	8	(0.34849072503533307, -7.3007865941435011)	(-3.8944826096475342, 4.5607581837216209)	(1.5408849610798718, 1.1098367581271908)	(-4.0329885321068577, -1.4990160647422863)	1.0	z	2.48372
18	N	A	A	B					M	4	1	shapes	A	7	False	8	(1.4579512335420297, 0.46656650097507857)	(4.917721313142696, -2.4011920451418609)	(-5.6891754247863968, 6.7441551076384982)	(-7.456886284655992, -1.6543970400628023)	1.0	slash	1.08526
19	N	B	A	M					B	4	1	shapes	B	7	True	8	(-3.8908581566767086, 2.802995987365918)	(0.31969455976417471, 0.61804600233113227)	(-2.5589824819221327, -6.4868849625059264)	(6.909881718483204, -7.3717611283456073)	1.0	z	0.606881
20	M	B	N	M	A	N	A	B	B	8	7	shapes	B	7	True	8	(4.3340868832203139, 0.91432999317247443)	(-3.7103269659351028, -5.7812388641310655)	(1.0555531225692931, 3.3425334716312776)	(-3.8536088529792965, 3.9536839420043837)	1.0	slash	0.496492
21	N	A	N	B	B	A	M	M	A	8	7	shapes	M	7	False	8	(3.1916811377557277, -3.5222554211945125)	(-2.3772441172399175, 5.6577628091171164)	(1.7425774866007373, -8.5518828060541168)	(4.7832289187755528, 6.0773922161117504)	1.0	slash	0.754125
22	M	A	N	B					A	4	2	shapes	N	7	False	8	(-3.773701224495654, -1.8083629706994397)	(1.623111105803055, 4.6794113243032793)	(-5.6641503807360181, 3.2868829894271041)	(0.25909564218345338, -5.3409945176374469)	1.0	slash	0.573777
23	M	A	A	M					A	4	2	shapes	A	7	True	8	(2.3546718567814029, -1.4498112709401703)	(-2.6630692358763, 2.0189926574967672)	(4.6771540790732917, 5.0435128900387749)	(-8.169750896295124, -5.3094664027194094)	1.0	slash	0.525479
24	M	A	A	M	B	B	N	N	B	8	7	shapes	N	7	False	8	(-7.6765617910785284, 6.8523043457667185)	(8.287501479354912, -0.2925271345030076)	(-0.77942484291364167, -1.67416687649885)	(-7.2776237275615818, -2.1946012828842756)	1.0	slash	0.457222
25	N	A	A	N					A	4	0	shapes	N	7	False	8	(-1.6781522858710671, 6.1926051126277049)	(7.8651683801462156, 5.1738562628470444)	(-0.094626359038970875, -5.37920438264476)	(0.41208322032597344, -1.061400041214501)	1.0	z	0.416923
26	M	A	N	B					B	4	3	shapes	B	7	True	8	(-7.4619635737560364, 7.8631968059751003)	(1.2967454355157528, -1.8294387597486512)	(-6.9722699166438389, -6.1231669540125528)	(1.2095157329984367, 4.180713963853405)	1.0	z	0.552472
27	N	B	M	M	A	B	A	N	M	8	1	shapes	B	7	False	8	(-2.3269287160949013, 1.7130577994109828)	(-3.662077281680312, 5.5273104406528866)	(1.3035259016107297, 6.5968323255971679)	(-3.793986003174731, -7.9850542903278283)	1.0	z	0.846092
28	M	A	M	N	A	N	B	B	M	8	4	shapes	A	7	False	8	(-3.7138107776536708, -2.5143398758887594)	(-5.8681354763454214, 6.4220931460287289)	(7.1233282296957885, -6.6557842276774828)	(4.7180145596714809, 0.94842832631874252)	1.0	z	1.56986
29	M	B	N	M	N	A	A	B	B	8	1	shapes	B	7	True	8	(7.8242539092010155, -4.1832612462302192)	(6.016345375228239, -0.0068998986062069889)	(0.21869012774637575, 5.4324974957581098)	(-4.0228887689281398, -6.6899412834476459)	1.0	z	1.42147
30	N	B	N	A					N	4	1	shapes	B	7	False	8	(-6.9335701284053437, -8.2744245646218015)	(-7.0152809246337826, 0.39374727920875507)	(6.8824602241594146, 4.2206108286148147)	(6.5650043066373573, -4.6847011537543883)	1.0	slash	0.659162
31	M	B	N	M	N	A	A	B	B	8	7	shapes	B	7	True	8	(5.7708312415411136, 6.071285008251639)	(1.2881354129197504, -5.6444738523219735)	(-3.0882368774154232, 2.858864069025163)	(-3.898933144302136, -5.5413305327232329)	1.0	slash	0.890772
32	N	B	M	B					M	4	2	shapes	M	7	True	8	(-5.2111385388953222, -0.94201287467924644)	(5.4117143845156956, 2.4157755117987652)	(-7.8739516431670076, 5.0768339240831448)	(3.5100709304293858, -1.8519657692547709)	1.0	slash	1.19433
1	M	B	N	A					N	4	1	shapes	B	8	False	8	(8.2264082396245648, 5.4482150914397085)	(2.4172664028616246, -2.4669295836831342)	(-8.0630987745391334, -7.2359109803222008)	(-4.4838532466276728, 7.38129976319237)	1.0	slash	0.737854
2	N	B	N	B					N	4	0	shapes	N	8	True	8	(-8.6770838263950942, 3.944426264461244)	(4.0428256091967114, -6.8937114398765029)	(1.1256910940826579, 4.3393191076630053)	(-0.87353277821478859, -8.0190935251751654)	1.0	slash	0.583777
3	N	A	A	N	B	M	B	M	M	8	5	shapes	M	8	True	8	(-0.95189462073310604, -4.1357118437276261)	(-8.6016486114649133, 3.7422517408269407)	(-6.9124070849774837, -7.6955146568918176)	(3.4299034559510613, -4.2757452779227032)	1.0	z	0.553328
4	M	A	A	B					M	4	0	shapes	M	8	True	8	(3.6850944023149026, -4.5607789983093934)	(-2.3817919113926127, 6.7517101627741525)	(1.7870739364721206, 4.8660030905036074)	(-8.002645863180307, -8.4390752185178552)	1.0	z	1.04488
5	M	B	M	A	A	N	N	B	A	8	0	shapes	M	8	False	8	(-8.6860382090884958, 1.7451413606348893)	(-5.0394756995700893, -5.7476886144757504)	(6.0278292341811905, -1.0748848574793506)	(1.3982710875270623, -7.2845266407957281)	1.0	z	1.1366
6	M	B	N	M	B	A	A	N	M	8	3	shapes	M	8	True	8	(-1.7460550540701734, -0.72725371410784234)	(-0.13439074503826376, 3.3536593984421081)	(-7.1314309659645563, 2.0276813845283428)	(7.9721112294410545, 0.83843338647480437)	1.0	z	0.162351
7	M	B	N	N					B	4	0	shapes	M	8	False	8	(7.7283775740613976, 0.1257708819926755)	(-3.8868313629970048, -4.8105159808695142)	(-6.2435685894853981, 8.5523406302962641)	(0.99846356742264675, -3.6779984731082793)	1.0	z	0.403918
8	N	A	N	B					B	4	2	shapes	N	8	False	8	(6.7512302669265321, 7.7643854239802721)	(-2.6958880134141241, 1.1628912436651362)	(-1.2056941160268355, -3.1579032502614846)	(1.5159631561413232, -8.231955513639301)	1.0	z	2.72546
9	N	A	N	B	B	A	M	M	M	8	6	shapes	M	8	True	8	(-4.5771889409200526, -1.5746237674185863)	(4.8765704185518608, 7.6093509943209341)	(-4.0909765838158378, 3.1332891618221357)	(-6.7759260270211659, -4.9657401686697273)	1.0	z	0.35318
10	N	A	N	A					A	4	3	shapes	A	8	True	8	(1.0449591597662042, 6.6412912625427314)	(-7.3794275902712565, 1.2434934722152207)	(-3.5836991895035455, -1.1083179764783218)	(6.1996602662071645, -8.4740067320121817)	1.0	slash	0.484732
11	N	A	B	M					M	4	3	shapes	M	8	True	8	(-7.1127662596392636, -7.8869159395625879)	(3.3345211241978543, -7.1162539817379686)	(0.54532437099918063, 1.1536827700736403)	(-3.7782661017114716, 5.940346830914196)	1.0	z	0.334553
12	N	A	B	M					M	4	1	shapes	A	8	False	8	(5.5841786707280292, 2.5127815357940566)	(-0.7806654422974173, 3.3780866289839153)	(4.639674734655614, -5.5137619175302959)	(-6.0443783143940575, -8.5581908596193852)	1.0	slash	1.51018
13	N	B	N	M	M	A	B	A	A	8	2	shapes	N	8	False	8	(3.5385492891098025, 6.5776459876546642)	(-5.327068244068256, -6.7185545702580196)	(4.8683747879638268, -5.3872141169137171)	(-4.0787670878571003, 7.5350504409592887)	1.0	slash	0.997942
14	N	B	A	N					M	4	2	shapes	A	8	False	8	(2.329878529315879, 7.788279665912615)	(-3.0295253020050232, -2.9818327853462749)	(7.8492697315159923, -3.0621813208476052)	(-2.0903556074724916, 7.4672841860320673)	1.0	slash	0.743005
15	M	A	N	B					B	4	2	shapes	N	8	False	8	(6.0801440848958936, 7.509021693013306)	(-6.6943387951217801, -8.5343383850285353)	(-4.6929065853588776, 1.120738987576047)	(0.52415262905677906, -4.8146763756262789)	1.0	slash	1.51711
16	M	B	M	B					M	4	3	shapes	B	8	False	8	(4.0837017011571479, 6.7754577875723072)	(4.2975633139072489, -6.7444643045174537)	(-7.1506723868731292, -0.40784436208335784)	(-2.267880080750647, 7.0331197462542026)	1.0	slash	0.664869
17	N	A	A	B	B	N	M	M	M	8	3	shapes	B	8	False	8	(-4.4513827283311072, 2.3706228021731999)	(1.8577971717458635, 0.65501297383416812)	(8.1897123264518079, -1.9321636170706347)	(-8.0845741426573934, 4.4076643998743119)	1.0	slash	0.928248
18	N	B	A	A	N	M	B	M	B	8	7	shapes	M	8	False	8	(-5.4064894039066536, -5.7633236024661958)	(7.948079468383348, -1.8024055639152028)	(-1.7415965366965684, 6.5319306796514987)	(3.4103075410490096, -4.1123069918319572)	1.0	slash	0.643924
19	N	A	A	N	B	B	M	M	M	8	6	shapes	M	8	True	8	(0.91608647599345083, 0.57742430471328987)	(-3.236610506915218, -5.5405076527357178)	(-7.5203292397571344, 0.091372092691761608)	(-7.2623468759704757, -7.2381693151337805)	1.0	z	1.19963
20	M	B	N	A	M	N	A	B	N	8	0	shapes	M	8	False	8	(-7.4708574007538422, 5.706744854372177)	(1.2430091095387166, 0.16834631220740803)	(7.9247766408951854, 6.812906631492389)	(-4.4668576963989102, 2.4747180111333265)	1.0	z	2.25319
21	M	A	N	B					B	4	3	shapes	B	8	True	8	(-2.3167154332645623, -4.2786477158042953)	(2.3591017468329731, -3.9020557718634441)	(1.8126772345276461, 1.4979307511790037)	(-7.520110704791529, 4.2997873302380416)	1.0	z	0.780752
22	N	A	N	B	M	M	B	A	M	8	1	shapes	A	8	False	8	(1.4321512527099145, 0.79372406179157018)	(-5.8114967105756126, 1.567818754101749)	(-1.3564248289845455, 3.9359630033977062)	(7.9118427475218809, 2.3772694257051832)	1.0	z	0.924522
23	M	A	M	N	A	N	B	B	N	8	3	shapes	N	8	True	8	(-7.993204172028209, 1.464105010237871)	(-4.8994121053379232, 7.3244508071154897)	(4.095854048832555, 8.0441743123418803)	(3.4344707227517723, 0.98680237975577967)	1.0	slash	1.66423
24	N	B	B	N					N	4	3	shapes	N	8	True	8	(2.430581728802915, 0.57442239094681113)	(-3.5217327207237386, 4.758023028308255)	(-7.6438835608441744, -7.7238839687920802)	(5.2941321059217543, -7.1963644927759134)	1.0	z	0.789846
25	M	B	A	N					M	4	1	shapes	B	8	False	8	(-3.3785442732960949, 8.1669881078933848)	(-1.9535804713770393, -2.6063516924815513)	(7.5928830197318469, 6.9758857887807473)	(2.6653604703169673, -3.3770415276819996)	1.0	slash	1.25753
26	N	A	A	N	M	M	B	B	M	8	3	shapes	N	8	False	8	(6.8728733547364875, 6.4141759978138211)	(-6.1346707882617775, 7.0060883070153412)	(-2.7334881342778159, -7.7841968154686016)	(2.8089606578748025, -6.833774570909636)	1.0	z	0.555122
27	M	B	N	M	N	B	A	A	B	8	5	shapes	B	8	True	8	(-4.245277292090627, 6.2949788926778343)	(0.67283341756816206, -1.6051675657455808)	(4.6862549376694904, 0.99930622233770805)	(6.8476369419040743, -2.394497682016552)	1.0	slash	0.504744
28	N	B	M	N					N	4	3	shapes	N	8	True	8	(2.0119498811805965, -5.3185775364621115)	(-1.2948641911335468, -1.1298292425008372)	(-5.1210615134340323, 7.5737075050251406)	(2.4651796948800762, 4.1288136244656606)	1.0	z	0.358326
29	N	A	M	M					M	4	2	shapes	M	8	True	8	(5.8306127879550349, -3.497908432408555)	(1.8587816816589147, 0.1620525489232385)	(-1.1047290692783927, -6.7627992157804897)	(-6.681824858814835, 1.911551559934459)	1.0	slash	0.54427
30	M	A	N	M	B	N	A	B	B	8	7	shapes	B	8	True	8	(-2.1834082053179502, -7.9648091621474073)	(3.9348978816877267, 4.1581500727751788)	(-6.3704674742594962, -7.9011490429127429)	(4.4091127687836131, -0.53468746069553141)	1.0	z	0.527666
31	M	B	M	N	A	B	A	N	M	8	5	shapes	B	8	False	8	(-5.2910238717707765, -7.5526551464639518)	(4.5065514022638755, -5.8369197514267839)	(-0.91721676144236763, -4.522932321631937)	(1.3221851516658187, 2.5346503431463105)	1.0	slash	0.603268
32	N	B	A	N	B	M	M	A	B	8	1	shapes	B	8	True	8	(-2.2267620062227262, 4.4306090455068894)	(-2.1098252152828882, -3.5702610376726973)	(-3.8175558118267583, 0.5624389522354889)	(2.8922702891518188, 1.3123470464902454)	1.0	z	0.423163
