TrialNumber	stim0	stim1	stim2	stim3	stim4	stim5	stim6	stim7	stim.probe	ttl.stims	corr.num	trial.type	stim.corr	block	match	Subject	stim.pos0	stim.pos1	stim.pos2	stim.pos3	ran	resp	RT
1	N	B	A	M	M	B	A	N	N	8	0	shapes	N	Practice	True	80	(-1.6742171891095934, 3.7873902454155672)	(-5.3845355457818105, -1.3550070623197117)	(-7.3089748410709339, 7.4898907372122601)	(-2.2355796633731968, -7.4524155341154898)	1.0	z	2.68927
2	M	A	B	N	M	A	B	N	N	8	0	shapes	M	Practice	False	80	(0.55007638689219363, -3.6261252739892615)	(5.1992371681100416, 7.0607897962976303)	(7.0625219105787345, 1.1534322637551337)	(-3.8926103635184965, 2.7216696978277586)	1.0	slash	1.21268
3	N	B	A	N					N	4	0	shapes	N	Practice	True	80	(-8.582612989183465, 8.7377238065674234)	(-0.76975333863775486, -7.3040038175452073)	(4.9811953943604212, -7.9719485611036447)	(2.3628841104101213, 2.1019426587623826)	1.0	z	0.884349
4	M	A	N	B					B	4	0	shapes	M	Practice	False	80	(-2.4109101069676981, -1.6517419093350094)	(6.7140155043725436, 4.9047797163707543)	(6.4315583920413815, -3.4693740718651354)	(-7.0095484890003625, 1.7476527061971741)	1.0	slash	0.822063
5	M	B	N	A					B	4	1	shapes	B	Practice	True	80	(0.4193484790832045, -6.304519342270785)	(-7.58322875314746, 2.0992416283094837)	(-5.2563915918014654, -4.1491367311405103)	(8.1842548411007918, 0.7969321902532247)	1.0	z	1.02769
6	M	B	M	N					N	4	0	shapes	M	Practice	False	80	(6.4647778555955391, 2.4862649887202011)	(4.2773999531335534, -8.5496865211611741)	(-1.9569504064617504, -2.8280828542073992)	(-3.407706440891257, 1.5783294816443298)	1.0	slash	0.937173
7	M	B	N	A	A	M	N	B	N	8	7	shapes	B	Practice	False	80	(5.3962606380943168, 1.1130968667549848)	(-3.9701527807656385, -6.6162647957801521)	(-7.467275497523751, -2.7142280057137729)	(1.174031480229198, -1.4926823916506908)	1.0	slash	1.6349
8	N	B	M	N	M	B	A	A	M	8	4	shapes	M	Practice	True	80	(4.7128548612083705, -8.2831930719491744)	(-6.3664038391733584, -2.2779983700543518)	(6.2896549367805683, 0.107397608709773)	(-5.6718217561022808, 4.526586487838923)	1.0	slash	1.70431
1	N	A	A	M	M	N	B	B	B	8	6	shapes	B	0	True	80	(-2.1019575900139396, -1.0111019694172603)	(4.3526193787131113, 0.25517485211000057)	(4.754344628346086, -7.7911575253438006)	(5.6654794575128928, 4.2811341541630998)	1.0	z	0.748705
2	N	A	B	B	A	M	N	M	B	8	1	shapes	A	0	False	80	(6.9821721549664861, 2.5195248878999656)	(0.95565219905589949, 1.9986813489026964)	(8.36911470489731, -3.8031518189869047)	(-6.9558559428367648, 2.7746724704522254)	1.0	slash	0.836411
3	N	A	B	M					M	4	1	shapes	A	0	False	80	(-1.9330152137365229, -7.9303775736816648)	(3.5874879916304216, -4.2135863180719015)	(-2.7901986713234344, 2.9358317945825991)	(8.3868116787395728, 2.3517779588199819)	1.0	slash	1.01608
4	N	A	N	M	B	M	B	A	M	8	0	shapes	N	0	False	80	(-2.6948815493656078, 6.8246684421099566)	(8.6311352282276204, -7.1581056380978776)	(3.7727112663715197, -1.3060258189209391)	(-8.1735402793307816, 4.3507211933496155)	1.0	slash	1.2816
5	N	B	B	N					M	4	2	shapes	B	0	False	80	(4.9986849799403466, -2.0478257524868697)	(1.9317488102982789, 0.60506536191963534)	(-3.6776813978665324, 2.8933751577446056)	(-5.2163326834191261, -1.4666917277956779)	1.0	slash	1.04327
6	M	B	A	B					B	4	1	shapes	B	0	True	80	(1.5386743035324724, -2.2437395429809257)	(-6.5569732972052304, -5.0428152922537519)	(3.023259444202095, 4.9048768060855235)	(-1.2017317600274673, 7.8325777514749753)	1.0	slash	3.54075
7	N	A	M	A					N	4	3	shapes	A	0	False	80	(6.2076523688906757, 7.2865093501914266)	(-2.340411325644701, -8.5611840369056154)	(-4.7107287961692705, 1.3165824316565651)	(2.2971611517459163, -3.8863229414020273)	1.0	slash	1.29821
8	M	B	A	N					B	4	1	shapes	B	0	True	80	(-2.2864667643830234, 6.8260533402536687)	(5.556161056631197, -4.0560395983594777)	(4.9241517722503829, 2.2500167250371774)	(-8.4243497296881795, -0.31100529221491335)	1.0	slash	0.863939
9	M	B	M	N					N	4	3	shapes	N	0	True	80	(-2.5847157025398975, 2.3298463234297113)	(-0.84418997958552389, -3.9281872163726916)	(8.5462473614789971, 7.2635768924598629)	(3.0880713902644459, -5.2283115590649576)	1.0	z	2.12565
10	M	A	N	A	M	N	B	B	M	8	6	shapes	B	0	False	80	(-1.8414298358196772, -4.5072292777235976)	(0.95054648539273323, -0.5612419935105315)	(2.7804125866710336, 4.7650633475952038)	(-6.1649811917508455, -0.87397387633148949)	1.0	slash	11.4248
11	N	B	A	N	B	A	M	M	N	8	0	shapes	N	0	True	80	(5.7472640056540545, -4.4725545649892631)	(1.5222730128284176, 6.0551762941541867)	(-4.6527388566260246, 3.4298660551685103)	(7.6247590344075, -8.6454807212520564)	1.0	slash	3.23193
12	N	B	M	A	A	M	B	N	N	8	4	shapes	A	0	False	80	(-5.8640102240286698, 1.1423853470885312)	(4.3420872224651941, -4.3090051849026541)	(3.6107522830606911, -0.14647440616583118)	(7.5633050182273536, 0.60625261761181015)	1.0	slash	0.563537
13	M	A	N	N					B	4	0	shapes	M	0	False	80	(7.9160896453346297, -3.0788133709372305)	(-6.3346714005968616, -0.53322575327366195)	(4.5293385035749996, 3.9662481444521784)	(-0.51403124289986302, 6.6053549220016805)	1.0	slash	2.05316
14	M	A	N	M					B	4	2	shapes	N	0	False	80	(-8.1323239509247109, 4.0970321373977825)	(1.3340476544690887, -5.1944347247107281)	(-5.9546678459070623, -3.721910597957117)	(7.2594706155825293, 7.9318659293606757)	1.0	z	0.972789
15	M	B	M	A	A	N	N	B	M	8	2	shapes	M	0	True	80	(7.5341781525034648, 0.65436824516758563)	(-0.07449618380662848, 1.996374713616996)	(-6.6943101995049137, 7.9187667388833738)	(6.6546712847612355, -6.4084595118091858)	1.0	z	1.10225
16	M	B	M	A					M	4	0	shapes	M	0	True	80	(-8.3447291198947919, -4.1841047506477329)	(-1.2408160711741774, 2.9692638829405755)	(1.2666235207936793, -7.0899782751797549)	(7.549260679296605, 5.5038383484595919)	1.0	z	0.683999
17	M	A	A	N					N	4	2	shapes	A	0	False	80	(-2.7241894349183209, -1.6492110128474842)	(7.0099235088445102, 1.412456111533686)	(1.9958012606629474, -2.6628656912986157)	(-3.1296984961609722, 4.3649927447214321)	1.0	slash	0.917715
18	M	B	A	B					A	4	2	shapes	A	0	True	80	(7.7646688419707779, -8.0650710758113942)	(-5.7603737002219306, -7.2936148559465961)	(5.204391152721465, 7.4399914228959148)	(-8.0859028496813909, 6.934434679527735)	1.0	slash	0.583358
19	M	B	M	A					N	4	2	shapes	M	0	False	80	(8.3627231233170427, -8.4149998857541206)	(-6.1482123751767208, 5.6375489801510543)	(0.10110260687816108, 7.6479826623324563)	(-3.0261298061273836, -6.2969503410632486)	1.0	slash	0.669026
20	M	A	A	M	B	B	N	N	M	8	0	shapes	M	0	True	80	(4.9256754734468515, 8.2174001621827948)	(-0.6158854244491323, -2.7757064226865023)	(7.8450052931854763, 0.32883133285403687)	(-1.894208927876682, 5.1509477605844545)	1.0	z	0.956559
21	M	B	A	A	B	N	M	N	N	8	3	shapes	A	0	False	80	(-7.3147295713089111, 8.6369679468350533)	(0.73099169596579294, 4.9271357757565166)	(2.9813277247426502, -8.1021064734878507)	(-3.4867665179983911, 1.5243306711861653)	1.0	slash	0.6583
22	N	A	B	A	N	B	M	M	A	8	4	shapes	N	0	False	80	(1.6521701228973278, -8.3778881681092514)	(-0.61712036335119613, 4.7704736580145326)	(-6.1224356349116977, 4.2012342867202541)	(-5.9677630928252547, -5.9262335489788915)	1.0	z	0.843923
23	M	B	A	N	B	A	N	M	M	8	7	shapes	M	0	True	80	(5.5139637951625105, -1.2838181202923273)	(0.74531386025839375, 2.6875061262453599)	(-1.8587319412913672, -4.9413212387871619)	(-5.0555537450350911, -1.7544370487029939)	1.0	slash	1.00552
24	M	B	N	B	A	A	N	M	B	8	1	shapes	B	0	True	80	(-1.2715766194198963, 3.7715840266267318)	(-5.2705914371540477, 6.348413220139804)	(5.3834070499623881, -5.8003696023976232)	(0.44405396275134557, -0.21754653150277825)	1.0	z	1.23108
25	M	B	N	A	A	B	N	M	B	8	6	shapes	N	0	False	80	(-6.0529146582178095, 4.9452271082148371)	(2.8757409657826134, -4.3202522035348556)	(6.1444286559282251, 0.96005763791079168)	(-5.1710472715542304, -4.6253890850387487)	1.0	z	1.10879
26	N	B	N	A					B	4	1	shapes	B	0	True	80	(5.542622784508719, -0.30825513298523788)	(-7.8061960994367023, -1.7816207029775031)	(-7.5791663298881442, 3.0872735194377974)	(6.4881009704817014, 6.2861994411063886)	1.0	z	0.80848
27	M	A	B	A	M	B	N	N	N	8	7	shapes	N	0	True	80	(-2.8162744218398421, -2.3534416588961529)	(3.2889620696903386, 8.4624302034476209)	(7.4378241775305689, -2.6881524552345626)	(3.2577016169324491, 4.336068743985761)	1.0	z	0.686173
28	M	A	A	M					M	4	3	shapes	M	0	True	80	(-4.0881412515709803, -5.8674027783651539)	(0.46872131193317657, 1.5709696095733392)	(-5.4511522302788702, 8.1603953860808893)	(1.7530557741721697, -4.1443225002264299)	1.0	z	0.751819
29	N	B	B	N					B	4	2	shapes	B	0	True	80	(1.7065695508016763, -8.5519802132770373)	(-6.3577834000344522, 6.0430552942838514)	(1.0708065498474451, 4.6733524078386814)	(-2.2172321235851946, -0.73168132651168527)	1.0	z	1.05124
30	N	A	N	A	B	B	M	M	B	8	0	shapes	N	0	False	80	(7.6133295484793138, 7.7786294110719929)	(-8.4219530676015211, 2.6638287997205889)	(0.95232105144880208, 8.468985678861447)	(-8.6964160117259617, -2.1660151722340784)	1.0	slash	1.13308
31	M	A	M	B					A	4	0	shapes	M	0	False	80	(5.7380545684197202, 7.432828883732757)	(2.5457706087277199, -5.2089702266023128)	(-8.1043364754976377, 8.5994661431272199)	(-3.6753532588083342, -2.6198120911587566)	1.0	slash	1.06068
32	N	B	M	N	B	M	A	A	B	8	4	shapes	B	0	True	80	(-4.6887607929584796, -3.8190627896461669)	(5.269303540322678, -2.1563318263383531)	(-1.2876170311020241, 7.0399039232861558)	(3.0268781421056872, 4.9993405683304637)	1.0	z	1.18228
1	N	A	N	A					A	4	3	shapes	A	1	True	80	(-5.2508147920783692, 4.5976801832318852)	(-0.97918559423222362, -7.452150489914712)	(3.5972664791210178, -1.1116685291673774)	(0.84403660913634404, 5.6679493651970549)	1.0	z	0.669962
2	N	A	A	M	M	N	B	B	B	8	3	shapes	M	1	False	80	(-8.3817383357563298, 2.2109853580776146)	(5.9078925036310803, 5.9133653976463236)	(1.5763236153245455, 6.2234528642694009)	(-4.2801545697054149, 1.5878471138855517)	1.0	slash	0.931563
3	N	B	A	B	A	N	M	M	N	8	1	shapes	B	1	False	80	(-0.93655113013412628, 4.4870406398168345)	(8.0900322786332062, 7.7739272860152582)	(5.1572093201542568, -6.8515552627535801)	(-4.9047948122316258, -4.1729306560490071)	1.0	slash	1.10732
4	N	B	B	M					M	4	2	shapes	B	1	False	80	(1.9963802006732827, 5.1924659741198056)	(-8.1529651403989263, -1.6286222570637578)	(0.049749179067289262, -1.6314499385535894)	(-4.7883388639602824, 2.7527856939121893)	1.0	slash	0.856966
5	M	B	B	N	A	A	M	N	M	8	0	shapes	M	1	True	80	(1.7595884258601231, 6.5692431570882839)	(-2.2615442946688615, 8.2609012350167568)	(-3.6489528171058376, 3.002996058913908)	(-4.6657717532806462, -5.2961315089826027)	1.0	slash	0.368566
6	N	B	A	A	B	N	M	M	A	8	3	shapes	A	1	True	80	(2.6504296658888258, -2.6928793303031275)	(8.4068273257382948, 6.7266725966594247)	(0.49576392335635155, 7.8628531732474443)	(0.95600427525176634, -6.8263856345446623)	1.0	z	1.04414
7	M	B	M	B	A	A	N	N	A	8	4	shapes	A	1	True	80	(7.8361536603927817, -6.4533114947892551)	(-0.59441496633496094, 0.15689629899260993)	(4.1165401381990865, -4.7115855299395886)	(6.5001626950822438, 3.043540081508608)	1.0	slash	1.15978
8	M	A	N	A					N	4	2	shapes	N	1	True	80	(2.7964652220833699, 3.6092560570797492)	(-0.81649281986105215, 1.8219727201302547)	(1.9397885818070559, -3.1483703179752753)	(-5.8049129483238957, -4.1835134871359374)	1.0	z	0.881484
9	M	B	N	N	A	A	B	M	A	8	5	shapes	A	1	True	80	(-0.28718214586123558, 8.5506743341505604)	(2.839794988143769, 5.1741821098262424)	(-6.4912239598419355, 2.6629275553711196)	(8.3429231375959141, 0.28936327047144594)	1.0	z	1.30912
10	N	B	B	A					N	4	3	shapes	A	1	False	80	(7.5384974321774934, -6.4103328981252377)	(-8.1876212740978076, -2.3058198139199124)	(7.5132296445210933, 4.4691505103422511)	(-4.7063088012538437, 3.8847169892017845)	1.0	slash	0.720599
11	N	A	N	M					N	4	0	shapes	N	1	True	80	(2.1239108684553685, -8.0945949980259808)	(6.6104803395836402, 5.5259917171368294)	(-1.4733934798708006, 5.2305883324813713)	(-3.4789888868995567, -2.9072335161643856)	1.0	z	0.826343
12	N	A	B	A					B	4	2	shapes	B	1	True	80	(-0.43545586579276829, 8.5165365057483307)	(6.0135862907033353, 1.9184708492360976)	(1.1210663405791568, -0.026603415785316997)	(-0.58196696804681203, -5.2586043391496116)	1.0	z	0.72004
13	N	A	M	B					M	4	3	shapes	B	1	False	80	(-5.1752900607112498, 7.9420079157562711)	(-3.738803840447547, -3.3405025586613748)	(6.7162526486675294, -4.3433846530020803)	(4.9320404002143547, 3.3601703794328106)	1.0	slash	0.665628
14	M	A	N	A					N	4	3	shapes	A	1	False	80	(-7.3360955599591007, -7.7261325112087729)	(4.9157950787279407, -7.847560020495516)	(5.6988238074908519, 4.650054095747608)	(-8.2754144398238818, 2.991173892311128)	1.0	slash	0.855348
15	N	A	N	A	B	B	M	M	N	8	0	shapes	N	1	True	80	(-7.5970867282748378, -8.2369960076378295)	(7.5126826651454124, 4.3736034380836539)	(1.4373486947302858, -8.2088174242346383)	(2.208211127797771, 8.1754040961345602)	1.0	z	1.24894
16	M	A	N	M	B	A	B	N	N	8	1	shapes	A	1	False	80	(-3.8112191196496541, -3.5826252926954654)	(0.77545592601540392, -1.0751760781625892)	(8.3542405477040163, -0.83751520167153526)	(5.7081476549744856, 4.0276316143327104)	1.0	slash	0.764694
17	M	B	N	A	A	B	M	N	B	8	7	shapes	N	1	False	80	(-6.6736787303950056, -1.870525015025124)	(4.1491107169104371, -2.3163802271099909)	(-8.6644104817503056, -7.4180152017565959)	(6.9257010722505239, 4.1453154256147364)	1.0	slash	0.888332
18	N	A	M	A	N	M	B	B	M	8	7	shapes	B	1	False	80	(-4.4532521898802955, 4.4172394965605992)	(-7.0544723551040196, -1.5375489431927143)	(-2.5241309834606467, -7.5591853376908089)	(0.99397969056986568, 7.2997085240761592)	1.0	slash	0.772253
19	M	B	B	M					B	4	1	shapes	B	1	True	80	(1.0494079588929885, -5.9954896385086744)	(-0.50080432689101428, 0.7039001688084312)	(-3.3413278108206619, -7.2671062746609172)	(8.6579526959778121, 8.152001449833886)	1.0	z	0.539627
20	M	A	M	B					M	4	2	shapes	M	1	True	80	(-4.3258321082505695, 2.3237846049354598)	(-2.4483367579128634, -5.1302507874506214)	(3.3834972052537786, 5.5450103557422636)	(5.0925811176545608, -3.8676998828931337)	1.0	slash	0.641271
21	M	A	B	A	B	M	N	N	M	8	6	shapes	N	1	False	80	(4.8404761574329491, 0.83722600933945834)	(-7.2763712340968043, -1.1754714347099613)	(-7.1329010072729506, 4.0641764662560007)	(-2.4556268325747155, -4.7178636934040865)	1.0	slash	0.716919
22	N	A	B	N					N	4	1	shapes	A	1	False	80	(4.9315051812650843, 7.2409566352951309)	(-5.6953624168422454, 6.7413361824973705)	(-1.3956279558024693, -3.9261789165347523)	(5.9559447663465352, -3.0499580713733945)	1.0	z	0.648526
23	M	B	M	A					N	4	2	shapes	M	1	False	80	(-8.012318793257414, -8.0022053616315301)	(-6.8641959361078744, 8.4444825938810801)	(1.8544708086810306, 1.3752135038479736)	(4.9215950251827483, -1.8811908183963331)	1.0	z	0.838135
24	N	A	A	N					N	4	0	shapes	N	1	True	80	(3.6149335941078071, 1.1973024947415745)	(-5.4394294802557628, 5.6103082071324533)	(8.4303453112514397, -6.3458616245745745)	(-0.11270275343570191, -2.7620117136819982)	1.0	z	1.03183
25	M	B	A	B	M	A	N	N	B	8	1	shapes	B	1	True	80	(-4.2919994730661628, 0.67468298141443839)	(6.9316580959470961, 4.3390514274518299)	(2.295924825658501, -3.5479637139971558)	(-1.1984209164667439, 6.511280153483364)	1.0	slash	1.72547
26	N	A	N	M					A	4	0	shapes	N	1	False	80	(-3.7156506966729088, -3.127191868329712)	(0.13102123679998456, -0.42400262970105729)	(3.7451064505185858, 8.2785625465977795)	(-3.9933479296853172, 5.1023201850568771)	1.0	slash	1.00717
27	M	B	B	A					A	4	2	shapes	B	1	False	80	(7.2999265513182792, 2.3081754760142665)	(6.328572703061365, -5.7123750875155865)	(-7.1257095099083978, -7.9241567105940778)	(-4.2265824058131516, 3.3665994493355953)	1.0	slash	1.0687
28	M	B	N	M					M	4	3	shapes	M	1	True	80	(-5.5501547200122872, 7.3761946105658005)	(3.4856399388777515, 1.6821719466163287)	(-3.8580141636521121, -2.5324439120668174)	(4.9798582578532358, -6.0005695430929409)	1.0	z	0.976381
29	N	B	N	A	A	M	B	M	A	8	3	shapes	A	1	True	80	(-7.3410200427106878, 2.237119064037179)	(6.5697906299227693, 1.2891630566533454)	(-8.337662131957952, -6.7990695315615248)	(2.7186807615572164, 5.0733534351317804)	1.0	z	1.93823
30	M	B	M	A	B	N	A	N	A	8	2	shapes	M	1	False	80	(0.14410804144186962, 8.2139591753695065)	(-1.0340759139625684, -3.8264451793234446)	(-7.0008857840654555, -0.19349251918419164)	(8.3329191959469853, -1.4140871508158375)	1.0	slash	0.779554
31	M	B	B	A	A	N	N	M	N	8	6	shapes	N	1	True	80	(3.6113793094248976, -7.7508038655814264)	(5.1563329917969742, -3.2271475905661289)	(-5.0229201644629438, 5.6324434185306345)	(-0.47114238341277392, 8.601202006542124)	1.0	slash	1.35525
32	N	B	M	A	A	B	N	M	A	8	1	shapes	B	1	False	80	(4.8756601070064072, 3.7225039510106495)	(-1.5043283159072462, -6.5879198940018338)	(-3.1351933414958095, 3.6529033508514974)	(2.7048628859278949, -4.1424198660384022)	1.0	slash	0.894773
1	M	B	N	M	A	N	B	A	B	8	1	shapes	B	2	True	80	(3.9185669776802925, -8.5605465242739189)	(0.12439907094480773, 0.48589970422158402)	(7.7045205294725569, -6.7220744019699321)	(-3.559436641492038, 2.6593566577803092)	1.0	z	0.842138
2	N	B	B	M					N	4	1	shapes	B	2	False	80	(8.1161899636599237, 7.1927991254948864)	(1.9025012595264617, -1.831370019250838)	(-1.0401348514537681, -5.2200668968386195)	(-8.7378264393901279, 1.5283825264872632)	1.0	slash	0.659537
3	N	A	N	M					N	4	1	shapes	A	2	False	80	(-3.8070588862706574, 4.3929929338214304)	(-0.02999240352438548, -6.1504837332228952)	(2.9115376071613461, 3.0688970054132128)	(4.4486946705816308, -4.585576737046785)	1.0	slash	0.601912
4	N	B	M	A	M	N	A	B	N	8	2	shapes	M	2	False	80	(5.5951958160284647, -3.3761159244658785)	(7.9900691899365022, 5.6639872764345984)	(5.2696243209246543, 0.89576906286903402)	(-7.4316953817503189, 2.0431802430056862)	1.0	slash	0.613528
5	M	B	A	N					A	4	1	shapes	B	2	False	80	(4.5545141679914352, -2.5629338743538925)	(-2.4472575450323832, -4.304972045662697)	(-5.8752992381141809, 7.0285733301907278)	(8.6121018839922208, 4.2446755721810128)	1.0	slash	0.637193
6	N	A	N	B	B	A	M	M	A	8	1	shapes	A	2	True	80	(1.1704569783665537, 1.8579838932320794)	(0.57240299668875494, -2.9015458437177228)	(8.3896915290739429, -5.9070877866216192)	(-5.073011749709802, 0.78996547349528434)	1.0	z	0.898672
7	M	A	B	A	B	M	N	N	B	8	4	shapes	B	2	True	80	(-8.4094716590694194, -0.24313889719559612)	(0.79653361235775577, 2.1793218353928445)	(-1.4498701643654419, 8.4497374729747001)	(-1.0341790439605134, -7.3457268419639554)	1.0	slash	1.32458
8	M	B	N	N	A	M	A	B	A	8	6	shapes	A	2	True	80	(7.9257915617523729, 0.63269216166988862)	(8.2777084454693686, -6.745119914948547)	(-0.84135720091113164, 7.3435846767016955)	(-1.0386153469905732, -0.94231391570926704)	1.0	z	1.36797
9	N	B	N	B	A	A	M	M	B	8	1	shapes	B	2	True	80	(8.7344443113197272, 0.94589504377825762)	(-0.86264664752684084, -8.3736622291924139)	(3.3866725640933311, -1.2721409203037677)	(7.3157119333146134, 8.2752167667368823)	1.0	slash	0.697705
10	N	B	B	N	M	M	A	A	M	8	0	shapes	N	2	False	80	(0.84888205830553964, 8.3962243473285447)	(-3.842514093377182, 1.7540917061475181)	(2.9515082475363048, -4.6718472953298864)	(2.1452506639688824, 2.1273138181174112)	1.0	slash	1.33918
11	N	A	B	A	M	N	M	B	M	8	4	shapes	M	2	True	80	(-7.4663605765773706, 6.1636732297810077)	(-8.5508648453841332, -7.4362272914404555)	(2.8412928057881963, 5.1539870588194159)	(-5.8750556839643551, -1.5026425654190714)	1.0	z	1.00494
12	N	B	M	N	A	A	B	M	A	8	5	shapes	A	2	True	80	(5.0215956218738818, -3.6528779714550792)	(0.67773891055416513, 5.920912612502649)	(-4.6783656686297261, 6.6267061091403257)	(-1.7701900612323733, 0.59161116334904307)	1.0	z	1.07261
13	M	A	B	M	B	A	N	N	A	8	4	shapes	B	2	False	80	(-6.2615089381922697, 1.0797004663658747)	(5.276857503541736, -1.5955510614748931)	(0.63309547120690191, 3.5378770860023288)	(-1.8421046685844402, 8.3740516055848779)	1.0	slash	0.790286
14	N	B	N	M	A	M	A	B	N	8	4	shapes	A	2	False	80	(3.8886421455961315, 1.9614352631896335)	(-5.9105831545497676, 4.7271442123949061)	(4.3369512230083433, -2.9294844698368907)	(-1.2545125769259222, -4.7581627479877948)	1.0	slash	1.09188
15	M	A	N	B					A	4	1	shapes	A	2	True	80	(8.4342414994869941, 8.6034040596470014)	(-4.4176691345985324, -7.9777287902517582)	(-3.552593218682123, 2.8976696587076116)	(5.8864754383906561, -5.2634903992441977)	1.0	z	1.21943
16	M	A	A	N					B	4	2	shapes	A	2	False	80	(1.3704144223730133, 1.3287330695646666)	(-2.6953923370711665, -7.5109274386473635)	(7.8173501257374483, -7.7906400786728813)	(-5.707217832416549, 6.6342736272495539)	1.0	z	1.29727
17	N	B	A	B					A	4	2	shapes	A	2	True	80	(-2.7766961579413927, 0.10561521820265973)	(4.8980927391419016, -8.6080542062310137)	(-4.0544471988422766, -6.4586853783355718)	(1.7038498354881622, 4.8870870645949793)	1.0	z	0.624922
18	N	A	B	M	A	N	B	M	N	8	5	shapes	N	2	True	80	(5.345248078905259, 7.8213918739547204)	(-6.3648892178562644, 5.5745036948696498)	(6.9286916397957885, 2.2160676176073402)	(-4.3218934479223297, 2.0184082563046459)	1.0	z	0.848417
19	N	B	B	A					N	4	2	shapes	B	2	False	80	(0.85104567098866823, 7.4104960533251791)	(-4.1635904972098592, 5.6566873295877578)	(7.5610458980174649, -0.62983166802231949)	(-6.9636914157495093, -5.4908036645074638)	1.0	slash	0.816087
20	N	B	N	B					N	4	0	shapes	N	2	True	80	(6.3713119301013101, 7.7941822861319352)	(-4.7377381845592117, 8.4070383646751026)	(-2.1111075634899104, -6.2730742861057429)	(2.0911821258626251, -2.6197741313238661)	1.0	z	1.10348
21	N	B	A	N	B	A	M	M	A	8	4	shapes	B	2	False	80	(8.1694957897011342, -4.0998046428227592)	(3.5517000126242433, 5.7137856505544047)	(5.6256646812750173, -0.58920218712651007)	(-5.3976464657015608, -3.8058829452579639)	1.0	slash	0.695304
22	N	A	N	M					N	4	2	shapes	N	2	True	80	(-7.436363043753591, 1.4499625966388052)	(8.1773050329667463, -5.9029615987108173)	(-2.6172679256199931, -7.5979017433433809)	(1.429188952035723, 0.029871156524659881)	1.0	z	0.77507
23	N	A	A	M					B	4	3	shapes	M	2	False	80	(3.6367058562162988, 0.33535879770817445)	(-4.9268861257419063, -5.5641290551210396)	(-0.97114851610754815, 1.3182524819314843)	(5.8663076367917242, -5.6342586972386286)	1.0	slash	0.774678
24	M	B	A	A					A	4	1	shapes	B	2	False	80	(3.5527455002921009, 3.2697464554892299)	(-7.0114021076172106, 0.96541986801724811)	(6.7322058871483819, -5.5265621429889595)	(-1.926723126684724, -4.5613785261895385)	1.0	slash	0.51829
25	M	B	M	N	N	B	A	A	M	8	1	shapes	B	2	False	80	(-0.62731307032000139, -2.7104848160393153)	(2.0692906976770686, 8.0585847609739965)	(4.1657658848861097, -3.0765840531739652)	(-2.5284195576549049, 5.9924939881980475)	1.0	slash	0.756048
26	N	A	B	A					N	4	0	shapes	N	2	True	80	(-3.1481126537218938, 1.518359814548873)	(-8.1885657213334575, -8.4778360018215544)	(6.4288528525928026, -2.4294386962745573)	(3.9608855064184247, 7.3057446101296328)	1.0	slash	0.62165
27	N	A	M	B					A	4	1	shapes	A	2	True	80	(-0.37820229798634664, 7.148506760131605)	(-3.3885445319088436, -0.40375566357246484)	(3.0518134234590395, 0.67319391923271255)	(2.517650141034169, -8.1463862050903764)	1.0	z	0.946779
28	N	B	B	M	M	A	N	A	B	8	3	shapes	M	2	False	80	(0.71104746842171274, -3.3799709155686211)	(-6.8698031161563362, 5.5385142167438843)	(8.1356033719219596, 6.6640885843479865)	(-3.7221792160325675, -7.6564703279650059)	1.0	slash	0.618962
29	M	A	N	A	M	N	B	B	A	8	5	shapes	N	2	False	80	(5.6441384297981578, 3.6638595908851599)	(1.6858525006920679, -5.9761917992580473)	(5.2858460746636755, -2.2971643380476037)	(-7.7465663083592196, -5.4316590820147059)	1.0	slash	0.724584
30	M	A	B	B					A	4	1	shapes	A	2	True	80	(-5.8846056714257395, 8.3172432889959858)	(7.4848887639253121, -2.9896789688347507)	(1.3011155717081557, 8.5093163233319835)	(-8.4476953750266919, -1.1243719312472855)	1.0	slash	0.630326
31	N	B	B	M					B	4	2	shapes	B	2	True	80	(-8.3486942663275574, 7.6030978040414006)	(3.6970327408125065, 8.6328093962623527)	(-1.726165290519746, -3.0204438986120845)	(4.0776137424445338, -6.4996068754362026)	1.0	slash	0.721968
32	M	B	M	B					M	4	3	shapes	B	2	False	80	(1.5712185976385058, 0.88297464047836804)	(-5.6624167058422321, -4.0686858148903084)	(3.8075107930997731, -4.7446526338931321)	(-2.2719529313821889, 7.6001629652852856)	1.0	slash	0.547634
1	M	B	B	M	A	A	N	N	N	8	2	shapes	B	3	False	80	(-5.9012534716758829, 1.555775945340871)	(-3.7497426102451961, -5.7367499424211488)	(-1.5477793634726194, 2.9598447178381591)	(0.73554319910892829, 7.1214293338409327)	1.0	slash	0.549346
2	N	A	M	B					A	4	1	shapes	A	3	True	80	(-4.7667903381600878, -8.0181077737518418)	(3.8680655330041116, -8.0452499703196345)	(-6.046859438492648, 6.9595793089150231)	(0.033959325715532174, 4.446698699005708)	1.0	z	1.48086
3	M	A	M	N					M	4	2	shapes	M	3	True	80	(-1.1831898284923845, -2.7337178136448781)	(-7.4283388614119108, 3.102667652681788)	(8.6026984946127314, 3.9850356093210593)	(2.7328727946137814, -7.2298076115470638)	1.0	z	1.63449
4	N	B	N	B					M	4	3	shapes	B	3	False	80	(-7.5514435053828661, -7.0072528318586764)	(1.81350836381473, 4.1797568381422323)	(-6.5826948864581016, 5.8942193514434109)	(3.5817588393018926, -0.91399118102707799)	1.0	slash	0.668214
5	N	B	A	A	N	M	M	B	M	8	6	shapes	M	3	True	80	(-7.4781591273052861, 7.9701057401422517)	(7.1062224262667968, 4.0611439057740029)	(-7.7847289900633951, 2.5132379349403564)	(0.78906529157864291, -5.3946425519741172)	1.0	slash	0.803853
6	N	A	M	B					N	4	0	shapes	N	3	True	80	(-3.2813992510273975, -4.5259940132123955)	(3.9214244873940896, 4.544792372912605)	(-2.4166066212147701, 3.6921457619152847)	(4.8638841048069086, -3.0629142160044562)	1.0	z	0.725531
7	M	A	M	B	N	B	N	A	A	8	3	shapes	B	3	False	80	(-0.02818850846098897, -3.1459217248045821)	(-6.1484947676546629, -4.5717579939548552)	(7.2933502995445636, -1.3429959315762261)	(-5.8110834936851372, 5.4005691369793176)	1.0	slash	1.19904
8	N	B	N	B	A	M	M	A	M	8	2	shapes	N	3	False	80	(-1.858348333369527, 1.1970964482203517)	(8.2949938450859264, 0.23748040387115132)	(-8.3955311028995325, -2.5573122153429653)	(-6.8141522020841183, 7.2624395781580162)	1.0	slash	1.31466
9	N	A	N	B	A	M	B	M	B	8	0	shapes	N	3	False	80	(-7.5220315572212311, 5.2492193580971271)	(-1.0214693497108334, 2.3586725442855911)	(8.3385048329426077, 8.387847760564533)	(3.3180309658569058, 3.8499674833400217)	1.0	slash	0.574248
10	M	B	B	M					M	4	0	shapes	M	3	True	80	(0.52444399310168777, -1.530642202391884)	(4.8085061247504193, 0.58866612828533604)	(-3.0420890096672881, 3.5715874680632069)	(-5.4302234960830038, -2.7536580053800499)	1.0	slash	0.725945
11	M	A	B	N	A	B	M	N	A	8	4	shapes	A	3	True	80	(-0.27032002825781731, -8.6051349736379699)	(-4.05690785887675, -1.0891225734355832)	(-8.0867586312757496, 3.4695267099110119)	(7.2581028918671535, -0.82610021751842577)	1.0	slash	0.809517
12	N	A	M	N	B	A	B	M	A	8	5	shapes	A	3	True	80	(-4.5908029945518498, -6.3102002903794858)	(-0.23283286227720801, -8.0563376941812024)	(8.0125412870050532, 0.81664334252730519)	(-1.8558494339682223, 4.7615910784202562)	1.0	z	0.787416
13	N	A	N	B	A	B	M	M	A	8	1	shapes	A	3	True	80	(3.6498270756827083, -7.4406483147784019)	(-5.0403027778811644, 3.4029168243246701)	(4.2433414327529224, -1.8347098326452755)	(5.7683226846168623, 6.4908917934616994)	1.0	slash	0.938832
14	N	A	N	M	A	M	B	B	A	8	5	shapes	M	3	False	80	(3.4587556761098988, -2.8007189634567737)	(-0.71013033639304268, 1.2206691678141635)	(2.2171644064890792, 6.6162920716292106)	(7.0709925486136083, 8.4353323137380869)	1.0	slash	0.738453
15	M	B	A	A					M	4	3	shapes	A	3	False	80	(-0.15002446883950959, 5.7868703902759879)	(3.6317330346331733, -8.5060309299291745)	(-5.4824090565150891, -1.2319974188566771)	(6.1557577149513261, 5.6088535718851684)	1.0	slash	0.608257
16	M	A	B	M	N	N	A	B	M	8	1	shapes	A	3	False	80	(0.2562110005224767, -4.4766896158154728)	(-5.1406230403314011, -4.5606755503434115)	(-5.8111362181623791, 6.6606035523089524)	(-5.0061188390870575, 1.5681474179843669)	1.0	z	0.955982
17	N	B	A	B					B	4	1	shapes	B	3	True	80	(5.6605710776254288, -7.8336947223414288)	(-1.838528751826737, 3.6419039734487271)	(-1.4308053832588357, -0.51791387440789904)	(6.0401808580865044, 2.0044852691141699)	1.0	z	0.799637
18	M	B	A	N	N	B	A	M	M	8	7	shapes	M	3	True	80	(4.8385797488918953, -6.534052219659559)	(4.6093127149493487, 3.7775081044099306)	(-0.30666748338992811, -6.7397051214929666)	(-5.74030680887389, -3.0863774105699093)	1.0	z	1.09936
19	N	B	B	N	M	M	A	A	B	8	2	shapes	B	3	True	80	(0.84199883474321702, -2.6717869053347085)	(6.5282970332854688, 0.02675307679321115)	(-1.1038725198504062, 1.1102254106454392)	(2.3357914944826046, 7.0289508630499178)	1.0	z	0.48474
20	M	B	N	N					N	4	1	shapes	B	3	False	80	(-7.5352096372362416, -4.7948491067898775)	(3.7848906122932053, 6.8593953104985044)	(4.2797131341577774, -0.26919807019329944)	(-1.8981043028151454, 4.4794938630668515)	1.0	slash	0.774554
21	M	B	M	N					A	4	2	shapes	M	3	False	80	(0.98050721247081185, 5.6296846321561329)	(-2.8530684391813521, -1.949388154341384)	(-4.2424951797171548, 8.6128100093869193)	(1.8105815208655915, -2.9712521749951701)	1.0	slash	0.822244
22	N	A	B	A	B	N	M	M	A	8	1	shapes	A	3	True	80	(7.327505488107164, 2.0681378226607166)	(-8.6993388520800892, -7.5870966864053671)	(-4.3740356271465783, 6.3402496415077074)	(2.8348487603255226, 3.8652141450128852)	1.0	z	0.965854
23	M	B	B	M					B	4	2	shapes	B	3	True	80	(-4.3397490109879149, -7.9127809866132628)	(3.1932393086444026, 3.6457900692289638)	(0.075398735365446612, -4.6213586712363703)	(-7.4091364458102591, 7.0899687781612801)	1.0	slash	0.583517
24	N	A	N	B					M	4	1	shapes	A	3	False	80	(-7.5121391997631353, -3.5161132709401164)	(5.8959233294678519, 5.0261387289479575)	(-8.3400593552545317, 5.059257957122373)	(5.9621108602028983, -2.0387187894632701)	1.0	slash	0.557265
25	N	A	A	B	M	B	M	N	B	8	4	shapes	M	3	False	80	(-0.1149035149678177, -7.2686416801146105)	(6.0385242917284288, 6.2810357166299369)	(5.9307018453129743, -6.5495260636916388)	(-4.3530026997208076, -8.4579897886398374)	1.0	slash	0.546939
26	N	B	N	M					N	4	3	shapes	M	3	False	80	(-6.2304925801953761, 5.3359129966909364)	(6.9091239942748519, -8.1085511752041306)	(-1.1404597903016018, -4.3689042788727006)	(8.1953636535582568, 6.8291299135682255)	1.0	slash	0.462566
27	M	B	A	B	A	M	N	N	N	8	7	shapes	N	3	True	80	(-7.9364865680033194, 8.6894124610116386)	(4.9124447832859932, -2.6354270710180421)	(-3.4099593946553703, -2.6732580219650206)	(7.1059335778789894, 4.6141729202519723)	1.0	slash	0.422074
28	M	A	B	B					N	4	1	shapes	A	3	False	80	(-3.2496772713296433, -0.98986001885011987)	(-3.1489070347585413, 5.9893010452841366)	(8.0896742316067076, -5.4677686501896412)	(7.6276326234769201, 2.4854318957027104)	1.0	slash	0.475923
29	N	A	N	B					M	4	2	shapes	N	3	False	80	(-6.5594555228111524, 5.5456091323434986)	(3.1096205021068908, -0.77349809348292187)	(1.9280751780515484, 7.3920192181137629)	(-6.2712265880061278, -2.2750568609963446)	1.0	slash	0.43172
30	M	B	M	A	A	B	N	N	M	8	1	shapes	B	3	False	80	(2.2291646263679592, -2.7274604928368706)	(4.4624386156951967, 4.3310885011098517)	(-2.2710895629843035, 6.9177087008255924)	(-7.4854209206158462, 0.41785897176280784)	1.0	slash	0.517304
31	M	A	A	B					B	4	3	shapes	B	3	True	80	(-4.3209961052390629, 8.0834965953142159)	(3.9173837139031118, -7.814507375640428)	(-1.9025931881344569, -1.7284637126207008)	(0.50114728057913283, 4.0599099436503696)	1.0	z	0.582528
32	M	A	B	N					M	4	0	shapes	M	3	True	80	(-3.5258736695885888, 0.4552397195814919)	(8.4379669937159356, -0.07015755965520043)	(-4.392463805520765, -3.989935682248241)	(4.2065579638937418, 5.832984501038208)	1.0	slash	0.948413
1	M	B	N	M					M	4	0	shapes	M	4	True	80	(5.4321341724044157, -7.5039675262836871)	(-5.2831906810988416, 1.9020300955537337)	(-1.37249402747877, -4.8837985645514213)	(5.373276377898458, 5.5574301666333206)	1.0	z	0.682295
2	N	B	N	A	B	A	M	M	M	8	7	shapes	M	4	True	80	(8.0611433777449228, 7.5316393184683541)	(8.283295660724292, -4.7866985883408635)	(-0.011846619888062904, 7.4365038661536005)	(-6.8998055855717375, -0.85285496205461797)	1.0	z	0.613959
3	M	B	A	M	N	N	A	B	A	8	7	shapes	B	4	False	80	(5.2618969400285902, 0.36871376049691484)	(-0.096290276170291733, 3.854460169843108)	(-6.9393411210809042, 6.9356689850901834)	(2.7534167853690832, 7.9142340977953936)	1.0	z	0.805592
4	M	B	M	N					A	4	2	shapes	M	4	False	80	(-1.0456703103029694, 3.8515881299990902)	(7.0155045540750667, 3.414863052443474)	(6.4770294513283986, -6.3065419094241211)	(-7.944936103683407, -7.4318578795477768)	1.0	slash	0.727211
5	M	B	M	N	N	A	B	A	N	8	5	shapes	A	4	False	80	(3.5062750481797149, -0.61828634274180416)	(3.2381839496328304, 5.9964172788500605)	(6.192616114338847, -7.6072055772946552)	(-5.9583757615156738, -6.7690149931913535)	1.0	slash	0.480995
6	N	B	M	A					A	4	3	shapes	A	4	True	80	(-2.8579359586779631, 7.8957277774926879)	(2.2607992365612688, -3.1240662501372505)	(-6.1399534739008859, -7.1915456357229406)	(8.7414566415119985, 6.2539580100093275)	1.0	z	0.698297
7	M	B	N	B	N	M	A	A	N	8	4	shapes	N	4	True	80	(-0.47224687062052695, -0.21644273810733239)	(-5.7254644037276865, -0.770760627566907)	(2.9491279833004569, -4.1080184586119097)	(6.0685642520165608, 8.7068391057241641)	1.0	z	0.610163
8	M	B	N	M					N	4	0	shapes	M	4	False	80	(-2.5701439910756472, -8.7475786577297256)	(0.21846629106648763, -5.461973460290559)	(3.1050305503626099, 0.84573043824540939)	(-5.7594156962461156, 6.5451192836224212)	1.0	slash	0.57786
9	N	B	N	M	M	A	A	B	N	8	2	shapes	N	4	True	80	(-2.0517292171917605, 4.2011440147842922)	(-8.0254820755148408, -3.3936323357946918)	(5.6193318542359521, -7.1342803494598606)	(8.6665468033724693, 6.5456715357135344)	1.0	z	0.817643
10	M	B	A	B					B	4	1	shapes	B	4	True	80	(1.1074726525977141, -8.4011759215806503)	(-7.6897290338170725, -5.4076203779628891)	(7.6267181879254302, 4.5312308591258184)	(-6.3734600219071753, 3.9497675987961767)	1.0	z	0.639277
11	N	A	N	A	B	B	M	M	B	8	0	shapes	N	4	False	80	(-6.6895155304725069, 5.1482579443004965)	(6.9442574733811853, -1.6483786669238514)	(3.3958876594138854, -8.2866303205932645)	(-3.6920666541087801, -1.9174052640714514)	1.0	slash	0.546886
12	M	A	N	B					N	4	1	shapes	A	4	False	80	(-6.5556309563376249, 1.375731137542866)	(6.7494486172685271, 3.0150397415847685)	(-0.090506706675416382, -6.7403447290652725)	(7.8621150107037927, -2.4970400938674731)	1.0	slash	0.608647
13	M	B	A	A					A	4	0	shapes	M	4	False	80	(-3.0255444893316596, 5.9390170373821523)	(7.1921789562273464, 7.2194377222494968)	(1.5008077418681403, -6.5756883282532694)	(-6.9901008076551836, -6.3130991404199719)	1.0	slash	0.832208
14	N	A	M	M					M	4	0	shapes	N	4	False	80	(-6.3598587485959532, 7.6071739846667086)	(0.072935800863927369, -8.6511265478400574)	(-6.1998992519185432, -4.2602451807123369)	(3.9081424863044507, 8.5409928146773559)	1.0	slash	0.643446
15	M	B	A	M					M	4	0	shapes	M	4	True	80	(-5.4516125668405078, -7.2946992341183581)	(4.2037666744426296, 2.7006267975371081)	(-6.6604752089778883, 6.0132713304470577)	(7.6916403975416188, -0.33094192515317644)	1.0	slash	0.885579
16	N	B	A	B					B	4	2	shapes	A	4	False	80	(5.4154489533100616, 0.57590730740813356)	(-2.0491831316657096, 5.4242544510203778)	(-3.9837435799751484, -3.5905652330570428)	(5.9740492975614234, -6.5067225558974178)	1.0	z	0.615244
17	M	A	M	B	N	B	N	A	M	8	6	shapes	N	4	False	80	(-1.1113149733171923, 5.0451356959620011)	(2.7320981722740356, -6.5202484918423931)	(2.5780665523263657, 2.962319532522848)	(7.9427955868595532, -8.5092991551526396)	1.0	slash	0.566743
18	N	A	A	M	N	B	M	B	N	8	0	shapes	N	4	True	80	(4.9181028008117504, -8.5622162971421716)	(-0.69396994134138268, -8.664786639420802)	(3.5806016252971418, 0.65044374232029512)	(-8.6354415713831543, 3.9596744019996137)	1.0	z	0.522647
19	N	A	M	A	N	B	M	B	N	8	4	shapes	N	4	True	80	(3.3666403372157703, -5.8416140307155047)	(5.4578077480043223, 4.7385349193888988)	(-1.6038043755991325, 3.7102136581450562)	(-2.0342307509986002, -6.2076374020885785)	1.0	z	1.00827
20	M	A	A	M	N	B	N	B	A	8	2	shapes	A	4	True	80	(-2.2746291223843977, -8.0125597355289599)	(6.4194306598193513, 8.4257402346840848)	(-2.2781294440879734, 4.5533910381517515)	(3.3168574709994392, 4.0948880782830059)	1.0	z	1.13794
21	M	B	A	A	B	N	M	N	A	8	6	shapes	M	4	False	80	(-5.4148330748866247, -5.8206125051868831)	(1.3061382664495103, -5.5512406950223188)	(2.9926703954686467, 4.6992165151486525)	(7.5267603210601095, -5.5656031227585689)	1.0	slash	0.937421
22	M	A	A	B					A	4	2	shapes	A	4	True	80	(6.105623913090195, -3.7403310603023812)	(3.6879410834743513, 2.6654026948143059)	(-7.7627504809488546, -2.2131302487705646)	(-4.318293420202707, 1.4213524541994467)	1.0	z	0.743129
23	N	A	B	A					M	4	3	shapes	A	4	False	80	(3.1047051302978339, -0.34072983932200351)	(-6.0224119342585016, 5.9532122657472524)	(0.82504862422298331, 7.3256177923639854)	(-2.6339480092184742, -7.0565149999577743)	1.0	slash	0.84479
24	M	B	A	B					B	4	1	shapes	B	4	True	80	(5.0849273392441159, -5.4162578885068395)	(-4.6551371540510056, -6.7417983678690954)	(-3.6790793435250375, 0.071867604749092706)	(2.8043632407544905, 2.3968751606604854)	1.0	z	0.670415
25	N	A	B	M					M	4	3	shapes	M	4	True	80	(-4.1649615414640575, -7.6503511146593635)	(4.9860636677316243, -2.1518300313290393)	(-3.9296836616848871, 6.2871351294990276)	(5.8740736348120386, 7.2499321927284832)	1.0	z	0.690133
26	M	A	B	B					M	4	0	shapes	M	4	True	80	(6.8661496014163728, -1.161789271420731)	(-2.7467012789880139, -6.8784646136625796)	(7.2872778060630203, 5.8788103182059448)	(-4.7397243940214429, 4.1599295928638487)	1.0	z	0.65763
27	M	A	M	N	A	N	B	B	M	8	2	shapes	M	4	True	80	(-4.1714837357806278, -8.7145488124204409)	(4.8581509594485919, -5.5460164059548394)	(1.9625156300461839, 7.1934473314227869)	(-2.7112226977700988, -3.5340398809689173)	1.0	z	1.41936
28	M	A	N	A	M	N	B	B	M	8	7	shapes	B	4	False	80	(-1.1831753423310243, 2.8058170927846948)	(2.1575067386000395, -8.2841057344823508)	(6.0378809573789933, 0.78918545288341591)	(2.6007001838424681, -1.4280170943196344)	1.0	slash	1.08497
29	M	A	N	A	B	B	N	M	N	8	6	shapes	N	4	True	80	(1.2581455886303363, 0.25122056527165881)	(8.5351354733838001, 7.6713784861134435)	(8.3007540972272764, -2.617155230682612)	(-1.7573655041042713, 3.083310917540544)	1.0	slash	0.902659
30	N	A	B	M	M	N	A	B	B	8	0	shapes	N	4	False	80	(1.162965140165257, 6.3990709838855029)	(-1.5343850727834853, 0.97279131308552103)	(8.4035961308426437, 0.87022167506120773)	(-5.0083200703342037, 3.5426022275732585)	1.0	slash	0.646417
31	N	A	B	N					M	4	3	shapes	N	4	False	80	(4.3430058993538623, 2.2135694648972351)	(3.4742937851280775, -3.7700703944359404)	(-3.2311083546346699, -8.4414542575750975)	(-2.9953629334473124, 0.6515892449345273)	1.0	slash	0.952138
32	M	B	A	N	M	B	A	N	B	8	6	shapes	A	4	False	80	(-3.2818612521520141, -8.2777321003968609)	(3.273459493201738, -2.6169458970113961)	(-5.7673476564706831, 2.165177557906647)	(-2.1520706981562405, 6.4247566276629637)	1.0	slash	0.597817
1	M	B	A	B					B	4	1	shapes	B	5	True	80	(8.6571996791647869, 4.2721486670532514)	(-0.68822558635550024, 4.5888035202204716)	(0.37668227033347534, -3.5107235464759476)	(-2.8436872182266866, -7.1736422008800362)	1.0	z	0.547357
2	N	B	N	A					B	4	1	shapes	B	5	True	80	(5.0186059827404215, 2.1961139651494221)	(-2.816573889691572, -0.12778300696826328)	(2.3188895584912927, -4.8824860886043906)	(-8.6100644174910403, 1.490936838401657)	1.0	slash	1.21683
3	M	A	N	A	M	N	B	B	M	8	6	shapes	B	5	False	80	(5.0359807223974045, -2.5429455272493469)	(-1.2766204863150943, -4.1526416125376269)	(8.3868320795341731, -5.2849920671939579)	(8.3324042726320542, 3.8011615610591196)	1.0	slash	0.5126
4	M	B	M	A	A	N	B	N	A	8	0	shapes	M	5	False	80	(-5.7685375179979879, 1.6186680214131268)	(1.5370134216480604, -0.9171277046543036)	(-7.4143196054658622, -4.2423796201597073)	(6.4915914067433054, -2.7213174449093351)	1.0	slash	0.64424
5	N	A	N	M	M	A	B	B	M	8	2	shapes	N	5	False	80	(-1.9116396313410871, 5.8151166453000886)	(-4.521378932297627, 2.6926888437050032)	(7.1511923749583772, -7.6087213514965839)	(2.7895808654655792, 0.081978218509616951)	1.0	slash	0.728005
6	N	A	B	A					M	4	1	shapes	A	5	False	80	(5.258579218781275, 8.1085372560071711)	(-6.7317315889822904, -4.8183184494258118)	(-7.8907761847602496, 0.9319214857150584)	(1.6391890462276226, -6.2593973705302064)	1.0	slash	0.615609
7	M	B	A	M					N	4	1	shapes	B	5	False	80	(3.9842794211108146, -3.4741920459961602)	(0.17496286440605324, 8.0490745965958119)	(-3.4496228921765413, -6.6009622826569565)	(-5.0431965362471143, 4.1904830207063561)	1.0	slash	0.495139
8	N	B	M	M					M	4	3	shapes	M	5	True	80	(-0.065719937066866407, -3.4790138238497788)	(6.5305524799558867, -3.3674342337178986)	(-0.55061326706518976, 2.526928795732811)	(1.2507364937144168, 7.6188677324608456)	1.0	slash	0.478932
9	N	A	M	A					N	4	0	shapes	N	5	True	80	(-3.147355984890515, 2.979059813592011)	(5.5483896632474856, 1.8117805529626452)	(1.0928569723490131, -2.4375090279873293)	(-4.6770272976046314, -7.8454747469797663)	1.0	z	0.872653
10	N	A	A	N					B	4	0	shapes	N	5	False	80	(3.5036049059759602, -3.2827455502743108)	(-0.10899401192419944, 5.896989359297784)	(6.9609918463551637, 6.3996817221178741)	(-8.3115997639240042, -6.3075170731502963)	1.0	slash	0.852243
11	N	B	A	A	N	M	B	M	N	8	6	shapes	B	5	False	80	(6.9990959069141194, 6.4050114794710691)	(-7.1879760661668248, -3.3002416918478055)	(3.0807659267686471, -2.7560893921721794)	(-7.9715680701036415, 6.4281715571056779)	1.0	z	1.17184
12	M	A	M	A	N	B	N	B	A	8	7	shapes	B	5	False	80	(0.2350291892172276, -3.583902766645676)	(-6.7728692851604606, -3.1318530260717203)	(-7.2152230578778944, 1.7769981418280079)	(8.7243087492705911, 0.45883384540007555)	1.0	z	1.20356
13	M	B	N	N					N	4	1	shapes	B	5	False	80	(-6.5494374551939316, -6.0072875861257113)	(0.37417098940335514, 1.860625188532353)	(-7.7716510114114516, 2.3916093101350846)	(3.9562611061219357, -7.9465678408097942)	1.0	slash	0.893089
14	M	A	N	N					A	4	3	shapes	N	5	False	80	(5.8123266298214453, 7.21653206060987)	(-1.5264778614354171, -1.37742959545891)	(-1.6089503797766804, 4.8561855391427837)	(3.6898924552814432, -1.7611711090867495)	1.0	slash	0.708728
15	N	B	A	A	N	B	M	M	N	8	0	shapes	N	5	True	80	(-2.6449189630259857, 6.9957458486467878)	(-1.458731828506588, -2.5539254928237076)	(6.8506478730811455, -0.27968354345413182)	(2.2689239650342312, 5.6196954478928962)	1.0	slash	0.714431
16	N	A	A	M					B	4	2	shapes	A	5	False	80	(-5.7127841428088884, 1.122174094753321)	(7.8236891457324695, 0.78544199507697954)	(7.8411495557779354, -6.1217216451056498)	(-2.5017953731762876, -3.879867985148187)	1.0	slash	0.758139
17	N	A	A	M	M	N	B	B	N	8	0	shapes	N	5	True	80	(-5.8576285828957015, -2.3702305714131437)	(-0.69310044205182209, 1.2276361690290525)	(7.9073714330598328, -6.115999178594679)	(-1.1173901667834141, -6.1104954183847049)	1.0	z	0.521948
18	N	A	B	N					B	4	2	shapes	B	5	True	80	(3.8835599110046708, 4.197123476126162)	(-4.4080884392589779, -6.6931376343825573)	(-7.5886656778090424, 3.755179232559323)	(3.8792671684830005, -1.7801072360493198)	1.0	z	0.571477
19	N	B	N	M					A	4	1	shapes	B	5	False	80	(1.0933949789204291, -8.4923077760620398)	(-2.7975038858065364, -5.529648410617229)	(3.2951890541524502, 4.5094091384807395)	(-2.3563573709619465, 8.663671125980823)	1.0	z	0.843108
20	N	B	M	M	N	A	A	B	B	8	1	shapes	B	5	True	80	(4.8084843751796775, -2.5333619602551698)	(4.1147330495759959, 6.3331254496470812)	(0.063364909978675499, -6.5226619049888246)	(-0.29610284055343072, 7.3724690113777349)	1.0	slash	2.05468
21	N	B	A	M	B	N	A	M	M	8	0	shapes	N	5	False	80	(4.4323562172220399, 0.48090786619350112)	(-5.8080429372138154, -1.4570129117463821)	(-1.3757979925792574, -6.4921981935730724)	(-1.6689730919122825, 7.6093333453991647)	1.0	z	0.872246
22	N	B	M	B					N	4	2	shapes	M	5	False	80	(3.6440455753051388, 6.9686633664372479)	(-7.7129149418009559, 7.35851861968073)	(-2.0334188666691766, -1.2765217215953548)	(7.3475057396501455, -5.0261853312420648)	1.0	slash	0.81176
23	N	A	B	B	N	M	A	M	A	8	6	shapes	A	5	True	80	(-7.5626700575049615, 1.5006624012096506)	(-3.702723311789641, 7.234656039278148)	(3.5660197100700035, 0.97496407384153194)	(-1.2634651256562757, -8.3890401006292414)	1.0	z	0.877598
24	N	B	B	N					N	4	0	shapes	N	5	True	80	(-7.4776376532475126, -5.379453579007377)	(5.173425243873826, -6.917077119340016)	(-6.3291269141262232, 5.5676424410473135)	(3.2124926779594496, 6.8558685800993491)	1.0	z	0.601353
25	M	B	A	N	B	M	N	A	N	8	3	shapes	N	5	True	80	(-5.6854772572686683, 2.5768260351057659)	(-8.145247807126232, -2.5328688016631)	(6.8418635620432458, -0.53258393758770239)	(-0.13488669662625519, 0.34006109407418172)	1.0	z	0.5969
26	N	B	A	M	B	N	M	A	M	8	7	shapes	A	5	False	80	(8.1750515558028383, -8.1498937122971249)	(5.3519792672862678, 1.2233795425808989)	(-6.6447602443369416, -0.91812779357071506)	(5.9258618787039854, 8.6128730643011551)	1.0	slash	0.674589
27	M	B	N	N	A	M	B	A	B	8	6	shapes	B	5	True	80	(-4.8741334095040072, -7.7636650409846872)	(-2.0377491806293691, 2.1463240580716789)	(7.3875524075967292, 1.980130017323118)	(-4.8929156096688704, 5.3416754037358807)	1.0	z	1.32625
28	M	A	N	A	M	B	N	B	M	8	0	shapes	M	5	True	80	(7.103297138025324, -8.6434500916536479)	(6.5875563253415237, 1.2756138789520968)	(7.0032329506193989, 6.3967750362655131)	(-6.6091516227357108, -3.7621235176414043)	1.0	slash	0.969673
29	M	A	A	M					M	4	0	shapes	M	5	True	80	(1.7372320131947774, 5.3491916698991453)	(-5.2609193556373333, -1.7556387587093187)	(2.63360609933431, -2.3913637893330826)	(-3.379237849413637, 3.0968749158676339)	1.0	z	1.40162
30	N	A	N	B	M	B	A	M	M	8	4	shapes	M	5	True	80	(7.1284576516658085, -8.3095485108305382)	(5.8871052406231641, 8.6944079135700783)	(-2.3003221627154744, -7.3446605371413982)	(-4.6933333323656514, 8.730976879385917)	1.0	z	0.924876
31	N	B	M	N	M	A	A	B	B	8	5	shapes	A	5	False	80	(8.6435517903280399, -8.393851954754016)	(-1.7346238736908477, 3.2041544772736188)	(6.6457816221834491, 3.0957500406934404)	(3.6204277103992144, -7.2797353065317463)	1.0	slash	0.798701
32	N	B	A	N					N	4	3	shapes	N	5	True	80	(4.4276679416946969, -8.4950142125399601)	(1.9886229379794074, 8.213248813698268)	(-0.96565578427072651, 5.2623281739053933)	(-5.3263822860422962, -2.9876882287482598)	1.0	z	0.600431
1	M	A	A	B					A	4	1	shapes	A	6	True	80	(-7.0682053495758579, 4.3116741112178119)	(2.3071390000271847, -3.1755807732236052)	(8.045256086468509, 2.0573605124528687)	(-7.4815243582009705, -6.0273424832386535)	1.0	z	0.380039
2	M	B	N	B					M	4	0	shapes	M	6	True	80	(4.8852077526448578, -7.6429588759889198)	(0.12668473397221192, 1.9985540511665363)	(-2.7604088404060469, -4.9310560179780998)	(-6.2772810135303923, 0.06908248614724144)	1.0	z	0.697877
3	N	B	M	B					N	4	0	shapes	N	6	True	80	(-1.7918142249771094, 3.8802332348761883)	(0.60625692407145948, 7.4083102254455149)	(3.0856991270312548, -6.5364202048831253)	(-2.3629857450769931, -3.6947047209057473)	1.0	z	0.583417
4	M	A	B	N	N	M	A	B	B	8	1	shapes	A	6	False	80	(1.8443812161796913, 1.6603164686589249)	(-5.6230098450435797, 4.1264163301938908)	(-1.7340857184306797, -4.8906009844920426)	(0.1199677129529384, 7.8295173964265175)	1.0	z	0.853171
5	M	B	M	N					B	4	1	shapes	B	6	True	80	(2.2435127747021912, 0.58468836441016414)	(2.7518095001385241, -3.8000995480984958)	(-5.3720050062776714, 5.4110318707051874)	(-6.8537985394444405, -5.8475094012506634)	1.0	z	0.932634
6	N	B	N	M					N	4	1	shapes	B	6	False	80	(-3.1544127389514767, 4.0894504283755246)	(6.3178344974576124, -4.7053262857009068)	(-1.517717610732161, -8.1840246207080245)	(6.7692189153272029, 1.2989262781778486)	1.0	slash	0.596502
7	M	B	M	N					B	4	3	shapes	N	6	False	80	(5.4532562548906132, -0.55117525587162675)	(-0.28858073714956944, 3.4446681385850759)	(8.6575043901088442, 4.3463748453120044)	(-0.61211202810373955, -8.2192115874164049)	1.0	z	0.416061
8	N	B	N	B	M	M	A	A	A	8	0	shapes	N	6	False	80	(-1.2066281332921109, 1.568087226374141)	(-5.7575077627705991, -0.15234644448213253)	(4.8611426030473552, -2.7918072281355695)	(-0.44070987569873665, 8.3297118282488256)	1.0	slash	0.799717
9	M	B	M	A					B	4	0	shapes	M	6	False	80	(4.2837678761354816, 5.8378249531135022)	(-4.7362927083104989, -3.6638067092066207)	(-5.3749263196943549, 8.2360788165395249)	(7.4623343894854415, -0.59245106575985496)	1.0	slash	0.681443
10	M	A	B	N	A	M	B	N	B	8	2	shapes	B	6	True	80	(3.7265126252710985, 7.4775204666403994)	(-0.67661008704390824, 8.1651257000121795)	(8.2599501503827746, -7.347237408974439)	(-0.78911291176734544, -2.4300790049272747)	1.0	z	0.834798
11	M	A	N	A	B	M	B	N	N	8	1	shapes	A	6	False	80	(5.424270849538134, 4.246051571526845)	(1.6709288859667204, 2.7973828127140674)	(-3.9284820164030707, -6.3899880943206924)	(6.0296728989086219, -6.0378629170508802)	1.0	slash	0.462749
12	N	B	M	B					M	4	1	shapes	B	6	False	80	(1.1247480566865722, -4.5340305084833439)	(8.3022495339105298, 0.33661372034155512)	(-6.212580940776002, 6.24000794971594)	(-8.0359042330726602, -0.82027009366293235)	1.0	slash	0.764219
13	M	A	N	N					B	4	2	shapes	N	6	False	80	(2.9197246080852217, 5.8680371797907913)	(5.4884471796374275, -5.4195520860300173)	(-3.955483157044922, 5.6076770410040808)	(-5.6135587573738679, -0.51393856008940197)	1.0	slash	0.524101
14	M	B	A	N	M	B	A	N	A	8	2	shapes	A	6	True	80	(8.33512475604822, -3.4443809916822179)	(1.7650429829768743, -8.6869054274754092)	(-4.3753628991598079, 5.488445582064287)	(3.2679844760035159, 3.6649468727587529)	1.0	z	0.593743
15	N	B	B	A	A	M	M	N	N	8	7	shapes	N	6	True	80	(-8.4424293059214399, 2.8787008449569953)	(6.8554081471023878, 6.9723067814630788)	(-1.7927207723051133, 4.3120975631317933)	(-7.0477587259591647, -1.4316605074221522)	1.0	z	0.863408
16	N	B	M	M					B	4	1	shapes	B	6	True	80	(2.7589173240691522, -3.1512924355035521)	(-3.5859549401776798, -2.4498725443260909)	(4.0340406089692813, 4.677479685698577)	(-0.90308166140684065, 3.2971512705990929)	1.0	z	0.749148
17	M	A	N	B	M	B	N	A	N	8	2	shapes	N	6	True	80	(1.8061835701054036, 4.2775881124162005)	(8.1816025329139848, 1.9764179254689136)	(-1.5830957317131231, 8.537142336933389)	(-8.3908999014654579, 1.531342791321169)	1.0	z	0.908621
18	N	B	B	N	A	A	M	M	N	8	3	shapes	N	6	True	80	(1.0755629491771508, 6.3823708849470169)	(-6.6043691825572379, 2.4928546774194444)	(1.3181985528205953, -4.81433011056306)	(-0.505881904045415, -0.15213935011689017)	1.0	z	0.650355
19	M	A	A	M	N	B	N	B	B	8	5	shapes	B	6	True	80	(3.0012342761525268, 5.4471420442259628)	(-6.3467980165971127, -7.0192239764337279)	(-5.9552744946455398, 2.0226174842472648)	(-8.4972168828310171, 7.3349570686985146)	1.0	slash	0.859844
20	M	B	B	N					N	4	3	shapes	N	6	True	80	(-0.40222802864058238, 1.9763228129291939)	(4.4839333814617977, 7.6227833020025386)	(-3.8324559892399446, -5.1780450091654515)	(6.7303827945810504, -4.2649427011392005)	1.0	slash	0.865663
21	M	A	N	M	N	B	B	A	B	8	5	shapes	B	6	True	80	(2.4744518696654882, 3.5007618667821525)	(5.5009908317487977, 7.9401881645273633)	(1.973443128810386, -8.3697460521462084)	(-6.0996629482807396, 7.1837218613934226)	1.0	z	0.639379
22	N	A	B	M	N	A	B	M	A	8	5	shapes	A	6	True	80	(5.6162015003957979, -4.8875455692561438)	(-2.5723084916374157, 2.8456512550581614)	(-8.4780067509273298, -1.4743133565752213)	(-1.0213994803551811, -2.6889901422692866)	1.0	z	0.65056
23	N	A	M	M	B	A	B	N	M	8	0	shapes	N	6	False	80	(5.8860561563204197, 5.7581945524821379)	(-0.61858174992729786, -3.0398271775004941)	(-1.2911706993090482, 1.0661238229654835)	(-4.5897508220352785, 5.5396448475726565)	1.0	slash	0.710655
24	N	B	A	A					B	4	1	shapes	B	6	True	80	(-0.92838626570917171, 5.4549297714737452)	(3.3983082196745915, 2.8946293890173216)	(-2.785683749598002, -4.8272624590031707)	(3.9287954438151296, -2.1662428058302972)	1.0	z	0.33839
25	N	A	B	N	A	B	M	M	M	8	3	shapes	N	6	False	80	(-4.0649065558013318, -1.0810322684079692)	(4.0989285506818973, 1.6758171854674266)	(-6.3592329865350976, -5.8094453437798501)	(7.6070525225223058, -8.6622722889910957)	1.0	slash	0.946153
26	M	A	A	M					B	4	2	shapes	A	6	False	80	(4.9428614848846628, 6.2081634754566775)	(-7.1088783613976894, -7.5471206171592646)	(1.6164340565907782, -3.0365541233987647)	(-7.6314348443611006, 7.1900670271225771)	1.0	slash	0.607752
27	N	B	A	A					B	4	2	shapes	A	6	False	80	(2.1928152594236412, 1.0849384196371403)	(-8.6678182781242121, -6.78527142075718)	(-1.6686147605688513, 7.1759604159244503)	(3.3755342863030808, -7.4665777155237842)	1.0	z	0.671319
28	M	B	N	N					B	4	1	shapes	B	6	True	80	(-5.5026830156102573, -2.3444072053185607)	(4.6809480095020284, -3.0155299448026334)	(1.5068940034190845, 0.10527231630289968)	(-5.8350851488187532, 4.9192198790569055)	1.0	z	0.411051
29	M	A	A	N	M	B	B	N	B	8	7	shapes	N	6	False	80	(4.2990120485929229, 3.787654064148736)	(-6.9493617663044844, 0.76870496770266428)	(-8.30378215653095, -6.4762181638224963)	(-3.9170121031530547, 3.6613838003626924)	1.0	slash	0.54267
30	N	B	N	M	B	A	A	M	A	8	2	shapes	N	6	False	80	(2.190226406299125, -6.375549025376932)	(-6.4866466000708609, 5.4073803110509804)	(-4.7153630011486234, -7.0802498856754728)	(-3.9071541522655071, 1.9368668480415945)	1.0	slash	0.702517
31	N	B	M	B	M	A	A	N	N	8	3	shapes	B	6	False	80	(-3.3038786389962809, -4.2223420836635626)	(6.8218259815387245, 4.2428016129745068)	(8.2947117002245534, -6.1153580869702804)	(0.68001899068802096, -1.4156142920338111)	1.0	slash	0.613953
32	N	B	N	A					M	4	0	shapes	N	6	False	80	(-2.2076593914479909, 7.8692158400058396)	(2.0361929725775294, 3.6113440736924662)	(-1.6081502779677166, -2.7749834260389878)	(3.1807658698233396, -7.3835409345546958)	1.0	slash	0.917164
1	N	A	N	B					M	4	2	shapes	N	7	False	80	(-2.7627128562229819, -6.8755328642901894)	(-1.4182213410910283, 8.0843518169472723)	(5.3352909570854798, 8.4347098244297172)	(2.8877351372300879, -5.3568349007303695)	1.0	slash	0.523136
2	M	A	M	N					A	4	0	shapes	M	7	False	80	(5.0988313622157051, 1.2657934870708427)	(-7.2139731249852481, -4.4571380983194206)	(-2.9869628123171985, 8.686479355637438)	(1.5720941741142802, -2.0921384044799805)	1.0	slash	0.57303
3	M	A	N	N	A	M	B	B	N	8	0	shapes	M	7	False	80	(2.0398032497062424, -8.3595949275492991)	(-2.4271074363050467, 6.3128636066710602)	(7.568292184834327, -5.9138651532818951)	(-4.8367745710427021, -8.1711694274872251)	1.0	slash	0.46883
4	N	A	B	N	M	B	A	M	B	8	1	shapes	A	7	False	80	(-4.7960740468540513, -3.7263375053060059)	(2.1200795062854443, -5.910742636339803)	(1.3595614098474922, 7.2209737682652602)	(-1.5395726642855774, 3.5480724575307505)	1.0	z	0.628388
5	N	A	A	B	N	B	M	M	N	8	4	shapes	N	7	True	80	(2.559181923610824, -3.6270434609779008)	(-1.4278314625545603, -2.4702166787728537)	(-7.1994490361359116, -3.6401438733943161)	(1.1570018202291479, 2.9946964853330371)	1.0	slash	0.521524
6	M	A	N	A					A	4	1	shapes	A	7	True	80	(-3.0949523069807476, 0.3142809696780855)	(2.4685742797841446, 7.8681504949634018)	(-7.2124033513385486, -6.8201043625079105)	(3.6757562545028097, -4.0999488059480305)	1.0	z	0.819572
7	M	B	B	M	A	N	A	N	M	8	3	shapes	M	7	True	80	(3.7663256474929696, 4.5561053008664629)	(-6.8569222369744587, -1.2187343070297949)	(-3.1992777187420067, 7.7788148490834566)	(0.61170339795216577, -4.414486395633932)	1.0	slash	1.35534
8	M	B	A	A					M	4	1	shapes	B	7	False	80	(-4.6557892208298517, -4.9647260323214173)	(7.0452797600880999, -3.8710426069267285)	(6.4501611814447273, 8.6340552229014023)	(-5.6778928374214264, 2.0864915774626578)	1.0	slash	1.0708
9	M	B	N	M					B	4	3	shapes	M	7	False	80	(0.28686067597693921, -6.926076138952415)	(8.3092329511653311, 0.59253955086486343)	(-5.2747470510269769, 0.76689750570752402)	(-0.91005163656165067, -2.0969201270456841)	1.0	slash	0.642512
10	N	A	N	M					A	4	0	shapes	N	7	False	80	(0.13390959397699831, -2.7700022733369529)	(-8.1849772437388424, -2.2383303585664702)	(-5.2400340143723412, 8.101230584611308)	(6.69678770521978, 5.5540449723286116)	1.0	slash	0.634074
11	N	B	A	M					N	4	3	shapes	M	7	False	80	(-1.6651978840565214, -7.375839613029469)	(7.9287248094617198, -6.5468507336916293)	(6.8212747690863136, 0.55421147150760852)	(-8.3335112218429011, 6.5903206308265005)	1.0	slash	0.557956
12	M	A	N	A					B	4	2	shapes	N	7	False	80	(8.6971680355284775, -7.502294043398674)	(7.3176194868415543, 2.5784170311166008)	(-7.7398207814138402, 5.250300801914598)	(-6.632967712388357, -1.0072474021889919)	1.0	slash	0.551562
13	M	B	B	N					M	4	0	shapes	M	7	True	80	(-2.6817954166711209, -1.2105039252605172)	(3.3116527306441839, 5.2769269533487595)	(-7.8810559175468349, 4.1325301945071651)	(8.3619935824876919, -4.962322054862482)	1.0	slash	0.707262
14	N	A	M	M	A	B	N	B	M	8	1	shapes	A	7	False	80	(-5.760855298824568, 4.8119726248369616)	(4.7708344194320791, 4.1164221893434281)	(-6.0048278761343923, -3.5084888319590242)	(-0.59057493364705849, -3.9583176490166005)	1.0	slash	0.424954
15	M	B	A	A	M	B	N	N	B	8	5	shapes	B	7	True	80	(1.2405611823171192, 0.86068125016183039)	(6.3756059866440715, -3.5715423495952434)	(-4.0852319389792431, 5.1210391892919667)	(-6.9060950232782492, 2.2157171622581959)	1.0	slash	0.478661
16	M	A	B	A					A	4	1	shapes	A	7	True	80	(-5.3833107978136141, -7.9065737334352626)	(-4.6088961581104346, 0.38998243973898639)	(6.8228789178896481, 7.6921321694754745)	(3.6707626735343055, -6.1981179202286789)	1.0	z	0.424184
17	M	B	M	B	A	N	A	N	M	8	2	shapes	M	7	True	80	(2.7540727506677065, 7.5245571316235313)	(3.9115760035231357, -0.67719965804342586)	(-2.4574686298884814, 0.26964894001386952)	(-5.6569884287969963, -6.2538638412836676)	1.0	z	0.653969
18	N	B	N	A	B	A	M	M	N	8	1	shapes	B	7	False	80	(-5.5067011874263807, -8.3008465242606206)	(0.1697727129640878, -5.7045272726869776)	(6.7353354047795211, 0.24923627588706943)	(-7.7639419182464007, -4.8160044911034987)	1.0	slash	0.565624
19	N	A	M	N	M	A	B	B	M	8	4	shapes	M	7	True	80	(8.6261780113489728, -7.0578918412535554)	(-2.1390225593687378, 3.4885391768790157)	(-0.41104291742713173, -2.9246488225477769)	(-8.4389356450363628, 7.9796260151945226)	1.0	z	0.551216
20	N	B	B	N	A	M	A	M	A	8	2	shapes	B	7	False	80	(3.8323536191757785, -3.1728209549162703)	(1.9691384640249741, 1.0551800566549563)	(8.7297474632691348, 4.4279924552649739)	(-7.471916289502726, -4.290882198795714)	1.0	z	0.812984
21	N	B	A	M	M	N	B	A	N	8	0	shapes	N	7	True	80	(-6.0050292070628268, 1.277241100913832)	(2.1984863696279202, 6.4888803429523882)	(-3.0470656960327247, 5.3492962617532953)	(-0.1283649235691886, -8.2345795078905279)	1.0	slash	0.532704
22	N	A	B	A					A	4	3	shapes	A	7	True	80	(-1.7539232790790971, -7.6151007353627875)	(3.9283183164768474, 8.4085833442233806)	(8.5755693331075165, -8.4184660014707173)	(-2.8247800708770363, 5.637929766630247)	1.0	z	0.579958
23	N	A	N	A					B	4	3	shapes	A	7	False	80	(-3.8122693605811762, -7.2022887914809939)	(6.8163873212195671, 0.99629786041648316)	(0.47606661609908052, -6.1335032092534334)	(-0.29887583120967776, 7.0207528784573139)	1.0	slash	0.465513
24	M	B	A	B					M	4	0	shapes	M	7	True	80	(8.0950100469105841, -6.1843708281288183)	(-6.7098020283300057, 2.577502833748806)	(-3.0033570181116076, -6.4163752255930806)	(4.7225539856534464, 6.5496408835320352)	1.0	z	0.759625
25	N	B	B	N	A	A	M	M	A	8	1	shapes	B	7	False	80	(-3.4334122343704232, -7.528801786064335)	(4.6532605109538849, 5.9979843476284014)	(2.8062191827640639, 1.8828930957911929)	(-5.6818622010283288, 7.4689532706959518)	1.0	slash	0.613208
26	M	B	A	A					M	4	0	shapes	M	7	True	80	(-2.1625031945159279, 0.64608359560271822)	(1.9387856886053587, 6.4535292792238383)	(-6.2409418405082109, -5.1881298857858127)	(1.8718029376824603, -4.5234715341809499)	1.0	z	0.700931
27	N	A	B	B	M	M	N	A	N	8	0	shapes	N	7	True	80	(4.2506099683737624, -3.5549601458262403)	(-6.923018032150682, 1.3495168641724202)	(2.8407981980495975, 5.1144239226324295)	(-1.3390541728591261, 2.7686772074130577)	1.0	z	0.580641
28	M	B	B	N					N	4	3	shapes	N	7	True	80	(-6.1858447367335021, 0.95035181410943892)	(-5.8532430784584069, -7.8735536715335606)	(5.2160261781474304, 4.0662837535621374)	(3.1820030092706055, -2.4201491220059177)	1.0	z	0.808276
29	N	B	A	M	N	B	M	A	M	8	3	shapes	M	7	True	80	(0.36342053754920833, -4.1023352321085058)	(4.082328859819139, -8.2783712437151902)	(-4.0654495376707569, -5.1347971227164972)	(5.466770848514674, 3.2378471891755645)	1.0	z	0.571813
30	N	B	B	A					B	4	1	shapes	B	7	True	80	(0.9878787213531659, -5.8461583745992796)	(-7.9153275546425759, 7.9873592145526189)	(-7.0890004796803705, -0.25658390017647115)	(6.1531210698656071, 5.2293331289727583)	1.0	z	0.6835
31	N	A	B	B	N	A	M	M	N	8	3	shapes	B	7	False	80	(-7.4538831989302228, 1.3212045785506543)	(-0.40765443745587682, 4.9640721407641681)	(8.199543310311892, -4.2726649795851346)	(5.5820849222463842, 3.8357420517493335)	1.0	slash	0.81329
32	M	B	B	A	M	A	N	N	M	8	6	shapes	N	7	False	80	(-8.2623000293535434, -6.5026097325181631)	(7.0491459577186308, 1.7747956476070339)	(-5.5324491729211376, 2.9014888996397854)	(-5.2269186497342286, -3.6623605837307185)	1.0	slash	0.598807
1	M	B	A	B					B	4	0	shapes	M	8	False	80	(5.1442135839902363, -3.8979131852421052)	(-1.9505566774519538, -0.40746728708587732)	(-7.56498549851284, 0.46549541397221361)	(4.7556581734542931, 4.4740857933769433)	1.0	z	0.604581
2	M	B	N	A	M	A	B	N	N	8	1	shapes	B	8	False	80	(-3.9225783172216362, 4.2314713764880931)	(4.3230162026388292, -5.1307034050600855)	(5.0012385872465348, 8.1475665473901202)	(-5.7934684967061933, -2.2286143632196485)	1.0	slash	0.500298
3	M	A	M	N	N	A	B	B	M	8	0	shapes	M	8	True	80	(0.60420058158534395, 5.3984143919646517)	(8.0601290013359481, -8.0741095250248378)	(-4.71305192083235, 7.5252170816612498)	(1.291864863128156, -0.51721495075511115)	1.0	slash	0.403892
4	N	A	B	M					B	4	1	shapes	A	8	False	80	(-1.1695794641927355, -0.94674892525831744)	(7.8618318866775283, 5.0119055012727713)	(6.5441443510318997, -5.3206350542958072)	(-8.2831878006722928, 3.67258125962314)	1.0	slash	0.557754
5	N	A	A	M	N	M	B	B	M	8	3	shapes	M	8	True	80	(4.142944641471912, 6.9420982049820612)	(6.3023288353638485, -0.7853580279360628)	(2.1920260217041925, -0.91177948839056455)	(-4.9036894180801829, 2.9873471988413076)	1.0	z	0.681156
6	M	B	M	B					M	4	2	shapes	M	8	True	80	(3.2549898532264248, 5.1461363502105346)	(-1.7874277689119094, 5.4106488444317051)	(7.5003573790866156, -5.0407724032390639)	(-1.883710622900014, -2.095704558610934)	1.0	z	0.730945
7	N	A	M	B					M	4	2	shapes	M	8	True	80	(-2.3646691241478637, -5.0775379571071406)	(0.06040922226583767, -1.188251705673399)	(-3.9398506371524551, 0.70691401724224434)	(3.4420719985049395, 5.8832493415950236)	1.0	z	0.528704
8	M	A	A	B	N	N	M	B	N	8	5	shapes	N	8	True	80	(-3.7685808993746388, -5.342481651931112)	(-0.93592002233795224, -1.9742208310348461)	(6.356771112966296, 3.0497308531049292)	(3.4360669244071431, 6.6264205278541404)	1.0	z	0.690335
9	N	A	B	M	M	A	B	N	M	8	3	shapes	M	8	True	80	(-1.2239752694091264, 6.1498746350249593)	(-7.5201469442028355, 1.2098510059347642)	(2.0278374952817035, 0.39856799196742898)	(8.1043455951386392, 4.8147973731796476)	1.0	slash	0.507929
10	M	B	B	A					B	4	1	shapes	B	8	True	80	(-6.8246757741449526, 5.8233464695023311)	(-0.8126381779128149, -5.9724758645621971)	(8.3140941210393713, 0.096034609944686267)	(4.8917102635765239, -4.6518314441147686)	1.0	z	0.727631
11	N	B	A	M					N	4	3	shapes	M	8	False	80	(2.5606295242827777, 5.2191712517021998)	(-8.3967233710268072, 6.1747600037542796)	(-0.73332511934268041, -7.5756751640649069)	(6.1546909601288871, -6.1883748337765816)	1.0	slash	0.64726
12	M	B	N	B	A	M	N	A	N	8	1	shapes	B	8	False	80	(-5.9775721496261376, 7.1466083254756949)	(5.3332560878739077, -4.6882541605299588)	(7.0890895503637612, 6.7201736787289637)	(-0.37560866193191522, -6.3655302774131659)	1.0	slash	0.616987
13	M	B	M	N					B	4	0	shapes	M	8	False	80	(6.4391302718924184, 4.1469774841812832)	(-8.1454823846810722, 6.5236045528778526)	(-6.6481939604688396, -8.5695204162971397)	(1.2155980450490507, -1.2339705809440238)	1.0	slash	0.598493
14	M	A	M	N	B	B	A	N	A	8	7	shapes	N	8	False	80	(-3.7456213701381049, -2.4122699856855183)	(-5.7923890270622387, 3.5442801468424552)	(-5.9955111727638801, -6.8835741258859926)	(0.70935274958322658, 1.6796607105468802)	1.0	slash	0.620205
15	M	B	B	A					A	4	2	shapes	B	8	False	80	(4.2879041572430303, -6.7972355500656327)	(4.4429596084443528, 0.84501160857110058)	(-2.9065990889277833, -3.508232721655399)	(-0.51318586421764856, 5.3688092819341584)	1.0	slash	0.545715
16	M	A	B	A					M	4	3	shapes	A	8	False	80	(-0.88139899106798314, 5.477487114607122)	(1.3633491284966102, -7.4061519478683735)	(-2.8379162065685124, -1.7446891433799578)	(4.2106476630098637, 7.4010362810956281)	1.0	slash	0.53565
17	M	A	M	A	N	B	N	B	B	8	1	shapes	A	8	False	80	(2.4327849927555487, -6.6630677646866321)	(-5.7937900098210351, 7.3575809037226421)	(0.40146116672443988, 2.2733995244659955)	(6.419252229646446, 6.8731630967053512)	1.0	slash	0.535338
18	M	A	A	B					B	4	3	shapes	B	8	True	80	(1.5500633435915727, 8.0509642596106801)	(0.0097032271244064106, -5.457717627091565)	(-1.552451727890368, 2.1305498370828815)	(-5.4722133058284417, -2.34347643194263)	1.0	z	0.886971
19	N	A	B	B					B	4	3	shapes	B	8	True	80	(5.0557114548459996, -5.5949244383008576)	(-1.9161320279356682, -5.902209441982925)	(7.5558304989322735, 6.1854484998413692)	(-5.3008401768804179, 0.97413639360157056)	1.0	z	0.606581
20	N	B	M	B					A	4	0	shapes	N	8	False	80	(-7.6257432514692658, -2.9672621107884245)	(-0.039726540107336561, 4.0857547452370042)	(1.7771943588664261, -3.1486728559790897)	(5.3284756278687553, 3.0528344274179844)	1.0	slash	0.608439
21	M	B	A	N	M	B	A	N	N	8	3	shapes	N	8	True	80	(-0.0014491261407130196, -3.21479759665751)	(4.9647679419712567, -3.8810029121355152)	(-1.9078933085366989, 6.7469139223290551)	(-4.1341044903130717, -2.1340124513269192)	1.0	z	0.755986
22	N	A	B	N	B	A	M	M	A	8	6	shapes	M	8	False	80	(-4.5592279461292264, 3.7281537257916249)	(8.7355390917934486, 5.3759401287442099)	(3.5941497474229234, -8.0434634588545997)	(-8.6859809081811825, 0.35928843790110854)	1.0	slash	0.591736
23	N	A	A	N	M	B	B	M	N	8	6	shapes	B	8	False	80	(-6.2329416944383951, 3.0316780972155897)	(-3.2849090952572757, -8.3028094223426319)	(1.4903856152601787, -2.3123284214734072)	(6.0605253378476132, -0.038499609657433709)	1.0	slash	0.573279
24	M	B	B	N					B	4	1	shapes	B	8	True	80	(3.7624017929444893, 3.3094533585588)	(-3.7713503674208404, 5.6828713399430946)	(6.3128301552501611, -8.2951765719987129)	(-0.43313890097897989, -5.7771626016331581)	1.0	slash	2.7649
25	N	B	N	A	B	M	M	A	M	8	5	shapes	M	8	True	80	(-6.3235194184469954, 5.3790138914396941)	(6.7325124430234062, 6.7834531569230929)	(-1.0787092350642462, -6.5809145493238068)	(2.3062725166169571, 2.0905676841826093)	1.0	z	0.462457
26	M	B	M	B	N	N	A	A	A	8	3	shapes	B	8	False	80	(2.1855331144482886, -7.7469908980998419)	(1.2645072484531337, 2.8617578499979253)	(6.6040412425108936, -7.1889368283061819)	(5.187882963271937, 0.82340331229315566)	1.0	slash	0.276305
27	N	B	A	B	A	M	N	M	B	8	1	shapes	B	8	True	80	(-3.4646997255586029, -5.2055048606279533)	(-3.2114920639597857, 3.6097724545273415)	(3.1392490303871554, -7.1857541921681722)	(5.6482719039624296, 4.9166176532056998)	1.0	slash	0.63335
28	M	B	N	N					N	4	2	shapes	N	8	True	80	(-4.2230192255570893, 4.0800838988293613)	(-0.31809611022163864, -0.7420908127644168)	(5.9806433014977625, -7.8202632002725476)	(5.2833436205664697, 3.3740038861429635)	1.0	slash	0.389414
29	M	B	A	N	N	M	A	B	B	8	7	shapes	B	8	True	80	(4.5331767061561248, 7.8859757763991531)	(-7.1318315034023376, 4.9269453504677223)	(5.6004918659327423, -3.30839712836337)	(0.91706259639506627, -1.729577313365052)	1.0	z	0.613159
30	N	B	M	A					M	4	3	shapes	A	8	False	80	(7.08165737554652, 6.1483984695200373)	(2.4304461803718507, -4.6429451083789868)	(-0.65109480829650401, -0.67448074351524845)	(-7.319893098713699, 6.6955319472974182)	1.0	slash	0.476785
31	M	A	A	M	B	N	B	N	M	8	5	shapes	N	8	False	80	(-3.1360839751185257, -2.0112630822231177)	(-8.3195371225777812, 1.0009886851399141)	(2.6409519217795658, -5.1267512310502159)	(-7.3087099835643112, -3.7275402519132941)	1.0	slash	0.538556
32	N	B	N	B					B	4	3	shapes	B	8	True	80	(5.5856714924816799, 2.3658301738105596)	(-0.36892845973666688, -3.8726012720585423)	(4.1881437421378163, -6.5161733927508481)	(-2.8449855340811405, 6.7381800302811889)	1.0	z	0.760136
