TrialNumber	stim0	stim1	stim2	stim3	stim4	stim5	stim6	stim7	stim.probe	ttl.stims	corr.num	trial.type	stim.corr	block	match	Subject	stim.pos0	stim.pos1	stim.pos2	stim.pos3	ran	resp	RT
1	N	B	M	A	M	N	B	A	M	8	2	shapes	M	Practice	True	85	(-7.3527508813676592, 0.98361597667040357)	(2.0043607584679517, -7.3568992708912884)	(6.8723596117820804, 5.4766821907680185)	(-0.94725877109976864, 5.1674462609665959)	1.0	z	3.29666
2	M	A	N	N					N	4	2	shapes	N	Practice	True	85	(-7.3441154009395868, 1.7207590319967867)	(6.8984826970583626, 1.3151988384959452)	(5.4921770311392208, -3.1153401674023389)	(-3.3363129641592284, -7.8562813585938018)	1.0	z	1.93647
3	M	A	N	B	B	M	A	N	N	8	1	shapes	A	Practice	False	85	(-5.4144294762753766, 8.4832227466057475)	(-2.2992293662421837, -7.5451648040528294)	(7.2573788083836632, 7.9100702952738793)	(4.910836152602414, 3.5115083680003831)	1.0	slash	1.75461
4	M	A	M	B					B	4	3	shapes	B	Practice	True	85	(3.5188421183107792, -1.5176547418004924)	(-1.4943626695922889, 2.7854411442617746)	(-5.2508938521701083, -2.8019096786211497)	(3.8480117276238346, 8.1623451015097785)	1.0	slash	1.83745
5	M	B	M	B	N	N	A	A	N	8	5	shapes	N	Practice	True	85	(-5.9201987515092123, 8.4693470366855514)	(-1.5898782528362121, 5.2376162783639195)	(7.2955469014603906, 4.1514860493293071)	(-8.5063705661560292, -5.0145633854944052)	1.0	slash	1.60328
6	N	B	B	M					N	4	3	shapes	M	Practice	False	85	(-2.8299751343381487, 0.58632095991207223)	(-0.57581552997030272, -3.1968865566250697)	(3.3970893379036404, 2.9078409457586734)	(7.9735704783821895, -4.2376759014463454)	1.0	slash	1.23716
7	M	A	M	N	A	B	B	N	M	8	4	shapes	A	Practice	False	85	(-5.9923126386857701, -5.6582698500999529)	(0.56597717092691724, 4.1722696241458177)	(8.5806047101294816, 4.2356627866188568)	(0.50701273684103398, -1.5878415284401575)	1.0	z	2.6981
8	M	B	A	N					A	4	1	shapes	B	Practice	False	85	(2.4919256312470282, 1.3791885050710793)	(-0.98511985414776682, -6.708874232684793)	(-7.3907011186349463, 8.3359819086121831)	(6.9570609945147233, -6.4132499183037055)	1.0	z	1.26442
1	N	A	B	M	A	B	M	N	N	8	0	shapes	N	0	True	85	(-1.6653729107689328, -5.9094701222311059)	(5.618163919524493, -2.1745161528766426)	(-1.0376712068590681, -1.7824838641612484)	(-1.5283237637200537, 4.228545596566736)	1.0	slash	1.05423
2	M	A	B	A					M	4	3	shapes	A	0	False	85	(1.3072490414781122, -7.9849596094683495)	(2.4356400405860317, 6.4600930775268921)	(-2.3350553466914334, 5.1255944380238496)	(-8.2625444439553632, -3.7943969932820032)	1.0	slash	1.06183
3	N	A	N	A	B	M	B	M	N	8	2	shapes	N	0	True	85	(5.9431489969545535, 4.874061991615859)	(-3.9026057780927115, -1.2813163056350714)	(-6.1817912025070694, 8.4377196938131434)	(-4.4153254521715786, 3.046986760914244)	1.0	z	0.885796
4	N	B	B	N	A	A	M	M	M	8	2	shapes	B	0	False	85	(-1.188122732357952, 3.8906715423801455)	(-7.1824356677132641, -0.19670602339118659)	(5.5240954073523021, -1.0887380270371265)	(-1.3204084751324068, 8.2853717114497201)	1.0	slash	1.93681
5	M	A	M	B					A	4	1	shapes	A	0	True	85	(-5.0144906926209121, -1.240467430240404)	(2.1796383134076045, 3.6959788148937758)	(7.9425806698564081, -0.60745285430827423)	(-2.8981780655635161, 4.7546419487545588)	1.0	z	1.42278
6	M	A	B	B	M	A	N	N	B	8	3	shapes	B	0	True	85	(-8.0318609252485249, 4.1642018760919086)	(5.8382715166686552, -2.6377738659674685)	(-1.8406166991627746, 0.56524386414138839)	(6.547127681076514, 1.3994332497044759)	1.0	z	0.942088
7	N	A	M	N	M	A	B	B	M	8	7	shapes	B	0	False	85	(-1.6320864037347889, -5.4574777691022138)	(4.3186521108927778, -2.7576032069220622)	(8.0343145794338611, 7.8911734236189588)	(-3.1289382019905982, 4.7257308729995646)	1.0	z	1.36562
8	N	A	B	A					A	4	3	shapes	A	0	True	85	(-6.942759683623029, -7.3074153209059975)	(2.6839240513737703, -3.257870385787295)	(6.6158740679004673, 2.4632240837320296)	(-5.9520212157403298, 7.3156063039223511)	1.0	z	1.24719
9	N	B	A	B	A	M	M	N	N	8	7	shapes	N	0	True	85	(3.5800394000201035, -8.2331154801530175)	(0.62276133776122933, -1.3335803557757435)	(-8.4602700809634701, 4.2096176036144488)	(5.5833432062378439, 6.1709127337394793)	1.0	slash	2.53831
10	N	A	B	M	M	N	A	B	N	8	7	shapes	B	0	False	85	(-4.2415132127848389, 0.3785436418097472)	(7.5737032760571736, -7.8659850520959136)	(4.1605300098230735, 5.9402087752157211)	(0.43614030733012221, -3.7384146760650312)	1.0	slash	1.14848
11	M	B	A	N					B	4	1	shapes	B	0	True	85	(-7.8633497884599848, 7.3165254746798212)	(-1.1877781099609139, -0.86580823086491598)	(6.035221969683473, 2.3217108048207908)	(2.6827166498994206, -7.1073258308688514)	1.0	z	0.960426
12	M	A	M	A					M	4	2	shapes	M	0	True	85	(-2.1714708872852393, -6.6769563785390886)	(-4.6937839161448727, 8.3054327913452219)	(2.542375261172646, -0.14633851785328744)	(2.5069420480462394, 6.6410720965993768)	1.0	z	1.20217
13	N	A	M	M	A	B	B	N	N	8	6	shapes	B	0	False	85	(7.904553916047746, -1.7791907894746126)	(-2.6800430014177392, 2.8077931647035825)	(-6.7318175198085317, -0.70436247565544186)	(-7.7668070536322151, 3.4253046129650837)	1.0	z	0.941934
14	N	A	B	M					A	4	1	shapes	A	0	True	85	(-7.3189253337942448, 3.5948740909078154)	(8.6782689637142276, 7.5147962444866678)	(-7.5863478068102808, -0.76054748531199223)	(1.3663498409584776, -1.2001282743859658)	1.0	slash	1.57055
15	M	A	B	M					N	4	2	shapes	B	0	False	85	(4.2370520812900025, -5.1043212403173612)	(-6.4193937781477004, -3.6427790372335007)	(1.8443674765585616, 2.7098361062291776)	(-2.9912444101054341, 6.0001356429697204)	1.0	slash	1.45844
16	M	A	A	M	B	B	N	N	B	8	4	shapes	B	0	True	85	(-2.0452892619284366, 3.3519735926244287)	(7.1181259243270194, -4.3947924299728633)	(-2.3221242177585584, -6.3027241770378186)	(-8.2368911691620035, -3.8527859234227293)	1.0	slash	1.02051
17	M	A	B	B					N	4	0	shapes	M	0	False	85	(-3.7233781375528006, -1.1653131987950109)	(2.5562521546148709, -8.3300579200020497)	(-4.0456701280544713, 7.410893160424898)	(6.934950875528326, 8.2153550448310675)	1.0	z	0.954136
18	N	B	A	B	N	A	M	M	M	8	7	shapes	M	0	True	85	(-5.3480548544480886, -6.8592542825563054)	(2.6885403550350091, -8.710855762524762)	(3.7715899832152058, 3.6156331745062111)	(-8.0616246463448924, -0.78315024159586422)	1.0	z	1.59981
19	N	A	A	B					M	4	0	shapes	N	0	False	85	(1.5139201875916246, -7.128484172876723)	(-2.5426464343677626, 0.7895029397013289)	(6.7813320112584154, 5.0716571673455899)	(-3.8241263547556015, -7.4586129310644083)	1.0	z	1.01746
20	M	B	A	B					M	4	0	shapes	M	0	True	85	(2.0746007666373227, 4.2850036037451478)	(-2.0521105846831036, -0.22251429553823954)	(8.4173556011951902, -4.4891268118752476)	(-5.7230781132056219, 3.3280849815815703)	1.0	z	0.839063
21	N	B	M	A					B	4	2	shapes	M	0	False	85	(1.9781658985904755, 0.073140822521677862)	(6.8487571292498792, -2.0794313022513018)	(-3.1874254675645588, 4.1048741539624878)	(-6.7275965732920531, -1.8049214703976837)	1.0	z	0.800743
22	N	A	N	A					N	4	3	shapes	A	0	False	85	(-3.5432978394480514, -7.0749996892954528)	(1.3611981348354405, 8.7139502527871393)	(-0.077970559632589698, 4.0566538531373251)	(3.0465238646374999, -0.20862552213703189)	1.0	slash	0.730324
23	M	A	B	M					B	4	1	shapes	A	0	False	85	(5.1202599358875318, -8.1399837777068509)	(-5.145491801089408, -5.1309404883150931)	(-4.3430280093345344, 4.6109577182181809)	(5.5291833616354271, 6.3331753115238101)	1.0	z	0.938341
24	N	B	B	N	A	A	M	M	M	8	1	shapes	B	0	False	85	(0.088132932644450435, 5.2876086502120998)	(0.10062384525559942, -3.952965709377632)	(6.9135029374527655, 2.6991678211966068)	(-6.9793708084958102, 2.7990208306309299)	1.0	z	1.80323
25	M	B	M	B	N	N	A	A	N	8	4	shapes	N	0	True	85	(-7.8665767913707763, 0.94322302455908336)	(7.3589604058055329, 5.2957465438078355)	(3.9605530600657026, -3.6246817325719354)	(0.76457274617697557, 3.1410585338180841)	1.0	z	0.86372
26	M	A	N	A					M	4	0	shapes	M	0	True	85	(-7.4759278479351465, 4.2817732038811371)	(5.1880890708531275, 0.93134737979945115)	(-5.3535773034382981, -3.7593692368107865)	(0.88365864818867834, -3.6164780298966361)	1.0	z	0.812876
27	M	A	B	B	A	M	N	N	M	8	5	shapes	M	0	True	85	(6.7280289324888738, -7.3837854784891164)	(3.632702799082848, -1.9429710947217176)	(-0.2929404264224118, -4.4959236828273932)	(3.1315640612079854, 5.3518273744020846)	1.0	slash	1.26235
28	N	B	N	M					M	4	3	shapes	M	0	True	85	(7.7473580249213327, -1.3264953610752945)	(-1.5591938717247134, 0.16568598087336461)	(6.9276429447193095, 3.9402596407665733)	(-6.8933742558134981, -3.5243055525846829)	1.0	z	0.787818
29	N	A	M	N	M	A	B	B	B	8	2	shapes	M	0	False	85	(-6.2812588677278054, 0.90806997205938522)	(-4.6379089386808072, 7.4775921651005852)	(6.6403980622536025, 0.92494525592370636)	(-7.2746781346459439, -3.7035467001505467)	1.0	slash	0.851717
30	N	B	A	M	N	M	B	A	A	8	6	shapes	B	0	False	85	(-0.95714564844301453, 4.1390658461704479)	(-4.8865571821742693, -6.4824943647327427)	(-4.3574185630220068, 8.0365056006071534)	(7.1765955116248517, -6.0461850115541669)	1.0	slash	1.45297
31	N	A	M	A	M	B	N	B	M	8	3	shapes	A	0	False	85	(1.4535111624858423, 6.5024932696491664)	(2.5414568570091376, -7.8162630567068598)	(-5.3635773587692004, -0.0006057617096182355)	(-5.9611806680644666, 6.9380769501691919)	1.0	slash	1.31852
32	N	A	N	A					N	4	1	shapes	A	0	False	85	(8.7116868767230606, -8.6769155399517182)	(3.6039886106454357, 4.7900073287315834)	(-5.1534007960859487, -5.8826680889176739)	(-8.5270377423200596, 7.493273330347634)	1.0	slash	0.912603
1	M	B	A	M					M	4	3	shapes	M	1	True	85	(1.874672033324968, -3.5424548241092735)	(-1.6601489504529203, 0.44745311213004868)	(8.2166198018794745, 8.704219642443789)	(-6.3669940027446756, -7.3728767830975706)	1.0	z	0.766338
2	M	A	A	B	B	M	N	N	N	8	1	shapes	A	1	False	85	(-6.4212040207409569, -5.2435359489340474)	(-2.3944999953583492, 7.3646401989345165)	(7.8236928281562435, 4.3684394885393782)	(-1.2998131756206259, -7.03999933685468)	1.0	slash	1.12201
3	M	B	M	N	A	B	A	N	N	8	7	shapes	N	1	True	85	(-2.6197496219292074, -2.5662254477466337)	(-8.3282300985182367, 8.0514618524776047)	(-5.1110612341074386, -5.7222753608562194)	(6.6031101260220595, 7.9829869986057531)	1.0	slash	1.38967
4	N	A	M	N					B	4	3	shapes	N	1	False	85	(-0.3384959800635432, -1.1638829452946302)	(1.7951502528727694, -5.081672461991225)	(-5.9122103030496742, 1.4244000194852706)	(6.6834545382819233, 0.22319999778102506)	1.0	slash	0.953252
5	N	B	N	M					M	4	0	shapes	N	1	False	85	(-1.1422213895921844, -6.0102448292146402)	(-4.4185082504693227, 1.4331906067983393)	(0.84330405267637687, 6.4122646452348206)	(1.0047749244511266, -2.3746515661898018)	1.0	slash	2.18833
6	M	B	M	N	A	N	B	A	B	8	1	shapes	B	1	True	85	(1.0666472469837984, -6.1479911404573162)	(-1.5553480086264067, 1.6619851135005312)	(0.64865937051922273, 6.7380571109053253)	(-3.225179924798347, -6.1823528989423489)	1.0	z	0.860292
7	M	A	M	A					B	4	3	shapes	A	1	False	85	(-6.7187539592273797, 8.5686997918312287)	(-3.9052788368530305, -3.516659168840321)	(0.74693861656101213, -6.6199231592388212)	(6.6685746012995644, 2.8020972160522337)	1.0	z	1.24213
8	N	A	M	B					A	4	3	shapes	B	1	False	85	(5.1115609728093823, 4.1953506892224404)	(8.1149488681799298, -4.0472334679228048)	(-2.3550214439183375, -2.4915049665635847)	(-0.60207094885928925, 7.8556238348349012)	1.0	slash	1.89115
9	N	A	A	M	M	B	B	N	M	8	2	shapes	A	1	False	85	(-2.0155356605433203, -8.6715263301576524)	(-0.37325793135459584, -1.3023932150903876)	(5.6848368036810957, 3.2150066555661443)	(5.2772404171577989, -2.491230720569094)	1.0	slash	0.861287
10	M	B	B	N					B	4	1	shapes	B	1	True	85	(-6.9950558955835005, 4.4105427700236817)	(4.7875189876490847, 0.037273919747216055)	(8.4933699389643031, -3.9514423202541291)	(-1.9245290464883587, -0.60296566130033291)	1.0	slash	1.06682
11	N	A	B	M					A	4	1	shapes	A	1	True	85	(-0.3046651775318594, 6.8685147584941806)	(-6.2343152207476065, -4.6597962196844875)	(4.5902787101560651, -4.7084706097487343)	(3.769034048853797, 0.33571589127434187)	1.0	z	0.800559
12	M	B	A	A					N	4	2	shapes	A	1	False	85	(7.4713313523392131, 0.79375465373367327)	(-7.9733306077417287, 7.0022585973166898)	(7.3480206024078853, -8.3231488847260042)	(-1.1961366141162095, -4.7449117563400414)	1.0	slash	1.03418
13	M	A	M	B					B	4	3	shapes	B	1	True	85	(-7.6124854937538089, 1.1311225506696854)	(0.50423657429697499, -7.0930554043074761)	(4.9090594483733252, 4.3598074462966601)	(-7.5098504182046817, -7.7232406052708384)	1.0	z	1.01374
14	N	B	N	M	M	B	A	A	A	8	5	shapes	B	1	False	85	(6.0560481079527353, -3.2664310624025115)	(-5.0916695832703383, 5.0799822448239418)	(3.1680554635625313, -7.2300772827182689)	(5.282747025897967, 3.7417079117971248)	1.0	z	1.60698
15	M	B	N	M	N	B	A	A	N	8	1	shapes	B	1	False	85	(-4.1367733042588188, 4.4700279890967618)	(-7.1310910103989, -5.9615061330872319)	(-3.2219789120050963, -4.4163092231154959)	(-2.691542576086154, 8.7121662602930989)	1.0	slash	1.09893
16	N	B	N	B					M	4	2	shapes	N	1	False	85	(0.097902389319155958, -7.0023349280243359)	(5.6222666494539748, 2.8631516349294941)	(-6.1759746859865814, 1.4087592124995538)	(-5.1266467808256646, -6.952730024613361)	1.0	z	1.03261
17	N	B	B	M	M	N	A	A	B	8	7	shapes	A	1	False	85	(8.7008562635513407, -1.0709544512774967)	(4.1962263495451548, 0.11211972171366824)	(-2.801832128751232, 2.8466532896535952)	(-8.687230746082566, 4.4789721467669406)	1.0	z	1.17427
18	N	A	B	M	A	B	N	M	N	8	0	shapes	N	1	True	85	(0.24094321933983132, -8.2737674115239965)	(7.1753992231108494, -4.7952650240114885)	(-0.75243005225993187, 4.0892950443260432)	(-4.7028314724560989, -5.1058215397323403)	1.0	slash	1.37547
19	N	A	N	B	B	A	M	M	A	8	5	shapes	A	1	True	85	(-0.95073939808954311, 1.2726806530840129)	(-1.7587958614206354, 5.9160809719095653)	(7.4131878783193947, -4.4455236721551321)	(2.6823806052133232, 4.113741547639119)	1.0	slash	0.985525
20	M	B	B	A	M	A	N	N	N	8	7	shapes	N	1	True	85	(7.7843087011421517, -3.7821491351280576)	(-6.834281329164174, 2.1934586968358136)	(6.6161281199220294, 7.0708705879258194)	(-5.0256352708207332, 6.9579612051055957)	1.0	slash	1.92849
21	N	A	B	B					M	4	2	shapes	B	1	False	85	(1.1400325106768463, 4.7217107537106173)	(-4.1112148492682588, 0.44989163982322466)	(6.1984730860565005, -4.4286559939079755)	(-8.1067129446676756, -2.7195389628483051)	1.0	slash	1.05688
22	N	A	B	B					M	4	3	shapes	B	1	False	85	(4.1959079286451626, 3.5638787784335175)	(-3.0440299978516148, -0.75702272487967814)	(6.308005083739765, -5.2767045487407138)	(-6.249069010939202, 5.2558531497927365)	1.0	slash	1.22987
23	N	A	B	M					B	4	2	shapes	B	1	True	85	(-6.3203712177939408, 1.4700652797602611)	(0.7745758501260287, 2.4826416297088301)	(-3.6953262018823541, -8.4776011521946213)	(0.015858924628984639, -3.169608474645762)	1.0	z	0.929843
24	M	B	N	N					B	4	1	shapes	B	1	True	85	(-6.6825198079100057, -5.1913151479560833)	(-1.9820580395639205, 6.7546240958560926)	(6.5051742799322518, -3.1839576817508002)	(5.7948574715571866, 5.4480134987233804)	1.0	z	1.40146
25	N	A	A	B					A	4	1	shapes	A	1	True	85	(3.2066223671693344, 1.0908769387013262)	(-3.2474957847632879, -2.3556309363822354)	(-0.3493646427223247, 4.9662596221343431)	(8.5627280707294098, -4.265729971169864)	1.0	z	0.96339
26	M	B	N	M	B	A	A	N	M	8	0	shapes	M	1	True	85	(1.7203169152032558, -4.029374685113444)	(-1.8447967006550083, 7.0399706247794978)	(7.6265639320132834, 4.0343081828553711)	(-3.411812269187056, -4.8122196144655822)	1.0	z	1.01491
27	N	A	A	B	B	N	M	M	N	8	6	shapes	M	1	False	85	(0.37484298955735795, 4.9335070789186037)	(-4.1915505860656799, 1.4307068320949856)	(-4.3608802947370506, 6.1494871816228027)	(3.1955134427551339, -2.2398372151973192)	1.0	z	1.04856
28	M	A	M	B	N	B	N	A	B	8	5	shapes	B	1	True	85	(1.8862888158541118, -6.3155719362992375)	(-8.5922202269457291, -8.1916411094721973)	(-6.7042383326714976, 1.3039968415225935)	(5.0386611434807858, -2.1747766660260508)	1.0	z	1.00402
29	N	A	N	B					A	4	1	shapes	A	1	True	85	(5.8469275530252691, -7.0541334995773912)	(7.0988631236727624, 1.2058734010508871)	(-0.97598107152268199, 0.64849150088977758)	(-4.0482673902272257, -7.5291376238692518)	1.0	z	1.22148
30	N	B	A	B	A	N	M	M	N	8	5	shapes	N	1	True	85	(-6.0524802616835833, 3.6867282911653465)	(3.0381589654228627, -4.7194750105564669)	(8.6560451585550666, -0.19621321479409559)	(-7.7840928637234139, 7.7470900175271922)	1.0	slash	0.965286
31	N	A	B	A	N	M	B	M	A	8	2	shapes	B	1	False	85	(8.5444823772221064, 7.1746393561918786)	(-0.9632507747558785, -7.7451798611496949)	(-5.3047828476588093, 4.3517298040363972)	(-7.0015477784265636, -6.3247316920090686)	1.0	z	0.961025
32	M	B	M	N	B	N	A	A	M	8	1	shapes	B	1	False	85	(4.8672370998874612, -3.981543707318572)	(-7.9861228731143594, -4.8256272964087898)	(-3.886021682776752, 8.6573856466714822)	(-4.9004765112340793, 0.043645166180414918)	1.0	slash	1.22832
1	M	B	N	N	B	M	A	A	N	8	4	shapes	B	2	False	85	(-0.2191249778119726, -8.2218998863899362)	(-4.4290494419186626, -8.2218063525507805)	(3.2849260946827012, 2.4228876238470463)	(8.1144393412961122, 2.6564763220604615)	1.0	slash	1.19227
2	N	A	N	B	A	B	M	M	A	8	5	shapes	B	2	False	85	(-3.163556767127325, 2.9884911285155091)	(-4.5749482408574664, -3.7737966406731713)	(8.7359215689468677, 3.3495893807198041)	(1.6139995027071397, -1.6372112358882491)	1.0	z	1.06995
3	M	B	M	N	N	B	A	A	N	8	7	shapes	A	2	False	85	(4.8411625947040413, -8.4214168175776969)	(-2.853004261606884, 8.4616531745774175)	(-7.9459273101353016, 6.8530790015679575)	(-8.0790120661944798, -4.2910594103834931)	1.0	slash	1.06167
4	N	B	M	A	B	M	N	A	B	8	1	shapes	B	2	True	85	(2.3241308790912054, 0.61760826095356336)	(-5.1599390698935963, 6.2951464703566575)	(6.7487946837569108, 5.1128065892764898)	(-3.6448060744173976, -6.6900254548964186)	1.0	z	1.26122
5	N	B	B	M					B	4	2	shapes	B	2	True	85	(-6.1879296972370224, 6.9324577616068677)	(4.6550517691800657, 3.822105906406092)	(7.9899358018908231, -3.3991839464594751)	(-0.72807196795644202, -3.0764147956693222)	1.0	z	1.73032
6	M	B	N	M					B	4	3	shapes	M	2	False	85	(-4.2763942210259112, 0.6377591091544339)	(0.73446058046785367, 4.6996586160684384)	(-2.2689605696855475, -7.5325782373980781)	(2.0925879559832854, -4.5268882487985875)	1.0	slash	1.0345
7	N	A	B	M	M	N	B	A	N	8	5	shapes	N	2	True	85	(-0.47551443492661605, 1.7991930518832113)	(-6.1634779794148216, 3.7315865318162018)	(3.9571648231994292, -4.1954634665415798)	(5.5869812550133471, -0.50881753859232859)	1.0	z	0.864055
8	M	B	M	B	N	N	A	A	B	8	3	shapes	B	2	True	85	(8.0302599774822241, 5.1983926947346859)	(6.1920196534534622, -8.1348920111512886)	(-2.4586656974604431, -5.1692150232539067)	(-2.0142767326223963, 6.148741131444595)	1.0	z	1.48743
9	N	B	B	A	A	M	N	M	M	8	5	shapes	M	2	True	85	(2.4610978800636136, -5.6129004305674055)	(6.5491343678115754, -7.4780805702219144)	(-2.1909481951923215, 8.5172101103356326)	(-5.4637308976784222, -3.8957182002134676)	1.0	z	1.02735
10	M	B	M	A					B	4	1	shapes	B	2	True	85	(0.36845757891741648, 1.7866687669360743)	(-3.0379512077385105, -5.1573268372286023)	(5.6689846179043784, -3.3697516550894253)	(-2.5394209723230432, 4.8656747259801492)	1.0	z	1.09486
11	M	B	N	B	N	A	A	M	N	8	1	shapes	B	2	False	85	(-6.3043842991612333, -6.0897746395142596)	(4.5384081195147221, 7.8929951146452026)	(-3.7244075526920817, 2.1077837887452997)	(-2.5111053623796247, 6.3598752882387775)	1.0	slash	1.19196
12	N	B	N	M					A	4	3	shapes	M	2	False	85	(0.92109484023185573, -1.106540332420062)	(4.8409902947398429, 3.4013885008763065)	(-6.1913587139930524, 2.8314294953350849)	(-6.4023134697700996, -4.3050567113941902)	1.0	slash	1.17209
13	N	A	M	B					N	4	1	shapes	A	2	False	85	(6.5589484162428757, 2.6715408998539338)	(1.0924614931139196, -3.8189781960358493)	(-8.4663880784644316, 3.3342565534421755)	(-5.5049589499232878, -3.0594918244648808)	1.0	slash	1.05984
14	M	A	B	N					N	4	3	shapes	N	2	True	85	(-8.3918953927743001, 4.1983668774701055)	(1.8751842977863262, 2.184053585356855)	(6.5984660291160235, -8.1875252077266722)	(-8.6239849421237764, -3.9806132111269772)	1.0	z	0.993401
15	N	B	M	A	M	B	N	A	N	8	6	shapes	N	2	True	85	(-4.1568590319238643, -0.3362717811140854)	(3.0432954597617918, 3.8960537677485156)	(-7.6244197477186066, 6.2318373479930536)	(4.3921999057563124, 8.6663204807179)	1.0	z	0.887081
16	M	B	N	B					N	4	0	shapes	M	2	False	85	(-6.529879868846642, 6.8553013658574979)	(-4.6423327646774224, -2.0602562676103906)	(8.5127864760318488, -4.5976072179679672)	(6.9392729234385264, 3.6657633306927924)	1.0	slash	1.73661
17	M	B	M	B	N	N	A	A	A	8	7	shapes	A	2	True	85	(6.9481720310617181, -8.5650231769147513)	(-1.1279571598163676, 5.0189332344559077)	(3.6426152353908261, 3.9280917109504401)	(2.4211221360289574, 7.8010000921689553)	1.0	z	1.21033
18	N	B	M	N	B	A	M	A	B	8	6	shapes	M	2	False	85	(-6.1582341400653338, 3.3322109485797302)	(3.9446525443865355, -3.4354730812172649)	(5.1414298525126814, 4.4950710022557256)	(1.3281268806276092, 3.2251675121505201)	1.0	slash	1.60553
19	M	B	A	B					A	4	2	shapes	A	2	True	85	(1.9609660633129398, -8.5806549041675595)	(-7.5583825877934201, 4.3229670580716562)	(-6.2924800961623548, -8.7322885298117328)	(4.9310671140865328, 0.90359150501231689)	1.0	z	1.01546
20	N	B	M	M	N	B	A	A	A	8	2	shapes	M	2	False	85	(6.0168229815992103, 4.0501413610589854)	(-0.076481579978032954, 4.2587619436419732)	(-3.7288518249452611, 1.4962202761922256)	(-0.23653909703400444, -8.6585418455135397)	1.0	slash	1.10531
21	M	A	M	N	N	B	B	A	B	8	7	shapes	A	2	False	85	(8.3273927836985244, 0.53782526813399478)	(1.4920944183705949, -5.3828195008459208)	(-4.4015351471553155, -7.1256122123419452)	(0.078058544469490343, 2.2750752306818853)	1.0	z	1.03287
22	N	B	B	M					A	4	0	shapes	N	2	False	85	(-7.7844587791480704, 1.5128223335445306)	(8.3076044231280157, -1.9246238653070762)	(-4.2522683340721574, -1.4816712459520165)	(1.0574901924526117, 6.5961505326622927)	1.0	slash	1.05248
23	N	B	N	A					B	4	1	shapes	B	2	True	85	(-0.74219597331387632, 0.64628067714402881)	(-8.1396914089358727, -5.2664387856814709)	(2.6090167924199008, -1.7080289232437398)	(5.2228900724547387, 2.3197497000697886)	1.0	z	1.54806
24	M	B	M	B	N	A	N	A	M	8	5	shapes	A	2	False	85	(7.9335173411004369, 3.4891320611582675)	(5.1315881741106821, -0.045284198342200099)	(0.81659367986714848, 3.7195444450431587)	(-5.8494274322615869, -7.1751411191289503)	1.0	slash	1.04361
25	N	B	M	B					A	4	0	shapes	N	2	False	85	(-1.5441516591573663, -4.649027654609255)	(2.9261073354178411, -3.3831926271321251)	(0.65242845307240138, 4.8393303645123495)	(-8.5297985404370635, 7.2204970023731327)	1.0	slash	1.12535
26	N	B	B	A					M	4	2	shapes	B	2	False	85	(-4.4596734261051241, 4.3475576501241484)	(0.88150388070716268, 5.2740616503467166)	(-5.3329317025571523, -6.3336483994948507)	(0.80681265267534741, -4.090532410802723)	1.0	slash	1.09461
27	M	A	A	B	B	N	M	N	M	8	0	shapes	M	2	True	85	(-0.37580678098634301, 3.9905355388987012)	(-6.5374517809083494, -4.8491400457132574)	(-0.27436059886948883, -6.2229013324030076)	(-4.1837214271806662, 6.0764265961823387)	1.0	z	1.03242
28	M	A	M	A					A	4	1	shapes	A	2	True	85	(4.4701891675446035, 2.2273609140991546)	(-2.8500472773672474, 6.9625233772681465)	(-2.2429822392045367, -3.6810785600150417)	(1.9756491167280483, -2.4350479993453638)	1.0	z	1.26807
29	N	B	N	M					A	4	1	shapes	B	2	False	85	(1.1219029368442168, 5.2784567907764526)	(-4.1733968529079126, -7.9912820101557234)	(7.1909658553658673, -7.7569092866900142)	(-8.2424149082586577, 8.3480990804701705)	1.0	z	1.10383
30	N	A	B	B					B	4	2	shapes	B	2	True	85	(-4.7000877639570344, 8.5862811867260653)	(7.2111730550085706, 6.1579120753578369)	(5.5584943554085289, -5.3952193100865102)	(-7.0808877882620758, -5.6548843736681622)	1.0	slash	1.00546
31	N	B	A	N	B	A	M	M	M	8	7	shapes	M	2	True	85	(0.1387808576055285, -3.7400083779261859)	(-5.2930451242002832, -2.2460033312225978)	(-4.7248719875204985, 7.6414335344860902)	(5.8138043544308147, 4.2066546497148423)	1.0	z	0.937064
32	M	A	M	A					M	4	0	shapes	M	2	True	85	(-7.7436601196418389, -0.37857497535426532)	(1.1433755353320834, 1.2904926249738295)	(-7.9007710740133756, 8.2286961075945442)	(8.3885120200818726, -1.3241555046028939)	1.0	z	0.96689
1	N	A	A	N	M	B	B	M	B	8	6	shapes	B	3	True	85	(5.4021619392152509, -5.7633154600249572)	(1.2648392425492361, 2.4721157254748416)	(-8.074872855597663, 4.8726361496697628)	(-3.8978933555146531, 1.8673010938835155)	1.0	z	1.10238
2	M	B	N	N	A	M	B	A	N	8	1	shapes	B	3	False	85	(7.5829650881222399, 7.2793408072383521)	(4.0899605837342889, -1.4964522634386972)	(-4.4632970375535281, 7.6700266274232902)	(-4.660580490154377, -2.6129588465065554)	1.0	slash	1.09401
3	M	B	A	B					M	4	0	shapes	M	3	True	85	(-2.2703858849087766, 2.8957923493189863)	(-5.2320393295989991, -0.42586296997182416)	(3.644855057647419, -2.8647218019277734)	(4.4048018988449389, 2.5104875096689572)	1.0	z	0.893736
4	N	A	M	N	B	A	B	M	N	8	7	shapes	M	3	False	85	(-1.1175203996961924, 0.79096508296986201)	(-5.5108296125422509, -2.5339226162003641)	(3.8055001519175224, 0.85271163104079761)	(-5.6917864717083262, 8.1274769371905577)	1.0	slash	1.00732
5	M	A	N	N					A	4	2	shapes	N	3	False	85	(0.78248051209119041, -8.6022835765642345)	(-4.9168333756595715, 7.8568690854628613)	(-6.7503081740052666, -5.2257247275775232)	(1.9303885522906814, 5.7527946581021663)	1.0	slash	0.992954
6	N	A	M	N	A	M	B	B	N	8	3	shapes	N	3	True	85	(-3.0739721021764108, 1.0536843973881922)	(-6.5002907652110595, -2.6978479967911433)	(8.6105563802795224, 1.5187519335522914)	(7.9098176011136587, 6.6377682508757125)	1.0	z	0.902578
7	N	B	A	B					N	4	0	shapes	N	3	True	85	(1.9281889472425675, 2.9636586493356329)	(-2.4026516337063946, -4.2159225505623059)	(5.8944573054994542, -7.4440736273137844)	(-4.9154091509950035, 7.3311039306811594)	1.0	z	0.86011
8	N	B	A	M					A	4	0	shapes	N	3	False	85	(2.0874481092211195, 6.763336186001693)	(0.42590634715699416, -2.0835801485682168)	(-2.9693905940340519, 6.8364887937376402)	(-8.5606333869567326, -6.3203749260030744)	1.0	slash	1.00177
9	N	A	B	N	A	B	M	M	N	8	3	shapes	N	3	True	85	(2.2436651316924543, -6.7776940094009621)	(-6.5897421142377368, -3.34019606524667)	(2.2309403533267265, 2.8556958239224883)	(-3.057599487279, 7.1111141233444073)	1.0	z	0.885452
10	N	A	N	A					B	4	3	shapes	A	3	False	85	(1.567048867753531, 6.6549904710363474)	(-5.3084916091615195, 5.7994556248597249)	(-3.6627899184575945, -2.6847400631393219)	(7.5791820217085899, -5.6179026000764853)	1.0	z	0.935403
11	M	A	N	A	N	M	B	B	A	8	5	shapes	M	3	False	85	(-4.0872452533755483, 5.1551869514585924)	(0.56433500611689702, 1.7979314774471096)	(0.42269411508588206, 8.0027016321790825)	(2.2612412762712566, -2.4159894081794029)	1.0	slash	1.17674
12	N	A	B	M					B	4	2	shapes	B	3	True	85	(-0.52509729589847076, -2.2373385697922936)	(5.7932138939760236, -0.42280589127018864)	(-7.6154888339464684, 3.5412514340723042)	(2.8006722376669426, 7.0849432465449915)	1.0	z	0.991903
13	N	A	B	A	B	M	N	M	M	8	5	shapes	M	3	True	85	(-1.3070946903658971, -0.7132635761233459)	(-8.5173934805214895, -3.5270292325870152)	(8.5138420583525054, -1.7481455506377053)	(-5.0158570397112614, 7.3165936813703887)	1.0	slash	1.46981
14	M	A	N	N	B	B	A	M	B	8	0	shapes	M	3	False	85	(0.72289974203254914, 2.9666738856782597)	(-7.6658513392377765, 2.6806191326474593)	(3.3814384010559859, -8.0802454079616766)	(-5.4850825420480227, -7.9721934842355138)	1.0	slash	1.05364
15	N	B	M	B					M	4	2	shapes	M	3	True	85	(7.2805324631759731, 3.0609726327942361)	(-0.27879896613852928, 7.5607647138697232)	(5.0990338610622779, -4.986883422152534)	(-2.9874156241750844, -4.4221438218955829)	1.0	z	0.901225
16	N	A	B	A					N	4	1	shapes	A	3	False	85	(1.0205688839077034, 4.2969559090692115)	(-8.2097658511742519, -3.1020164992410235)	(6.9017770364023594, -6.3976301618458011)	(-7.9257088191357052, 7.2602507016408993)	1.0	slash	0.931019
17	N	A	B	B	N	A	M	M	M	8	4	shapes	N	3	False	85	(-6.5356998184353507, -0.58850666678734065)	(-5.0746220511201479, -7.6211884469868911)	(5.5638404069819227, 2.2556873876733174)	(0.94332017712069671, 3.2160045652816436)	1.0	slash	1.05268
18	N	A	B	N					A	4	1	shapes	A	3	True	85	(3.6413136012214942, 8.5446694970350521)	(1.7593416165577533, -3.9985436602584343)	(-7.0125845917332263, -0.13214430726911885)	(-2.9830412553171328, 4.5187911689716813)	1.0	z	1.33218
19	M	A	M	A					N	4	3	shapes	A	3	False	85	(-4.0690635989617103, 5.3146722541454352)	(1.2030250992659575, 1.1639619302518422)	(-2.5766219339628931, -5.3475202395254637)	(5.3553324524927675, -0.98135886076128731)	1.0	slash	1.03568
20	M	A	B	B	A	M	N	N	B	8	3	shapes	B	3	True	85	(8.2503071750875101, 4.4721921849555901)	(-7.6048908760705682, 1.6101518034443281)	(8.594653227525356, -7.3734379362681093)	(-1.4682088354703202, 4.5278969465540246)	1.0	z	1.0734
21	M	A	M	A	B	B	N	N	M	8	5	shapes	B	3	False	85	(-1.2023367733873638, -0.18344146095041225)	(4.6323141032266424, 2.3278865260031001)	(6.7860279974604243, -4.8050039565348257)	(-0.51315672305515569, -4.3716952046887041)	1.0	slash	2.07062
22	N	A	M	M	B	B	N	A	B	8	5	shapes	B	3	True	85	(-3.8150450502195596, 2.5306251479633701)	(1.9065883415036406, 3.2381052304333799)	(0.17732926885904376, 6.9592298479422094)	(5.5405292114037064, -7.1953456464304271)	1.0	z	0.932568
23	N	A	M	N	A	B	B	M	A	8	1	shapes	A	3	True	85	(3.8494987803933967, 2.6521750953737513)	(-5.4149965121088863, -2.6567683085686546)	(8.6165913217197279, -8.3359952666715333)	(-1.6690662933916798, 7.5644103232585671)	1.0	z	0.894338
24	M	A	A	N					A	4	1	shapes	A	3	True	85	(-5.301564080706223, 1.5480139970092246)	(1.4103658897546456, 0.086788678423737053)	(7.2782769499581796, -3.0216870065663262)	(-5.0352371890281287, -5.5565937366742588)	1.0	z	0.989941
25	N	B	B	A	A	M	M	N	N	8	6	shapes	M	3	False	85	(-2.2029984262319866, -3.3583879100066198)	(4.6935991284330001, -8.3358706211434281)	(-3.6436485214822278, 5.8681403225555364)	(5.9738688276719181, -0.6791613766839486)	1.0	slash	2.82061
26	M	A	N	A					A	4	1	shapes	A	3	True	85	(4.3757285133399026, -1.2742909462615737)	(-1.6833069560416094, -1.779879909748848)	(1.3929528186993476, 2.5761275486450188)	(-1.5386283408542019, 6.41235009275875)	1.0	z	0.73111
27	M	B	B	N	M	A	N	A	M	8	6	shapes	N	3	False	85	(8.1438646530624617, -1.5001323200542718)	(-2.8603103640776419, 6.5582996010900416)	(1.1012535064847135, -7.0380555576759134)	(-8.1327191561377532, -8.6057191274622546)	1.0	slash	1.00501
28	M	A	B	N					A	4	1	shapes	A	3	True	85	(3.666694204568957, -7.1123856176938389)	(-1.4498458141303896, -2.7999459205037773)	(-4.9794981560575398, 7.7829399165255211)	(2.0396139623952045, 4.372378303381911)	1.0	z	0.838361
29	N	A	B	M					N	4	3	shapes	M	3	False	85	(-0.20863576638558357, 0.10961690102427646)	(3.9436705775352365, -2.6794890444620698)	(-3.0565757080796674, -7.4128494769172093)	(2.697039487684405, 4.3966450970932982)	1.0	slash	1.1039
30	N	B	M	A					N	4	2	shapes	M	3	False	85	(-8.2934111889570428, -0.40049067625303536)	(5.8466437586550484, -5.7254450831300012)	(6.4209931633239936, 6.8266293999438439)	(-2.4442714071772622, 0.28580046788879265)	1.0	slash	0.949654
31	N	A	B	N	M	M	A	B	N	8	3	shapes	N	3	True	85	(-7.9275670961645082, -5.4472277530411102)	(-2.8404009556326901, 0.53080323223678505)	(7.6719263663000845, -4.8924806048735254)	(-4.3355898412544249, -8.2186934628506751)	1.0	z	0.645547
32	M	B	N	A					M	4	2	shapes	N	3	False	85	(-5.6219194999136857, -1.6074449556175914)	(3.7979098007340966, -5.3141935055123639)	(-0.12787274705444673, 6.8302171060147607)	(7.4292375118457308, 0.47147443249445686)	1.0	slash	0.862984
1	M	B	M	A	N	N	B	A	M	8	2	shapes	M	4	True	85	(7.9546235367267606, 0.59730811384994631)	(-4.5900905306328497, 7.8300314273647587)	(-7.2046803431680928, -2.2386789360765178)	(-1.5644244066711792, 4.3736163020995242)	1.0	z	0.801218
2	M	A	A	M	B	B	N	N	A	8	2	shapes	A	4	True	85	(-0.96843052195551493, 7.0935201253244973)	(-5.2199453016304673, 0.44966852817579372)	(5.0812943301860294, -3.4317079869934526)	(3.9931293993901544, 5.9891842584139106)	1.0	z	0.924089
3	M	B	B	N	A	M	N	A	A	8	3	shapes	N	4	False	85	(-3.1170563080240195, -3.8098803575377262)	(7.5687515967249475, 5.1146862433519349)	(-1.4771728080531608, 3.0922152300344905)	(0.74569798952727417, 8.0121629353589618)	1.0	slash	1.03182
4	N	A	A	N	B	B	M	M	M	8	4	shapes	B	4	False	85	(-3.105072766715244, 7.7395322205827242)	(6.2295843803936837, -3.9979913341100985)	(-7.2048965772309943, 6.3040372685647501)	(6.2951838591224387, 7.3159485902323667)	1.0	slash	1.07742
5	N	A	B	N					M	4	3	shapes	N	4	False	85	(7.8472205987729673, 7.2564381138458387)	(-0.5931154747614773, -7.4971219917433451)	(-5.8977050433791192, 2.5933162679590218)	(0.88625577857372129, -1.8054455137701568)	1.0	slash	0.767109
6	N	B	B	A	M	A	N	M	M	8	2	shapes	B	4	False	85	(6.3225007704697962, 1.0418234876445034)	(-8.5384259477370126, -3.4869359503810005)	(3.7971392231805634, 7.4058497466975055)	(1.4910182128969076, -6.8532553127839968)	1.0	slash	0.826961
7	N	B	N	B	M	M	A	A	N	8	7	shapes	A	4	False	85	(-2.1861751139248788, 5.7155808729545896)	(-6.5023595656131938, -1.5197520578698329)	(0.62578627971797118, -3.5014188159561446)	(8.3850464944775247, -6.6771001488732189)	1.0	slash	0.786493
8	N	A	M	A					A	4	3	shapes	A	4	True	85	(8.6137088573697866, -4.7814828269635701)	(-6.5377629843260312, -8.7452584780857077)	(-4.1155288985978205, 1.6434914291732952)	(5.2010362168891238, 8.3553554440878663)	1.0	z	1.01604
9	M	B	M	N					M	4	2	shapes	M	4	True	85	(-6.7085673095840628, 4.1207751018881726)	(5.816835472294887, 7.8133456859695656)	(3.6709288935093003, -2.520867119860406)	(-4.9121276580898252, -2.7300913766760422)	1.0	z	1.13568
10	N	A	B	B					N	4	0	shapes	N	4	True	85	(-4.2287605408403355, 7.4515495622346997)	(-5.3173828078599232, -2.0278278245245263)	(0.67061036100377081, -5.8191785448265065)	(3.9826383198541411, 1.2089427104075803)	1.0	z	0.783966
11	N	B	M	A					A	4	2	shapes	M	4	False	85	(-0.94277130678193721, -1.6109947353648701)	(6.5563068946581282, 2.8381263282835221)	(-1.8981664361007873, 5.3647921796536071)	(2.3968597629240254, -7.5619163708617734)	1.0	slash	0.781062
12	N	B	M	M					M	4	3	shapes	M	4	True	85	(-6.9006964712487164, -3.0118095126542874)	(-7.906446545701467, 8.2185008544708076)	(5.3403590801118117, 7.3952786316047252)	(1.4739975352763324, -3.6213111593585445)	1.0	z	0.770512
13	N	B	N	B					M	4	1	shapes	B	4	False	85	(4.4698646346351349, -3.3522580052583431)	(-2.1437379036524096, -1.5845626655702629)	(6.3655720189274358, 8.4079928456625979)	(-3.730550050543223, 6.9879912160633939)	1.0	slash	0.690915
14	N	B	N	M					B	4	2	shapes	N	4	False	85	(4.4213027575218717, 2.1678785794810196)	(-4.5805738862068797, 1.3615840227935934)	(3.2911303095566513, -4.9236565024841958)	(-7.803275477267511, -5.302762451482498)	1.0	slash	0.658077
15	M	B	B	N					M	4	2	shapes	B	4	False	85	(-5.3892332235849949, 2.5504791625196468)	(5.1435156385191245, -8.084277595531761)	(-1.1333990363982149, -5.1489418612462927)	(8.0388404631646431, 0.45808879318769513)	1.0	slash	0.719688
16	N	B	B	A					A	4	1	shapes	B	4	False	85	(7.765675300342977, 5.4043682048961017)	(8.5201775307604741, -3.0889593443059447)	(-1.5336313433969302, 8.309407856536172)	(-3.7756703078956084, -4.7152959119003315)	1.0	z	1.00147
17	M	B	B	A					M	4	0	shapes	M	4	True	85	(-2.0077675223962634, -7.4867505569404367)	(5.8655186438505602, -4.1229540502480404)	(5.9078812791187651, 1.6727099630269961)	(-6.7767553867984596, 2.0852111458319786)	1.0	z	0.906912
18	M	B	M	N	B	N	A	A	A	8	6	shapes	A	4	True	85	(8.619048509516098, -7.0511404783241609)	(-8.035079476138252, -3.8746609708634008)	(3.8943271644121573, -6.6576780456523181)	(-5.8248017624744781, -7.4122076415599922)	1.0	z	1.04271
19	M	A	B	B	A	M	N	N	N	8	7	shapes	N	4	True	85	(0.57259207706989201, -4.4050386404553006)	(2.8317818149940681, 2.9971256641425139)	(-6.5674756489945931, -0.71050475052404671)	(-1.7467813353335284, 2.6538703056780779)	1.0	z	0.966284
20	N	A	A	M	B	N	B	M	N	8	5	shapes	N	4	True	85	(7.1351584341557608, 3.6662166658655337)	(-0.51898591873285937, 4.4209213442014885)	(-7.00746876476446, -2.5941897997085723)	(0.14723011697821953, -0.32022513221996896)	1.0	z	0.977876
21	N	A	A	B	B	M	N	M	A	8	2	shapes	A	4	True	85	(2.2522041698463386, 6.6576370304311663)	(0.68905284770205988, -5.9583095386754357)	(7.170251455245463, -3.8682346065653892)	(-8.719482177928267, -8.4909146980255379)	1.0	z	0.865968
22	N	A	A	M					M	4	2	shapes	A	4	False	85	(6.0155213923018334, 0.04485624997899329)	(-8.3529797959561023, -8.5342478611861416)	(8.3121189168247653, -5.4084598574336038)	(-2.6919260359819068, 7.149837210135864)	1.0	slash	1.03934
23	N	A	A	M					M	4	3	shapes	M	4	True	85	(-5.1955488262481406, 5.3072679333828745)	(-3.5581048082746669, -0.024587146066293641)	(4.4802858370410643, -0.88581948868740135)	(8.360883097919892, 7.8278059889859861)	1.0	z	0.896817
24	N	A	M	M	N	A	B	B	N	8	5	shapes	A	4	False	85	(5.9370505433421261, 2.3714514459445155)	(6.8403575792636477, -2.0108906010554435)	(-3.1384043961936214, 5.8478859474318519)	(-1.6088144884387008, 0.13136095314178853)	1.0	slash	0.890501
25	N	A	B	N					A	4	1	shapes	A	4	True	85	(-7.1101183395234218, -4.4171185554063381)	(7.8542355744054184, 2.9265483442020432)	(-6.1707954351272916, 2.4244759544567671)	(4.9947675346370257, -6.5718428256895889)	1.0	z	2.10905
26	N	B	M	N	M	A	A	B	N	8	0	shapes	N	4	True	85	(3.8396917754688609, 7.7291022147585196)	(-0.9051507344084051, -8.4504391664819973)	(7.7584176478391349, 0.25268710669753958)	(-7.369085883956684, -7.6306223606828327)	1.0	slash	1.17158
27	M	B	A	M	A	B	N	N	A	8	0	shapes	M	4	False	85	(1.1665728111168985, -3.9282480253802774)	(-3.5523461156868468, -1.2788019973928622)	(6.7149640400066026, 8.3291024519818428)	(8.7043383212458068, -2.9603795114002258)	1.0	slash	1.02128
28	M	B	B	M					M	4	3	shapes	M	4	True	85	(8.3963067201401422, -4.4852125065344062)	(2.6344479340242106, 4.5442072347532143)	(-1.4636951995975007, -5.2817819569487412)	(-0.15346343822112374, 1.3796564101711866)	1.0	z	0.699586
29	M	B	M	A	B	N	N	A	B	8	6	shapes	N	4	False	85	(5.8552557838314101, -5.9600879840275587)	(-5.2287590980033301, 1.6589470022526864)	(-6.251890428361996, -3.8872185952171616)	(3.4241763776061873, 3.0174621799651646)	1.0	slash	1.14073
30	M	B	M	A	N	N	B	A	M	8	7	shapes	A	4	False	85	(-0.63750186263068898, 0.88868162780877746)	(0.92729972560012186, -2.9254780696712288)	(-3.1179200165178305, -7.9554675446425067)	(8.7003145087288196, -3.2691827877119888)	1.0	slash	0.750281
31	N	B	A	M					N	4	1	shapes	B	4	False	85	(-5.4634683033132294, 1.7179436952542613)	(7.3540482257896223, -4.2274884276682476)	(2.269738873931967, 8.1040764995982002)	(-0.56799668601231268, -6.4406277583978868)	1.0	slash	0.857967
32	N	B	N	M	B	A	A	M	N	8	2	shapes	N	4	True	85	(-4.4102519727346214, -2.7449311088452726)	(-3.5789740113917361, -7.6920287534453813)	(1.0008202182191894, 5.0652547845892713)	(0.74331258618180662, -2.317771721693382)	1.0	z	0.676246
1	M	A	N	B	B	M	A	N	N	8	1	shapes	A	5	False	85	(-2.4524081114186549, -4.9922011671562023)	(7.6127611646361117, -4.546412719745609)	(-5.267410520177247, 2.7557222942305444)	(2.3627607196042266, -6.6389691217660785)	1.0	slash	0.757403
2	N	A	A	M					N	4	2	shapes	A	5	False	85	(-8.1231380822916037, -5.9283214089684844)	(-2.1285251103516885, 3.4443466480238687)	(2.3924735791897973, -6.5399261618488032)	(5.1874179913496743, 2.7020249214669363)	1.0	slash	0.679064
3	N	A	M	A					B	4	0	shapes	N	5	False	85	(2.5151702427103952, -6.9404426757381712)	(0.60681322223257972, 6.5252078952110608)	(-1.5156383434547207, -4.9844520887925601)	(-5.8931730795323967, 6.2214616247097894)	1.0	slash	0.88867
4	M	A	A	B	N	M	B	N	A	8	1	shapes	A	5	True	85	(2.8887620506141438, 5.7746333588937571)	(1.5479275342713628, -0.16163104619850976)	(-6.6606057640269132, -5.1897214394113851)	(6.8089696745810855, 7.5257585551945887)	1.0	z	1.5957
5	N	A	A	B	B	N	M	M	N	8	7	shapes	M	5	False	85	(-2.6455474463173463, -6.919717621706778)	(4.5713112226044803, -5.6882443101429851)	(-0.61899508464173714, -0.32591336477619315)	(-6.051349985563963, 7.5647764108135398)	1.0	slash	0.833863
6	N	A	N	A					A	4	1	shapes	A	5	True	85	(-7.2965113688122614, -2.7564502797433992)	(-5.7075565137859154, 2.526199196718224)	(3.1790165808724815, 3.5460767342178752)	(0.20450469399360216, -7.1860351157541604)	1.0	z	0.709569
7	M	A	B	M	B	N	N	A	N	8	7	shapes	A	5	False	85	(0.65805937613293786, -0.48842109154758262)	(4.2932098121729556, 3.3549968340472205)	(0.62586039019118367, -7.500289846685293)	(-2.297382817962915, -3.4803022940271431)	1.0	slash	0.829276
8	M	B	N	M					B	4	1	shapes	B	5	True	85	(1.8630581020792025, -5.38755046857551)	(1.9586685774139099, 4.9288312364449549)	(-6.482898400945114, 5.0783248613793681)	(-2.1215856266197068, -5.7945577714213741)	1.0	z	1.08881
9	M	A	N	N					B	4	1	shapes	A	5	False	85	(-4.0359576664609076, -8.2105144306263256)	(6.7641940987750022, -4.1024503543605908)	(-8.3558163074242273, 1.0784766953239107)	(4.3823958217316363, 0.74183788633144943)	1.0	z	0.872547
10	M	A	M	B					B	4	2	shapes	M	5	False	85	(1.6214777755493319, 1.7174182227439569)	(-4.761444454103998, 2.7463691486961483)	(3.5132305794724559, -2.4878130977080639)	(-2.9959070912747192, -2.3569721311159082)	1.0	slash	0.780059
11	M	A	B	M	B	A	N	N	M	8	3	shapes	M	5	True	85	(7.8373417665827141, -4.3177787099447427)	(-2.3910097115966469, 4.6324241924212615)	(0.65920814648406179, -2.35228918954558)	(4.1422512985982678, 0.37929958017190835)	1.0	z	0.793873
12	M	B	M	N					B	4	2	shapes	M	5	False	85	(7.9966183471512586, -2.8479346994168999)	(-7.7392878715310811, -1.4029361941797367)	(6.1062288173761576, 0.70353791897598228)	(-7.1183508963949444, 5.6586751843681)	1.0	slash	0.717862
13	N	A	A	M	N	B	B	M	B	8	4	shapes	N	5	False	85	(2.3893625765312567, -0.78741621061687983)	(5.7451321176378443, 5.3086335944730365)	(6.832944641046204, -6.9872273562120135)	(-7.2634700011118261, -6.4258560214620317)	1.0	slash	0.883213
14	M	A	B	N	M	B	N	A	N	8	6	shapes	N	5	True	85	(5.4886023534215109, -4.3522087173120028)	(8.5186854887105952, -8.059519599200323)	(-8.5481300352358591, -0.91474839364894045)	(-3.9031855343099915, 3.2836968886592395)	1.0	z	0.847278
15	N	A	A	B	N	B	M	M	M	8	6	shapes	M	5	True	85	(2.1742891971630556, 6.3235260816152863)	(-5.6530060044158779, -1.2610563050463472)	(-0.80048117466057356, -0.70750428938558407)	(8.4325492288092789, -0.88602009685272343)	1.0	z	1.16229
16	N	A	B	A					N	4	0	shapes	N	5	True	85	(7.2795399124636724, -0.78236893274118025)	(-8.0110130815259613, 2.4449125097171436)	(3.1255675680413031, 2.4552468523990161)	(-1.8545494647048715, -0.80080004029302909)	1.0	z	0.564086
17	M	A	B	B	A	M	N	N	N	8	7	shapes	N	5	True	85	(2.6870564209845789, -1.2326776168219222)	(1.2970067239673373, 3.240402951381208)	(7.8815519136771712, -4.5993285217286015)	(-2.8452458811410875, -3.069561522693121)	1.0	z	0.839594
18	M	B	M	B					B	4	0	shapes	M	5	False	85	(1.0121663587388081, 3.2546993815361951)	(-0.95747196077140462, -3.3301742077681098)	(5.3869535359079954, -6.3649670583300537)	(-7.8645608295572673, 3.5494949908003246)	1.0	slash	0.745616
19	M	B	B	M					A	4	0	shapes	M	5	False	85	(-3.5528316798689383, -2.4100453778164699)	(0.29547012677283924, 0.82251127899857224)	(-8.4267069154589027, 0.803970279351919)	(4.4441213143561384, -4.826801165901597)	1.0	slash	0.711296
20	N	A	B	M	A	N	M	B	M	8	3	shapes	M	5	True	85	(0.4505758426674582, -4.2331681291217071)	(-7.8884490154786278, -6.0585183965774974)	(-8.2307995485313565, 3.0718303643765736)	(4.1672391811148763, -1.4530572627076541)	1.0	z	1.47623
21	M	A	A	N	M	B	B	N	N	8	5	shapes	B	5	False	85	(3.5252265898981925, 8.4033352798289584)	(4.3953204967928237, 4.1314252141847163)	(-2.1860195169942633, -4.7023752749959451)	(-5.9256312094336199, 3.2845625751228145)	1.0	slash	1.34374
22	N	B	N	M					B	4	1	shapes	B	5	True	85	(-8.706690658219804, 2.4298785309596234)	(-8.3027027746504114, -8.1733458852329637)	(6.155715835199242, 2.1132547399479353)	(2.73574147550198, -8.1321290488646198)	1.0	z	1.06992
23	N	A	M	N					A	4	1	shapes	A	5	True	85	(-6.741110785555092, -2.7167948262638646)	(-6.7807442255380721, 3.4307258023561378)	(8.3209734961801267, -6.7320064342119323)	(1.040615212670815, 0.83248103745008706)	1.0	z	0.913516
24	N	B	N	A	B	M	A	M	M	8	1	shapes	B	5	False	85	(6.0855882948849747, -8.2031011833803298)	(0.43972458709465911, 0.27536000267818572)	(-0.76889777095079026, -7.0863547975835273)	(4.7472599054729443, 8.3496508510963849)	1.0	slash	1.06303
25	M	B	A	B	M	N	A	N	M	8	1	shapes	B	5	False	85	(1.6865625866682183, -7.155106655678483)	(-5.0199121928379205, -5.4579622584736391)	(-7.0544452624441076, 7.5242727299125711)	(8.3981758997151026, 6.4762061142346585)	1.0	slash	1.20692
26	N	B	B	M					N	4	1	shapes	B	5	False	85	(-6.5647624882559352, -7.8246027382331995)	(7.5364808910235865, 3.9237881701474855)	(-7.4750602518509233, 0.51030776354319052)	(3.0699230021255861, -8.5787656149187299)	1.0	slash	1.00833
27	M	B	M	B	N	A	A	N	N	8	7	shapes	N	5	True	85	(-5.6616320835626341, 6.9007724285235383)	(-7.5464874409097469, -2.5400210341795066)	(5.7826240834880736, 4.929243784256375)	(-0.9605267487197402, -2.9466577879183831)	1.0	z	1.47585
28	N	B	B	N					B	4	1	shapes	B	5	True	85	(1.1458628095307795, -8.4673795857169321)	(6.3246690971066286, 1.9466352722613927)	(-1.9270561841949094, -4.298471424702373)	(-5.8949118117431416, 4.3244711688799935)	1.0	z	1.32762
29	M	B	A	N	A	M	B	N	A	8	6	shapes	B	5	False	85	(1.7446569387459601, -2.837768614594955)	(-6.4644211995127439, -7.526285291731627)	(6.4826532350658184, -4.2814247056953239)	(-0.17578438752101988, 6.8058919920484158)	1.0	z	1.16317
30	N	A	A	N					N	4	3	shapes	N	5	True	85	(-5.8272815607236019, 4.0990944191583978)	(-7.2186576796196338, -8.0984709055372228)	(1.3786637864532665, 6.9397910703555237)	(7.0252482998879948, -7.5294050756713631)	1.0	z	0.980835
31	M	A	N	A					M	4	0	shapes	M	5	True	85	(-4.6068346092372305, -7.6009377786014376)	(2.5900131255863705, -0.90077229358086974)	(3.1682884787127072, 4.5396704337973723)	(-6.2681740596513293, 4.2862149320905285)	1.0	slash	1.39468
32	M	B	A	N	A	B	N	M	N	8	3	shapes	N	5	True	85	(2.150723818262616, 2.4503785778987783)	(2.5891379342364012, -7.5589056238900465)	(-5.9232104743288732, -1.5660333686762211)	(0.80999388967799746, -3.628039205419082)	1.0	z	1.04812
1	M	A	M	A					M	4	3	shapes	A	6	False	85	(-0.93239070394409929, -6.9776972328901765)	(-1.5311734866202507, 0.43675053565842958)	(4.3294033942413055, -3.6720761688777142)	(4.7072303863760858, 2.5517670339908456)	1.0	slash	1.14566
2	M	B	M	A	N	N	B	A	N	8	4	shapes	N	6	True	85	(-1.519446862461729, 1.386178480624972)	(-0.69292412932781744, 5.6859257735535191)	(0.92573573634557604, -3.9643558995703803)	(8.3299611289921209, -1.5925616656331192)	1.0	z	0.953488
3	N	B	N	B					B	4	1	shapes	B	6	True	85	(5.9851014813309948, 5.4745184082936333)	(-3.5017245875455245, -0.055686255549092678)	(0.0053484665527410158, -3.1942299906401628)	(-6.9330061191378904, 4.4264937115465397)	1.0	z	1.16502
4	M	B	B	A					B	4	2	shapes	B	6	True	85	(-7.6540452146910116, 8.2016499080970888)	(2.9188673885706624, -2.564533084704852)	(0.54753252724370505, 4.0172232907177587)	(-8.4799661471269552, -8.6709875528721359)	1.0	slash	1.23872
5	M	A	N	N	A	B	M	B	M	8	0	shapes	M	6	True	85	(7.6118013153442838, 2.5204380825326833)	(3.6415710951547311, 3.8006900934658123)	(4.4165288619126457, -5.8444673788322419)	(-6.266954965779707, -4.4152252221495116)	1.0	z	0.964434
6	M	B	A	B					N	4	1	shapes	B	6	False	85	(-1.4234081740552611, -7.4413519997599114)	(1.8798700679881701, -0.16991689638644836)	(-7.1534374377126486, 0.20204401228168045)	(4.8645015247282881, 8.5391867763840601)	1.0	slash	1.26168
7	M	B	N	A					M	4	0	shapes	M	6	True	85	(-6.7384760969274602, -8.3419262085001442)	(0.9935444511965752, -5.8442779331599635)	(-6.1288287318252266, 6.9502554898063451)	(3.0957830531751931, 1.4484140545458892)	1.0	z	0.859573
8	N	B	A	B	N	A	M	M	B	8	6	shapes	M	6	False	85	(-4.5375240017330327, 1.0630659326278131)	(0.42313830644411254, 3.0084781282284041)	(4.5947365924975827, -6.193521994053377)	(3.5367377303761849, -0.031434761760660734)	1.0	slash	1.11725
9	N	A	N	B	M	A	M	B	A	8	0	shapes	N	6	False	85	(-2.351173060370237, -2.1035933328292806)	(1.9403884983196971, -5.3140603674100682)	(-4.6686841393824636, 4.8983740329952603)	(1.1390864157887286, 6.9073377365673974)	1.0	slash	1.34635
10	M	B	N	N	B	A	A	M	M	8	6	shapes	A	6	False	85	(-7.2849317562906633, 4.869113199398841)	(-3.6492710394054892, -1.8634855849176555)	(2.2330444304535177, 1.5619494166086554)	(6.3017408850783241, 7.3757708916371101)	1.0	slash	1.86583
11	M	B	B	A					A	4	1	shapes	B	6	False	85	(-5.1187847942416198, -8.1777911187373515)	(6.4407457559541275, -7.7463473942984242)	(-0.34243624954823559, 6.4826330656337685)	(8.041386958443578, 4.5962832022526285)	1.0	z	1.01597
12	M	A	N	N	B	A	M	B	N	8	1	shapes	A	6	False	85	(-3.7715476156760577, -5.0748635611913766)	(0.46000093671809417, -3.2718269266935458)	(2.9648637747716613, 1.7930866425379008)	(-7.8187805488727102, -6.8930031923467103)	1.0	slash	1.01767
13	M	B	B	M					B	4	0	shapes	M	6	False	85	(-2.334929827858593, 4.3860112166299654)	(2.6864315765828319, -3.5015192702540467)	(-8.0530966043527545, -3.0307355083699266)	(6.2121574526683485, 6.3748785809357909)	1.0	slash	1.18315
14	M	B	A	N	M	B	A	N	A	8	3	shapes	N	6	False	85	(1.9507981212906831, -6.5570354295403952)	(-5.4392526885189696, 6.8437621183787023)	(1.8858502860167725, 3.8594526832322629)	(-3.6038189404421352, 1.3349225314797835)	1.0	slash	1.03888
15	N	B	A	B					A	4	2	shapes	A	6	True	85	(-3.0836931187498839, -1.8444071475460824)	(-2.8492044790939781, 4.1585365181766889)	(6.3671719435695131, 6.1079537659087499)	(4.0190668502597831, -6.9138330079120731)	1.0	z	1.22648
16	N	B	A	M					B	4	3	shapes	M	6	False	85	(8.3198280854364342, -5.3538082025853289)	(-1.9368111130876935, 1.635385376745834)	(3.7344118741940804, 4.0972734455007433)	(-0.47091620529551648, -5.5578609965733854)	1.0	slash	0.958181
17	M	B	A	A	M	N	B	N	A	8	3	shapes	A	6	True	85	(3.8812661047013872, -6.4316915824562884)	(-1.2041435519872019, -4.803610498662028)	(-2.3784721407530194, 5.8635669347143082)	(-8.0704788019721185, 2.6002889646687617)	1.0	z	1.09177
18	N	A	M	M	N	A	B	B	N	8	5	shapes	A	6	False	85	(3.986114954385096, -5.0699794574507049)	(0.21009686284412155, 3.7090455290371729)	(8.334660746712597, -2.2933945412792589)	(-2.9075303552129954, 8.5195989357736757)	1.0	slash	1.01953
19	M	B	B	N	N	A	M	A	M	8	6	shapes	M	6	True	85	(6.4407450727939253, 3.8467047959018821)	(-8.0403239436467384, 4.6194277132455497)	(-7.8862219563904645, -4.4413553297604036)	(-3.0446777724973204, -5.6217965635768792)	1.0	z	1.92475
20	M	A	A	N					N	4	3	shapes	N	6	True	85	(5.1448513847003632, -7.612164420226657)	(-1.6191112326905968, -3.2551643630661591)	(-4.2983627032534049, 2.7019706400809866)	(3.5708693272648375, 4.2963606198972109)	1.0	z	1.24597
21	N	B	B	N					N	4	2	shapes	B	6	False	85	(-2.4448348975551024, -4.1378613310465324)	(6.0294568751138335, -4.2060883498978612)	(-7.4120700519266336, 0.67216856618837362)	(3.7073549323074104, 7.9350704169888573)	1.0	slash	1.08041
22	M	A	M	N	A	N	B	B	B	8	7	shapes	B	6	True	85	(4.3379530464181837, 0.5352410168250632)	(6.8520564894555935, -7.1894349643227127)	(-3.921649171802132, 1.44291508901809)	(7.7048009664558137, -2.6758641171522193)	1.0	slash	2.58919
23	M	B	A	B	M	N	N	A	M	8	4	shapes	M	6	True	85	(2.5388294698916916, 2.1324203212533757)	(-1.088953234694805, -3.0758275488931854)	(0.095645619938810711, 7.6763765561979262)	(1.8780231745905027, -7.7562552159870677)	1.0	z	1.04335
24	N	B	A	N					B	4	1	shapes	B	6	True	85	(-5.9609281635304558, -7.4140788359881036)	(-0.46630060978734811, 7.8934333631635987)	(5.3120860076121517, -0.60735832390479416)	(6.8443934039827994, 8.5810843325616695)	1.0	slash	1.06106
25	N	A	M	A	M	N	B	B	A	8	1	shapes	A	6	True	85	(-1.0291427304305714, -0.96179901556696201)	(-6.3334039204545256, -3.1938935060637297)	(2.2762814483635481, 5.9373056189925055)	(-4.7207930004004641, 1.9902628350258684)	1.0	z	1.05265
26	M	A	N	B	N	B	M	A	A	8	7	shapes	A	6	True	85	(3.968039913673417, -2.2000814999426428)	(1.2698365099473357, 4.6775696163513434)	(0.13795046937638133, -8.3978556576698491)	(-0.36528909132065657, 8.3846684231990452)	1.0	z	0.966314
27	N	A	B	N	B	A	M	M	A	8	6	shapes	M	6	False	85	(-7.3942704328930313, 2.4367713538584095)	(8.2411431696044488, -5.89899276951712)	(-1.2532218669065243, 7.428464150199666)	(-0.082378596018447325, -3.4924282261492161)	1.0	slash	1.59951
28	M	B	M	N					N	4	3	shapes	N	6	True	85	(2.1934717857576764, 5.9594773118796631)	(6.4451991344446338, -2.5505518063229404)	(-7.1178046118000493, 4.2653158036740599)	(-0.2201761470937118, -7.5230558988353637)	1.0	z	0.929536
29	N	A	M	N					B	4	3	shapes	N	6	False	85	(6.0185711993283348, -7.8958072518330562)	(-3.982454107604819, 4.4502902007227991)	(2.8729484816180317, 5.2988839347044916)	(-6.3606006972908675, -1.3474651686158658)	1.0	slash	0.97725
30	N	A	A	N					N	4	0	shapes	N	6	True	85	(-4.879839786533223, -0.98712269285934706)	(-7.8101491057271852, 2.0664818030992453)	(0.77392865307287195, 0.65438721242180264)	(0.014275600949268608, -6.4323738053369102)	1.0	z	0.974883
31	M	B	M	A	N	B	N	A	B	8	6	shapes	N	6	False	85	(1.6032678191285576, -3.430653435118507)	(-7.2329098287817954, -6.7393176792230491)	(-6.0821333523242753, 7.2648680600429749)	(6.3949477224194684, 3.9502931555354515)	1.0	slash	0.990471
32	N	B	M	A					M	4	1	shapes	B	6	False	85	(-3.2671532776172256, -6.8587440500171315)	(1.9659135820493674, 3.1299412667420476)	(4.6416610735066577, -2.7398617810620198)	(-7.8574906560905653, 0.92915143997388938)	1.0	slash	1.02607
1	N	A	N	B					M	4	3	shapes	B	7	False	85	(3.2036895537229846, -8.7369124912856435)	(-0.75651446915051768, -3.8428975265637106)	(5.5804183665717932, 6.4490870725990863)	(-5.0230869379057026, 5.2711477229444768)	1.0	slash	1.10574
2	M	A	A	M					B	4	2	shapes	A	7	False	85	(3.0512821774099059, 1.405661886495869)	(-1.8090944303006067, -1.1220167341169596)	(6.7496959123887859, -8.6893830890294499)	(-4.8507721577561238, 8.1224484631543454)	1.0	z	1.70295
3	M	A	N	N					A	4	3	shapes	N	7	False	85	(-0.11059749218407333, 3.5062734977380821)	(4.9165049683670148, -8.178397835392321)	(-4.6730104530501722, -1.5107205454713561)	(7.4988714934343079, 5.8133667112295022)	1.0	slash	1.58888
4	N	B	B	M	N	M	A	A	M	8	5	shapes	M	7	True	85	(2.1483770511795193, -2.5890198628285157)	(-1.1312170669063173, -0.16217062330683518)	(-0.62224563804624822, -8.1374318949356592)	(-3.7358138412531536, 8.1517857440482935)	1.0	slash	3.17959
5	M	A	B	B	M	A	N	N	B	8	0	shapes	M	7	False	85	(-6.6759545782648502, 0.56541062250105867)	(5.1280934569773837, -1.0643015910938844)	(2.4097554439566569, 2.1895615443174936)	(-6.2029262224686992, 6.9120957407781631)	1.0	slash	1.07006
6	M	A	N	A					B	4	0	shapes	M	7	False	85	(8.0807405226336435, -6.1019931154390505)	(-8.5632550934472196, -7.179081302316229)	(4.6344328526492085, 5.9402885524029667)	(-1.3245836536379318, 8.1039255582720742)	1.0	slash	1.04956
7	M	A	B	M	B	A	N	N	B	8	2	shapes	B	7	True	85	(-2.2814218284013341, -5.4450610926399428)	(-8.6925309304844056, -1.9076718766441942)	(-6.9924218696211424, 3.6807014151411526)	(6.4840073366022395, -3.3076910079920809)	1.0	z	1.26119
8	M	A	A	M	N	B	B	N	A	8	1	shapes	A	7	True	85	(-4.4599971837486629, 3.0644220707468826)	(2.4487745877102718, 3.141829763665136)	(1.1490418262990563, -4.7089949104041491)	(7.6250261562420683, -1.0590640485808311)	1.0	slash	1.93033
9	N	A	N	A	B	B	M	M	A	8	7	shapes	M	7	False	85	(-3.9835856852135514, -2.7960106424432158)	(2.9268624568213113, 7.8503745930142657)	(4.6001034056344547, 2.6213284073494076)	(-1.8046651783051244, 3.4465041405973409)	1.0	slash	1.3482
10	N	A	M	N	A	M	B	B	A	8	7	shapes	B	7	False	85	(-7.8062774761100275, -0.88388091056437545)	(7.6547483682769055, 5.9732768429951371)	(3.3161458137041979, -3.9754366779312713)	(-0.96169422286038486, 2.4746667690453723)	1.0	z	1.20383
11	N	B	N	B	A	M	A	M	N	8	4	shapes	A	7	False	85	(-2.3517136941038936, -7.6027850764090186)	(7.5534403140048205, 1.7734211238254556)	(-1.1163614911709647, 1.3444366742384624)	(-5.3812743211385907, 3.3286693060295356)	1.0	slash	1.20716
12	M	B	B	M	N	N	A	A	N	8	6	shapes	A	7	False	85	(-4.7855769414433906, 4.5036620185898748)	(5.2587431708178549, -1.3607816754149429)	(-0.18196105194799195, 2.904546097624749)	(-1.3242349759778334, -8.3409763451917627)	1.0	slash	1.32288
13	N	B	A	N					N	4	3	shapes	N	7	True	85	(-6.0505807283589865, -1.9457646867454166)	(5.1678964939851664, 3.2085253561833422)	(6.6147348252138798, -7.0381057015793074)	(-2.0943936083110506, 3.4772305032314037)	1.0	z	1.19701
14	N	B	B	A					N	4	0	shapes	N	7	True	85	(5.9920355133991805, 5.3367620850888251)	(-5.7545678560523559, -5.6215532667220298)	(-1.7515056103621216, 2.799533845207046)	(8.5973794617389885, -2.9432036290917116)	1.0	slash	1.27254
15	N	B	N	B					B	4	2	shapes	N	7	False	85	(3.5644555012777737, -7.4663594463657539)	(-7.1663723313468068, 4.3589511793654232)	(8.5406249245902934, 5.6080504568495293)	(-1.4433897202754427, -3.7204121945968449)	1.0	slash	1.3001
16	M	A	N	A	N	B	M	B	N	8	0	shapes	M	7	False	85	(3.7207698517967991, -2.4533207497663803)	(-5.4363749109021562, -6.8045637070490503)	(-0.15138917245238837, 5.183851014262963)	(7.8251621938143465, -7.6932120093637391)	1.0	slash	1.47777
17	N	B	M	N					B	4	1	shapes	B	7	True	85	(8.2651772319444561, 0.39615768399295348)	(-1.7766177477603291, 4.9326524764907411)	(-8.2283877094725515, -7.4052573828223247)	(3.0119834766466624, -0.77149499459888027)	1.0	z	1.14354
18	N	A	N	A	B	M	M	B	N	8	0	shapes	N	7	True	85	(-7.3709115704962382, -5.0953037463207895)	(1.8469751930610592, 0.22978169786095215)	(-0.5844217080259746, 4.745654896839465)	(-7.757414258479832, 2.4246643379840762)	1.0	z	0.703621
19	N	B	N	B	M	M	A	A	B	8	3	shapes	B	7	True	85	(0.98003513682859023, -1.0741151933206705)	(1.5013510844237725, -7.9873128314407511)	(7.469816773408045, 4.4492886017735742)	(-4.6920383855776322, -7.2422688089138028)	1.0	z	1.16651
20	N	B	N	M	A	B	A	M	N	8	4	shapes	A	7	False	85	(5.0650240980958756, 4.1616970401240803)	(-3.3062790481527218, 2.692225029263442)	(5.1177138010931174, -7.2620976014113063)	(-7.343690794677455, -6.2428114660613421)	1.0	slash	1.02034
21	N	A	M	A	M	B	N	B	B	8	7	shapes	B	7	True	85	(4.9125910290230284, 5.9639807638251163)	(5.9124222240636186, -8.2385512540662518)	(8.2069499599044455, 1.8009798654442033)	(-5.2622961871738836, -6.4344280424064024)	1.0	slash	1.09948
22	M	B	A	N	A	N	M	B	N	8	0	shapes	M	7	False	85	(0.5961774601628349, 0.36068316170125136)	(-7.5138155779679305, -1.6374727384090875)	(7.1898254809051974, 6.1111776974450116)	(-2.2992289188615018, -8.2485951591651308)	1.0	slash	1.06939
23	M	B	B	N					M	4	3	shapes	N	7	False	85	(7.5572590685832388, -8.2318995316742622)	(-4.9913794967158847, 2.0353856471079776)	(0.35497720833642177, 5.8594194461299374)	(-8.2178627810837792, -8.7342917037704293)	1.0	slash	1.8167
24	N	A	N	M	A	M	B	B	N	8	2	shapes	N	7	True	85	(-6.9552163599031118, -3.2531369678420266)	(1.2534553621332023, -6.3750239463550908)	(-6.6944178717839904, 5.4082872426027269)	(-1.0845559660182715, 7.6992625388363507)	1.0	z	1.09071
25	M	B	A	B					N	4	1	shapes	B	7	False	85	(2.2092096971214215, -5.7560504460511401)	(7.6993072066968793, 3.9059630970900425)	(-2.8015295785890046, 3.9648769960792585)	(-2.5762794584848026, -0.41559587863492098)	1.0	slash	1.26637
26	N	A	A	B					A	4	1	shapes	A	7	True	85	(-4.5289972909709517, 5.0316389261470604)	(2.4641419556799828, 4.3772200819150537)	(2.7132689002743113, -6.7510268515721137)	(-8.3217275011432488, -6.6482206223113884)	1.0	z	1.32002
27	N	A	B	A					B	4	0	shapes	N	7	False	85	(8.3493508966627239, 8.6829830635209149)	(1.0655485489657632, -1.3143542525674041)	(-3.9978390914528878, -8.1832375370090897)	(-4.3191707621616597, 4.655639441944583)	1.0	slash	1.24167
28	N	B	M	M					M	4	2	shapes	M	7	True	85	(-5.3337586624475133, 6.2326738924751943)	(-1.6688837798493141, -6.4368569974164789)	(8.0418754972647086, 3.3066893883445694)	(8.1261711518493804, -5.6496986824811142)	1.0	z	1.50736
29	N	B	A	B					B	4	3	shapes	B	7	True	85	(-1.2729825287627854, 7.4980341585382284)	(-4.4758829593644212, -6.8436430874458036)	(3.3051200205808087, 4.2405924166176625)	(8.2401121845917444, -5.5610883910073188)	1.0	slash	1.87839
30	M	A	A	N					A	4	2	shapes	A	7	True	85	(6.8657908806948456, -7.8112293517069959)	(0.62120820538812183, 6.2941208509686604)	(-6.5745131376443879, -5.0073594907070955)	(-7.8112371223123116, 6.3047327249203011)	1.0	z	3.59089
31	M	A	B	N					B	4	2	shapes	B	7	True	85	(-5.9065141137589592, -1.6087151706403802)	(8.0241190144672316, -0.98627201388919694)	(1.7100971473026263, 6.3649545470638191)	(-8.2558062102203298, 6.2501298523043261)	1.0	z	2.00308
32	M	A	M	N	A	N	B	B	B	8	7	shapes	B	7	True	85	(-8.1546279874017742, -1.5279321807744637)	(1.0570685016213233, -7.2266682893579191)	(0.35988419778223069, -1.8381970449230494)	(2.8460627966394689, 7.9687793342356272)	1.0	z	3.98192
1	M	B	M	B					A	4	1	shapes	B	8	False	85	(2.9165053919481583, -6.6095506139224165)	(2.8520871659091789, 6.5765209739513857)	(-2.4948951361826097, 5.0308303391690004)	(-6.8334360423230702, -1.2906988519550895)	1.0	z	1.58276
2	N	A	M	M					M	4	2	shapes	M	8	True	85	(-5.2788004250774314, -2.4491076712280577)	(0.75419550326006934, -8.5828787079753912)	(4.7011863606848454, 6.195591730641274)	(-1.2039513322674926, 0.32340097826087799)	1.0	z	1.08449
3	N	A	M	M					A	4	1	shapes	A	8	True	85	(2.400469252842214, 0.42326720414059871)	(-6.993965183244903, -5.8694125124048178)	(6.637820646481611, -5.2715068675979051)	(-7.9446003072428795, 7.4548450525523613)	1.0	z	1.10174
4	N	B	B	A	M	M	N	A	B	8	2	shapes	B	8	True	85	(-1.6595836227856049, 4.8592976356577058)	(1.8989148431455583, 0.76128235255474408)	(4.1532111174890414, 5.8034597118026952)	(-2.4612710790466483, -8.464481873090639)	1.0	z	1.0297
5	N	B	M	M	B	N	A	A	B	8	1	shapes	B	8	True	85	(-4.6235636819460524, -7.8382290479364567)	(3.34525193607241, -3.9371977374357865)	(1.7026135214077982, -8.5512273873882574)	(-5.8066787837773797, 1.9102471206898226)	1.0	z	1.18894
6	M	B	M	A	B	A	N	N	N	8	3	shapes	A	8	False	85	(4.8069837415147489, -7.6275868964594382)	(3.1327559111511825, -3.1756616847367987)	(-4.1807249186514355, -8.6703807044065062)	(-7.0205550772536416, 5.7622069746903612)	1.0	slash	1.1067
7	N	B	A	B					A	4	3	shapes	B	8	False	85	(-2.7691695490607735, -7.17780907835132)	(2.3629858250839622, -2.9127150621107605)	(-0.2740407703065717, 3.8991130462001387)	(8.590211133961656, 4.10167963591676)	1.0	slash	1.12027
8	M	A	N	B					A	4	0	shapes	M	8	False	85	(7.6835235445090575, -3.8157014967584058)	(3.1269310571279689, 8.4192951326234962)	(-5.1104881506975577, -1.2061397031785761)	(-5.5331728923105317, 4.4659991880141181)	1.0	slash	1.01016
9	M	B	N	B	A	A	M	N	N	8	6	shapes	M	8	False	85	(5.8738961652420958, -7.6174416452875171)	(-3.9721370427766098, -0.30693698767844424)	(-8.1548550575218446, -6.4532321981739518)	(-1.1883431420910266, 5.5309571157925319)	1.0	slash	1.00593
10	M	B	A	N	A	B	M	N	N	8	5	shapes	B	8	False	85	(-6.2299557563807504, 4.4778572422912237)	(-8.3432960149739284, -7.9642090671552657)	(8.4408271379209197, -5.6393062639816431)	(4.9422926831561664, 7.1297058982523787)	1.0	slash	1.2891
11	M	B	B	A	M	N	A	N	N	8	7	shapes	N	8	True	85	(8.495814404898244, -7.6667393560662829)	(-6.6958718955858672, -5.6156407850745271)	(-1.8840927779266039, 2.1517400234604764)	(-6.3610748354141098, -0.24615764648436311)	1.0	z	0.957217
12	N	B	M	N					N	4	3	shapes	N	8	True	85	(2.955124701329817, 1.8899589447527028)	(-8.4356219667402588, -1.5423955754407102)	(1.5631928656188485, -2.3864048204014185)	(-3.3821363588440629, 1.6028859069945813)	1.0	z	0.920819
13	N	B	A	M	M	N	A	B	A	8	7	shapes	B	8	False	85	(6.4680598429440366, -2.8155699472187043)	(7.4994773772379801, -7.1364770902535737)	(-7.1852866515892213, 8.4879670451722937)	(-3.9424132435085602, 1.4838996545623164)	1.0	z	1.0462
14	M	A	N	A					N	4	0	shapes	M	8	False	85	(-8.4576155429363542, -6.1516637902511562)	(-5.6988059522326111, 8.074341660574504)	(2.0088796593059079, 4.7457130977822661)	(5.072143788714591, -2.1001300688124562)	1.0	slash	1.05595
15	N	B	M	B	M	A	N	A	B	8	1	shapes	B	8	True	85	(4.9532185441247467, -6.7831382610391415)	(-2.3429817190030482, -8.3469417018114207)	(-5.926236653770248, -4.3026418728756983)	(-3.0423519660098526, 4.5974442502147923)	1.0	z	1.12148
16	N	B	M	A	A	B	N	M	B	8	1	shapes	B	8	True	85	(-5.1447051437567923, 6.0015651288716434)	(-6.6093923921385489, -0.096472639757230638)	(-0.10316738860734098, 6.9439009534025811)	(-1.0380554715834096, -3.0928487737849046)	1.0	z	1.04317
17	N	B	B	M	N	M	A	A	N	8	2	shapes	B	8	False	85	(5.8474808738566946, -5.6754387999423779)	(-1.514117094861084, -1.6652880553142664)	(3.8757402689894977, 3.1251229771412543)	(8.1865531846502471, 1.8768747352815485)	1.0	slash	0.958907
18	M	B	N	M	N	A	B	A	N	8	6	shapes	B	8	False	85	(6.248514356196317, -2.6143661435848111)	(-2.0294621254293865, 5.1277220566358306)	(-5.7536030015283464, 7.0106613211437345)	(1.6043967030438289, 7.4729963037241305)	1.0	slash	1.01272
19	N	B	B	A	N	M	A	M	A	8	6	shapes	A	8	True	85	(-1.9400961441359064, -0.96695655686796211)	(1.9878506948379329, 5.2662538910274002)	(-4.3292883663392354, -7.0326026472294725)	(7.3945761156555889, 6.8801033988470923)	1.0	z	1.61623
20	N	A	A	N					A	4	2	shapes	A	8	True	85	(-4.1556913022865363, 2.4220102651633724)	(6.8816967287804989, -5.9072658454181788)	(-2.5731714827618752, -5.7357096327431742)	(7.7546233981241919, 3.6734055148558511)	1.0	z	1.04757
21	N	A	A	M	B	N	M	B	B	8	7	shapes	B	8	True	85	(7.3165845302800037, 6.0718991299718947)	(1.455730170673073, 3.3513881272785806)	(-3.7578742672651781, 6.0108303594252064)	(-5.4874918491370561, -2.3162810708018799)	1.0	z	1.69135
22	N	A	B	N					N	4	0	shapes	N	8	True	85	(-0.91283460971250374, 8.0050683149465556)	(0.46635575470984847, -0.94507802904361071)	(4.0705208234653263, 2.4934217738459186)	(-3.9121028884371274, -2.7013659791032367)	1.0	z	0.842982
23	N	A	M	N					M	4	2	shapes	M	8	True	85	(1.5040288770931625, 8.1821317568906835)	(-7.3061574230046542, 7.9378058131281364)	(-2.7458851039056871, -4.7469721786330519)	(4.062429771954287, -3.0693327970745496)	1.0	z	0.996669
24	N	B	M	A	B	M	A	N	B	8	2	shapes	M	8	False	85	(8.5848777378711674, 7.8926213321914602)	(-2.5116775664780873, -0.30769702913908326)	(3.0887764156236628, 0.70622688608919049)	(4.296448239605505, -4.4995805368856701)	1.0	slash	1.37629
25	N	A	B	A					M	4	0	shapes	N	8	False	85	(6.380711090913687, 4.2473158706310752)	(2.259001159507795, -2.7048732710856411)	(-4.3020892421507808, -6.1169836292790141)	(-6.3689890593467142, 8.4792185813540435)	1.0	slash	1.05604
26	N	B	M	N					M	4	2	shapes	M	8	True	85	(0.96739316248173957, -7.9909696547821234)	(3.1100421180255147, 4.9593904149260446)	(-4.8278917717062351, -6.3957575854446738)	(-2.4474635442281265, 4.15883026235716)	1.0	z	0.895919
27	M	A	A	N					A	4	2	shapes	A	8	True	85	(4.8106908215460571, 8.3596408141299854)	(-5.0731651150067449, -2.2564824227785794)	(-8.4407133932663818, 4.5619820956172319)	(5.4958412198222906, -7.6192839077857393)	1.0	z	0.935224
28	N	A	N	A					M	4	2	shapes	N	8	False	85	(-1.7961982434813697, -3.7509755000027649)	(1.0980721463506526, 8.1597254108353638)	(-4.4525001222369642, 6.0761211438877947)	(5.0307775342973748, -6.9420560440132908)	1.0	slash	0.855109
29	N	B	A	B	A	N	M	M	A	8	2	shapes	A	8	True	85	(-3.5096205324805076, -5.9171273965547293)	(-0.95056512800284221, -0.82182570341222672)	(1.5616652720154214, 6.4511230287546724)	(5.5196217216554899, -5.7581107824253817)	1.0	z	1.49617
30	N	A	N	M					M	4	1	shapes	A	8	False	85	(2.2628864576493299, 2.5775587911719775)	(-6.6768604167630397, -8.5348905834993403)	(-4.6354783941814954, 7.1275447544670598)	(2.2981464746090303, -5.3789269096664096)	1.0	slash	1.046
31	M	B	B	A					M	4	1	shapes	B	8	False	85	(-7.9938816422798169, 5.3441155755009113)	(-0.20849744193214015, -0.92060971637021893)	(7.7432471958334865, 7.4129265475688157)	(4.3153638573861031, -4.6221547326126187)	1.0	slash	0.991645
32	N	A	N	A	B	B	M	M	B	8	7	shapes	M	8	False	85	(-5.5910301909923152, 4.0390841423499477)	(-4.4930278280116704, -8.1850933770796601)	(3.6524390808008285, 8.0732912531843013)	(5.2883447115362969, -5.9409633506064967)	1.0	slash	1.18881
