TrialNumber	stim0	stim1	stim2	stim3	stim4	stim5	stim6	stim7	stim.probe	ttl.stims	corr.num	trial.type	stim.corr	block	match	Subject	stim.pos0	stim.pos1	stim.pos2	stim.pos3	ran	resp	RT
1	N	B	A	N	B	M	A	M	M	8	6	shapes	A	Practice	False	86	(7.8576759651898023, 7.5994766145975028)	(5.5187501146327929, -4.3124069291114528)	(1.5135171987870581, 8.1247551769446886)	(7.883393014463465, -8.1635147994187616)	1.0	slash	2.17417
2	M	B	M	A	B	A	N	N	A	8	3	shapes	A	Practice	True	86	(-0.33252437582080319, 2.2686628576125756)	(8.5865334720937589, 0.82237143109255229)	(-3.8264604723101447, 5.4894682734354419)	(-0.49549416905221655, -2.3063366734559674)	1.0	slash	2.28757
3	M	B	B	N					A	4	3	shapes	N	Practice	False	86	(4.0918814969995072, 4.9589673952067699)	(5.247689913015531, -5.7038431350103487)	(-0.98511470369963394, -3.480184905939514)	(-6.2262450848164566, 3.0527693397711442)	1.0	slash	1.63105
4	N	B	A	N					B	4	1	shapes	B	Practice	True	86	(-8.6572827153277068, -7.2270831900665442)	(5.5970878854811588, -7.5951647319209048)	(-8.6150033012667322, 6.41898090007248)	(8.6796422195286524, 6.7422103254540673)	1.0	z	1.3228
5	N	A	A	N					A	4	1	shapes	A	Practice	True	86	(1.4347059951454408, -6.5087729251899304)	(2.3706099533519325, 4.3736509197253017)	(-2.5343403363019963, -5.1994986874539277)	(-4.8823498230881235, 0.4941682552292157)	1.0	z	1.46048
6	N	B	N	A	A	B	M	M	B	8	5	shapes	B	Practice	True	86	(8.384873827845869, 4.49673015798815)	(-3.8633924244834441, 1.8369055514029906)	(3.0109863911639856, -6.7727251715728398)	(6.304545966969112, -0.24283551511389234)	1.0	z	1.30201
7	M	B	B	M					A	4	1	shapes	B	Practice	False	86	(-5.5382291136559543, -4.4477946009529763)	(3.3561472666788532, 1.0219599983303382)	(8.7009210986952539, -6.3977766665669531)	(-3.7154952598456408, 0.98868480405941384)	1.0	slash	1.37151
8	N	A	A	B	N	M	M	B	A	8	0	shapes	N	Practice	False	86	(4.9086218577742322, -4.2432485025627757)	(-5.732684321366003, 4.1016521058724535)	(-4.4907295549239876, -2.7845870293868176)	(7.7529719645837645, 3.2422524871829559)	1.0	slash	1.53321
1	M	B	M	N	N	B	A	A	M	8	2	shapes	M	0	True	86	(7.3420840005257411, -4.7059628057832743)	(-6.5440419653445971, 1.6741301353888183)	(-2.0498598326952431, -5.8275127261855975)	(-0.86166281587069893, 8.0650780073490829)	1.0	z	1.6376
2	N	B	B	A	A	N	M	M	N	8	0	shapes	N	0	True	86	(4.7525415057014264, 1.1319086766797373)	(3.4393985893946315, 5.8077079936673215)	(-2.4336506861152385, 1.4825901503690737)	(7.2024723086445324, -3.2151320198396611)	1.0	slash	0.971303
3	M	A	A	N	B	N	M	B	B	8	7	shapes	B	0	True	86	(3.4679342925243137, 0.79575381858473015)	(-1.8655980356487332, -2.4795525025945411)	(7.6947765229239522, -5.630442117047382)	(8.6346446687187708, -0.089645713864561216)	1.0	z	1.61496
4	M	A	M	A					A	4	1	shapes	A	0	True	86	(-6.9306221459600383, -7.1222261472639552)	(7.920880223034235, 7.2902738454550935)	(0.22428756788395887, -1.1208398735748251)	(-2.8064866907063477, 7.7925974025157494)	1.0	z	1.24624
5	M	A	M	B	B	N	N	A	M	8	1	shapes	A	0	False	86	(-0.65096084976607571, 2.5720092876143887)	(-2.5540571431642389, -7.7796729356746619)	(3.8771813871320155, -2.4958975987931789)	(1.5543512301488533, 8.045917778842167)	1.0	slash	0.90217
6	M	A	M	A	N	N	B	B	M	8	7	shapes	B	0	False	86	(0.66037002880708329, 1.907626249427258)	(-8.7089689664438534, -5.9546003408045962)	(-8.1006969353862992, 3.1695931292015285)	(-2.9677450414346431, -0.59839301034290848)	1.0	z	0.6458
7	N	A	B	B	A	M	M	N	B	8	5	shapes	M	0	False	86	(-2.6466812697908582, -4.1920281477343133)	(4.9636686836985593, 6.7785699355697933)	(-2.6608609235880305, 7.4409505745696869)	(-1.844904977644882, -0.25465409530305472)	1.0	slash	0.521516
8	N	A	M	B					A	4	2	shapes	M	0	False	86	(4.0010054311370613, 7.4249687321240359)	(-5.2827541373464273, 6.7316810760363488)	(-7.0114962906175764, -2.8448593165217044)	(6.7043668363149678, -0.34551764450103661)	1.0	slash	2.34715
9	N	B	B	N	A	A	M	M	B	8	2	shapes	B	0	True	86	(-7.278613589831763, -2.4606147119292849)	(7.9307914250481879, 3.9087866710813621)	(-7.7271649567852592, 1.88053318352706)	(-1.443745168592649, -1.4498380428921998)	1.0	z	3.29047
10	M	A	N	M	A	B	B	N	A	8	4	shapes	A	0	True	86	(-4.0958445864788553, 7.4894143206539567)	(2.6320031883909518, 2.1098138804428466)	(2.259821250177664, -7.6313591188235925)	(-2.1748926626324732, -8.1328507016109448)	1.0	slash	0.662044
11	M	B	B	A	M	N	A	N	B	8	1	shapes	B	0	True	86	(-4.6518479080677571, -6.7024623506399825)	(2.0767259784551904, 1.4611524786678203)	(-6.6594490562114323, 8.4475283205584759)	(3.4173573549122125, -2.5821891689729206)	1.0	slash	0.333272
12	N	A	B	A					A	4	3	shapes	A	0	True	86	(-7.731995640815156, -4.50746098056152)	(-4.2718868914729633, 2.4529077194647275)	(3.8863221388037115, 4.6765793554970383)	(0.10489539185964958, -6.0608969307930884)	1.0	z	0.699523
13	N	A	N	M					N	4	2	shapes	N	0	True	86	(0.2540696071448032, 2.6268170409163076)	(-7.7758554736672911, -8.2292101160547535)	(2.5930016665991751, -1.8732786946817743)	(-5.6482519070178858, 1.3687310229059619)	1.0	slash	1.62506
14	M	B	N	M					M	4	3	shapes	M	0	True	86	(8.150171900277396, 3.246475604900688)	(-7.0040388723455091, -1.8473719393258259)	(7.7635614146205221, -3.5911070015431825)	(-0.39382586217610083, 7.9947095690864209)	1.0	slash	0.774661
15	M	B	B	M					B	4	1	shapes	B	0	True	86	(4.969580141750173, -2.7364726113281668)	(-2.8179913536164571, 3.3674927442523988)	(8.7389268015965982, 7.4963260050568046)	(-1.2064197924262938, -8.466493256696829)	1.0	z	1.31781
16	N	A	N	B					A	4	1	shapes	A	0	True	86	(-5.8321171657165696, -0.36549002688602528)	(-0.13094228020441712, 3.6685075158629186)	(2.6618541602992689, -7.9108239382002372)	(4.5211297839439073, 7.4454080853641393)	1.0	z	0.983992
17	N	A	M	B	M	N	A	B	B	8	0	shapes	N	0	False	86	(4.5957652086127059, -7.2630067710700974)	(-4.1032227055470125, 6.1777156397808124)	(-3.8695790505306533, -0.88839384341322081)	(4.551375597556774, 4.2792543635471851)	1.0	z	0.695692
18	M	A	A	N					B	4	3	shapes	N	0	False	86	(-5.5342867510302218, 8.54947088374497)	(0.80601420434438786, 1.4497847727054047)	(2.3715978292523303, -8.5924029140523253)	(-3.6775624956622845, -7.6607872782741184)	1.0	slash	0.965271
19	N	B	N	B					M	4	2	shapes	N	0	False	86	(-0.94713360825008408, -7.393608953032234)	(0.79743269424774255, 3.5048278948788347)	(6.462159246598004, -1.1186287292995125)	(-7.2211810856265446, 7.4868261164030727)	1.0	z	1.38287
20	M	B	M	B					B	4	0	shapes	M	0	False	86	(3.0236005433926945, -1.7632154028497897)	(-1.7707530367414259, -2.26163109112158)	(-6.0424867717275657, 0.99162287425362372)	(0.33735068204884833, 5.6853323891716077)	1.0	slash	1.16898
21	M	A	M	B	A	B	N	N	M	8	1	shapes	A	0	False	86	(-4.1204576042517687, 4.9279108740321771)	(4.9251794825376969, -3.1329691123572161)	(-2.2371896825010502, -0.78795543373467769)	(-2.7181233893504197, -8.0787749865839)	1.0	slash	0.320184
22	M	B	A	B	N	N	A	M	B	8	2	shapes	A	0	False	86	(7.226525219753535, -6.3229374101651104)	(1.4293841319204148, -4.0609455671227384)	(-5.9381244688276871, -8.3299251004911437)	(-5.9847814879609498, 4.9008046932453109)	1.0	slash	0.73417
23	N	B	N	B	M	M	A	A	M	8	7	shapes	A	0	False	86	(2.1760816355837775, 2.0656769759227842)	(-2.9703788421652044, 0.06154865958018263)	(8.0092883846919918, -7.2084027718981218)	(1.4648785084592486, -4.8532790517846083)	1.0	slash	2.50331
24	M	B	N	N	M	B	A	A	N	8	3	shapes	N	0	True	86	(-6.8353179192464477, 6.6298909422368482)	(3.3755239719600816, -2.2077123321386312)	(-3.9309497210571873, -6.0426190573768048)	(1.1275188319435134, 3.7581208956869006)	1.0	slash	1.28704
25	M	B	B	M					B	4	0	shapes	M	0	False	86	(-6.0112545467514584, 0.49582744726376404)	(3.697993355648709, 0.15598195301397411)	(3.5039882233296051, -5.5246145411660166)	(-5.895227732325397, -6.077191457710696)	1.0	slash	1.34597
26	M	A	M	N	B	N	A	B	M	8	5	shapes	N	0	False	86	(-2.582434737660841, -2.9487138516096509)	(2.4115494821575059, 8.0654525932285708)	(-0.45127377407306923, 4.7992336579987036)	(2.254592780525174, -1.8257647961817058)	1.0	slash	1.3044
27	M	B	N	N	M	A	A	B	M	8	4	shapes	M	0	True	86	(3.2295698767785765, 0.73459599383303953)	(-4.947309524743325, 0.42190400189159405)	(5.4619640212696385, 4.1917365594189917)	(-2.8062849330399366, 7.6759541060180609)	1.0	slash	11.6475
28	M	B	A	N					B	4	0	shapes	M	0	False	86	(-2.2845055550938325, 0.11899496153361255)	(3.8367655256608693, 4.1052185677996675)	(3.3455273435988353, -3.4371389687278704)	(-7.7095435920728441, -6.0042448363257632)	1.0	slash	0.336708
29	M	B	M	A					A	4	1	shapes	B	0	False	86	(7.6290665798206057, 4.1376318493008579)	(-3.7034261188820548, 4.1742036261224076)	(7.9691877712208523, -3.4141594724326385)	(-8.2389687557636719, -4.0719970472538227)	1.0	slash	2.7364
30	N	B	N	M					N	4	3	shapes	M	0	False	86	(-8.3530647478912474, 7.834211494570912)	(-2.7309183716888876, -7.1434617867289667)	(5.3222634811375755, -0.99486090479565981)	(3.8485782722819355, 5.8732515976489097)	1.0	slash	1.20576
31	M	A	B	N					N	4	3	shapes	N	0	True	86	(-4.1979388158058022, -1.8901477998490162)	(0.99923892866023323, -5.1941248769146355)	(-0.67630354853150898, 2.0258493841801819)	(0.52053552227932265, 5.9116966511006304)	1.0	z	1.51947
32	M	A	M	B					B	4	3	shapes	B	0	True	86	(1.3652655947378118, -3.7660242175788925)	(-5.7647454012617665, 8.0855459216670056)	(2.4110508753292716, 0.23802695744391045)	(-8.3201218681318529, -0.10504524700723117)	1.0	slash	1.79308
1	M	A	N	A					A	4	3	shapes	A	1	True	86	(-1.872122383125804, -1.3359564756129556)	(-6.6124020030015416, 8.0418538087017701)	(8.5883587150150191, 6.3586369330115033)	(8.5107222564571074, -0.018748670165262382)	1.0	slash	2.09862
2	N	A	N	B	M	A	B	M	N	8	0	shapes	N	1	True	86	(-2.3727208059009097, -7.6908661126925137)	(5.5306327245728379, -1.6086455649155367)	(4.451387112491485, 5.1718347575907107)	(-8.5108938503777853, -4.349032971479299)	1.0	slash	1.42812
3	M	B	M	A	N	B	N	A	M	8	5	shapes	B	1	False	86	(5.3535215251488673, -5.2186306964620197)	(-5.7791782828572433, -5.6689465405720023)	(-1.2905224522212437, 0.96934015734899681)	(-6.0531087818386347, -0.6559180962884632)	1.0	slash	1.06786
4	M	B	N	B	M	N	A	A	M	8	2	shapes	N	1	False	86	(2.7736491685189595, -1.4099411056783291)	(0.94396920089406677, 8.4406868351815696)	(0.55786728078265213, -8.2038028077616865)	(8.0931879786825505, 4.0558028355691285)	1.0	z	1.01546
5	N	B	N	M					A	4	2	shapes	N	1	False	86	(-5.1436458191349832, -4.2683505467706437)	(-5.1590261202474643, 2.832159972517335)	(1.9632955392142684, -3.4425494708811391)	(3.3272429814871014, 7.5779607443810484)	1.0	slash	2.01512
6	M	A	N	B					N	4	2	shapes	N	1	True	86	(3.6134348865004231, -3.1771371188030892)	(3.2268785408328764, 4.6641595834418297)	(-0.25440140954983193, -0.74463187196629654)	(-8.6889514576615881, 2.8406644034489457)	1.0	slash	3.1506
7	M	B	A	M					A	4	1	shapes	B	1	False	86	(3.2248271268493198, -6.302827859158338)	(3.3480144170976391, 1.7768679623660457)	(-2.8792119881140685, -1.5519093194454667)	(-8.656312180943905, 2.6518792959536217)	1.0	slash	1.32231
8	M	A	N	N	M	B	A	B	M	8	4	shapes	M	1	True	86	(-1.4358510655034857, 5.4896199192051611)	(4.9187150019189438, -7.5813396458417799)	(2.6016053175773859, -1.4662757504311905)	(6.9615908762222176, 7.7202887579405477)	1.0	z	1.27776
9	M	B	N	M	A	N	B	A	N	8	6	shapes	B	1	False	86	(2.7814885451340565, 1.9501203499346964)	(-3.0291232488756545, 2.3057320875981482)	(-1.0118101119894858, -5.9746650872555422)	(5.6758805070358207, 7.7232117091786918)	1.0	slash	1.1154
10	N	A	A	M					M	4	0	shapes	N	1	False	86	(4.2834185551675183, 5.5568885179549383)	(-5.8668098399107365, 3.9159617978572943)	(-1.1546038278910586, -6.3866220348348044)	(0.63616164776183481, -0.0074628155231550863)	1.0	z	1.36701
11	M	A	B	A	M	B	N	N	N	8	5	shapes	B	1	False	86	(6.9892788035925424, -5.3795132454934063)	(-1.6923454524907333, 2.4996370861469384)	(-7.8353289563311144, 2.7441985220047567)	(-1.9422219527130702, -8.2752635117948845)	1.0	slash	0.970577
12	M	B	M	A	B	N	A	N	A	8	3	shapes	A	1	True	86	(-8.3097277265300526, -6.0852905968178499)	(2.2839581315898361, 7.6427844861083862)	(2.5150188886764688, 3.4909006945864949)	(5.395699883950126, -6.8750011299809195)	1.0	z	1.19841
13	N	A	N	B	B	A	M	M	A	8	4	shapes	B	1	False	86	(4.1331119454896044, 7.9624499987756607)	(-2.5188323211513248, 2.7968661471680782)	(-0.71228810000635789, -6.1274256292157867)	(2.5267534447914457, 3.54229864234029)	1.0	slash	1.11583
14	M	A	B	A					B	4	2	shapes	B	1	True	86	(2.4950931728728509, 4.7914945747819502)	(-8.4653763518332568, 5.4602864583663901)	(-1.5425710292540913, -8.5367521704965821)	(2.9894536038973012, -5.3964568307834204)	1.0	z	0.703559
15	M	A	N	A	M	B	N	B	M	8	0	shapes	M	1	True	86	(3.8038651672805912, -0.92061110936069745)	(-7.7010280302820995, 7.7053396867149075)	(-2.2345569930947207, 7.8705044412104286)	(2.7965907508993801, -5.9618450129971627)	1.0	z	0.431378
16	M	A	A	N	M	N	B	B	M	8	0	shapes	M	1	True	86	(-2.1638019986492294, 8.6015276950587207)	(4.2512406488427015, 6.1166946894191785)	(-8.5482161757719908, -2.1995976894855378)	(-0.59361781664842539, 0.35001145065768746)	1.0	slash	2.74081
17	M	B	B	A	N	A	M	N	B	8	2	shapes	B	1	True	86	(3.3105215114818094, -0.49313882949121357)	(-8.2494730834466488, 3.0337858089575604)	(-3.9312293639521609, -4.3548013727394776)	(2.2617879298872481, 3.8734117000066561)	1.0	z	1.67806
18	M	B	N	N					M	4	0	shapes	M	1	True	86	(-0.36212543327926383, 8.380679425265491)	(1.8361387192244809, 1.2667615712404956)	(8.1949464976397479, -4.1961902971007436)	(-8.4162268961747309, -4.8821702062492225)	1.0	z	1.30383
19	M	A	M	B	B	A	N	N	N	8	7	shapes	N	1	True	86	(-7.1281470529592577, 8.1554127168688346)	(1.3839322173843573, -6.5789867141478897)	(6.5913370895314802, -6.3872281455397317)	(-5.9528181898975792, 0.24953152403851675)	1.0	z	1.1036
20	M	B	B	M	A	N	N	A	M	8	0	shapes	M	1	True	86	(-3.3756161143932211, 5.7083023840080198)	(6.9558027832978286, -8.4176740497615548)	(-1.2356619443594363, -5.6709509294018332)	(1.3082408415805027, -2.2043238030748675)	1.0	slash	0.375159
21	M	A	A	N					B	4	1	shapes	A	1	False	86	(-7.4496114752617553, -8.5003563644619096)	(7.7201555478829036, -1.0518711091877622)	(3.8537442518109053, 7.1824075608453271)	(-8.6898807954007982, 5.8577569375842344)	1.0	slash	0.526916
22	N	A	M	M					N	4	0	shapes	N	1	True	86	(-6.4083432676633949, 8.0958808473082655)	(-1.613419778064614, -8.5156408505032424)	(1.2590760463074808, 5.3826029310818431)	(4.6584512306646371, -0.46753104278022484)	1.0	z	0.49641
23	M	B	M	N	B	N	A	A	A	8	4	shapes	B	1	False	86	(-5.784529946750582, 4.4403404360710965)	(2.8859776980327059, -2.982958951129655)	(-5.1751958943653182, -7.2482992824524919)	(7.5779282519422715, 4.3728047071473206)	1.0	slash	0.490061
24	N	B	B	N					A	4	0	shapes	N	1	False	86	(-3.9745507149139643, -6.640561892164591)	(-3.6756797599902811, 3.6809605926441815)	(4.9877648341370637, -3.5449677120925616)	(3.6889974986369634, 4.2527648196529988)	1.0	slash	1.38587
25	M	A	A	B					N	4	2	shapes	A	1	False	86	(-2.8122476225204087, -3.5689529780616898)	(2.1039263135866815, -5.0076426362328359)	(4.1386453710604769, 6.328682947288403)	(-0.42000568842630059, 7.156081621201503)	1.0	slash	0.399507
26	M	B	N	B					M	4	0	shapes	M	1	True	86	(-3.279010868283164, 5.8662037283742059)	(3.7245945244894383, 6.555846833953936)	(6.1249376013327854, -7.4511354814105619)	(-5.5396824558866689, -0.72335116637792041)	1.0	slash	0.993201
27	N	B	N	B					B	4	1	shapes	B	1	True	86	(6.794231342145391, -1.8120729818132535)	(-7.4030510552455713, 7.7151636659290297)	(-1.4441884638414253, -0.85733172655480683)	(3.7692042920509152, 0.97404483829621924)	1.0	z	0.412701
28	M	A	B	A	B	M	N	N	N	8	2	shapes	B	1	False	86	(-7.8851978246594214, -7.6608274759303345)	(6.8522820215479765, 5.1490668586107304)	(-8.1676006549068649, 8.5040493239176165)	(-3.1305310852531028, 1.7861514060651036)	1.0	slash	0.446645
29	N	A	A	B					M	4	1	shapes	A	1	False	86	(2.6545132564993956, -2.6929833049100811)	(-1.3338615552551811, 2.1862292433775021)	(1.5518363932692036, 6.8111884909203599)	(-3.8588514775154765, -7.8357079226872939)	1.0	z	1.61621
30	N	A	A	N					N	4	1	shapes	A	1	False	86	(4.4840532936889463, -0.28223107127894842)	(3.6664245036837055, 8.5780839628691297)	(-0.64050664620232922, -3.2836001534597132)	(-6.3885713873603907, 3.7405730281977281)	1.0	slash	1.02384
31	N	B	A	B	A	M	M	N	N	8	1	shapes	B	1	False	86	(0.062136433806385227, -8.1914011033854965)	(-4.5251293464848841, 3.4515298986807856)	(-4.0773934392202049, -2.0491734612323436)	(6.5768209765070491, -4.1026857540909294)	1.0	slash	1.31937
32	N	A	M	B					B	4	3	shapes	B	1	True	86	(-3.6129610878773688, 1.6202323460049239)	(8.4914800299583213, -6.062876819432617)	(-0.56839838070753501, -3.9820981637079935)	(4.0398652115818869, 0.06276415414908243)	1.0	z	1.60896
1	M	A	B	M					M	4	0	shapes	M	2	True	86	(3.3091429293104593, 2.2355533141574444)	(-3.3316071988888947, -5.6580723905769004)	(7.4290096774775485, -7.4706877268381957)	(-7.0052542627717171, 4.6548238480064317)	1.0	z	0.730622
2	N	B	A	B	A	N	M	M	N	8	7	shapes	M	2	False	86	(1.221748056175219, 8.5446259237624709)	(-5.0788612751139759, 4.7601047648296166)	(0.30374445902025649, 3.4418773672990568)	(-6.856915287181014, -4.5454161924610901)	1.0	z	0.726213
3	M	B	N	N					M	4	0	shapes	M	2	True	86	(4.0973599708492632, -0.017243292282955736)	(-0.75641039557768064, -4.5556896306721271)	(-1.4720738512436631, 3.8404592418093699)	(7.1803764417450608, 5.2531473968969973)	1.0	z	1.51989
4	M	A	M	A	B	N	B	N	M	8	0	shapes	M	2	True	86	(1.5122963128670488, -6.8318213141004627)	(-1.6259593349116539, -1.8780987875941983)	(-3.7946168781787772, 6.8050892638563649)	(5.292404513264767, 6.9837464256017299)	1.0	z	0.949531
5	M	B	B	A					A	4	3	shapes	A	2	True	86	(-8.1343265326670355, 5.429896768369554)	(1.3259815555948862, 3.5464440400192423)	(7.617347511136856, -1.8702774207683568)	(-7.8473855027703046, -2.4172101072573913)	1.0	z	0.99716
6	M	A	M	N					B	4	3	shapes	N	2	False	86	(-1.4541190146905008, -4.4025491681390445)	(2.8528832311123971, 1.3239432602884182)	(6.3256330882384582, -3.372813941938702)	(-0.95042682589713134, 7.8672616306124823)	1.0	slash	0.688811
7	N	A	A	M	N	B	M	B	A	8	1	shapes	A	2	True	86	(-4.8122444694411612, -7.8279705193596225)	(-8.5209188688788675, -5.1834327345316158)	(3.813477970415887, -8.0491923934887986)	(5.4222426366729124, 5.7380442335674076)	1.0	slash	2.9084
8	N	B	B	A	M	N	A	M	N	8	3	shapes	A	2	False	86	(5.8170105823889866, 4.4568843258041682)	(-5.2130990528792163, -1.2433186478215141)	(-8.1972124149033885, 2.6459526714277075)	(-2.4722268326516366, -4.9885386835795096)	1.0	slash	2.73188
9	M	B	N	B					A	4	0	shapes	M	2	False	86	(-2.5544645331492255, -3.2109684797635332)	(3.7012977355239585, 0.62136691032499414)	(6.0431271070850485, -3.8887969198052099)	(-6.7992481008575423, 8.15843598522126)	1.0	slash	2.68341
10	M	B	M	A	A	B	N	N	N	8	3	shapes	A	2	False	86	(-6.8973068837030054, -3.1516401599882888)	(8.5378958017266768, -2.0612614672606799)	(-6.0642511119483586, 0.86914744815586609)	(-2.3101354675205847, -4.5544445583009443)	1.0	z	1.26298
11	M	B	N	A	B	M	A	N	M	8	6	shapes	A	2	False	86	(1.2851838317305244, -7.3185512668315482)	(-6.0060247925761434, 2.2731915325465426)	(8.6201395329723454, -5.1448413050680299)	(-4.5682158916010236, -4.4710143117873509)	1.0	slash	2.61453
12	M	B	A	A					B	4	2	shapes	A	2	False	86	(-8.5356715150905274, 1.1570753457669909)	(4.4941277407814848, 3.459193785076268)	(-0.99489209750942464, -2.0622067049230157)	(7.1551427198368867, -2.0805268854788448)	1.0	z	0.958139
13	N	A	M	B	N	M	A	B	M	8	4	shapes	N	2	False	86	(1.8377439347822655, 4.8756182526660936)	(1.9907174471791684, -4.6366519072406911)	(4.0119569685138057, -0.71775726032061549)	(-2.3393635459484052, 7.0577747449706436)	1.0	slash	1.1716
14	N	A	A	N					A	4	1	shapes	A	2	True	86	(7.0191897448369307, 1.7408019846311173)	(-1.0091782436735386, -5.5033216601628787)	(7.3760705442110535, -2.2526222344091478)	(-0.38387343308128763, 5.3487250139473659)	1.0	z	0.539227
15	M	B	M	A					A	4	3	shapes	A	2	True	86	(6.3827569334713719, 6.9656627750578792)	(-6.1910703844813622, 0.14326669549588722)	(-2.7805399692253587, -2.4226833451173064)	(5.2314720845111307, -7.2319425478899717)	1.0	z	1.24508
16	N	B	B	M					B	4	3	shapes	M	2	False	86	(-0.29801483086745506, -3.1713597241917624)	(-6.8510058339022653, 0.56608622601797087)	(4.7735050297744497, -6.8657604456685295)	(2.3785006254402994, 1.6871319766481196)	1.0	slash	1.05465
17	N	B	N	B					A	4	0	shapes	N	2	False	86	(1.0867897536452844, -1.5845666170456933)	(0.43202865127063994, 3.7067536160866403)	(-1.8705640079053918, -6.8808848240428926)	(-2.7491442889962814, 6.318543685842517)	1.0	slash	0.950324
18	M	A	A	B	N	B	M	N	N	8	7	shapes	N	2	True	86	(-2.5000809218066031, -2.8287744475967633)	(7.0006929868965546, 2.2388073786473459)	(-6.6403671330268459, 0.6009952970265342)	(-3.4138340558303089, 7.6670645187069013)	1.0	slash	0.669819
19	M	A	A	N	B	B	N	M	B	8	7	shapes	M	2	False	86	(6.8851735878564853, -1.7728696286156111)	(3.0137099843620057, -7.6684261260797939)	(-5.2996082570835306, -5.2184639556611163)	(2.2012505628419703, 5.6900132965886492)	1.0	z	1.27369
20	N	B	A	A	M	M	B	N	B	8	1	shapes	B	2	True	86	(-4.9258400349370319, 8.2263026420132874)	(-2.3553718622367663, -3.4808585631842677)	(-0.57334376834612755, 4.8664365214625818)	(-6.4608190202513942, -8.3312408549602068)	1.0	slash	0.567172
21	N	B	A	A					N	4	3	shapes	A	2	False	86	(2.0548547929243632, 6.4459695948779832)	(-4.9336527077084877, 0.60585301128630142)	(-2.8762793082777875, -8.4162479254349787)	(4.2207382811898171, -4.6290480737427115)	1.0	slash	1.15106
22	N	B	M	B					M	4	0	shapes	N	2	False	86	(-5.0246284541897417, -2.6686560579654834)	(-6.3500852812637181, 2.6826624923609081)	(8.7308981043933649, -5.3609695871526828)	(0.33548379243046966, 5.9723170267155883)	1.0	z	1.06638
23	M	B	B	N	N	M	A	A	N	8	2	shapes	B	2	False	86	(-0.58596755939422351, 2.6381325686344574)	(-7.07916124091299, -5.3883489552709545)	(-6.9528392332591471, 8.7107799495436495)	(5.4695686015896925, -6.1786134815376972)	1.0	z	0.96214
24	M	A	M	B					A	4	0	shapes	M	2	False	86	(1.884264564568161, -7.49534289753257)	(-3.8438352350214835, -3.5185259757756233)	(0.34250227880389694, 6.9511845375240924)	(-3.4215654539922618, 5.5663920773281017)	1.0	slash	0.963795
25	M	B	A	B	M	A	N	N	M	8	4	shapes	M	2	True	86	(-0.41312449905019299, 0.83016445739394484)	(6.9844238037510724, 6.4926946072973504)	(-8.4537023536785654, -5.6526193605818085)	(2.689845907213094, 3.7811169418226669)	1.0	slash	0.2633
26	M	A	B	N	N	B	M	A	B	8	2	shapes	B	2	True	86	(1.810936615688604, 6.928782929219107)	(8.1923836980116533, -0.98154831106907903)	(-6.8897750871801389, 7.1766141464259174)	(-2.8751068628164074, 2.8477451650379031)	1.0	z	0.263235
27	M	A	B	A					M	4	0	shapes	M	2	True	86	(1.4326149287011365, -2.0092924732786424)	(-4.1138854036016053, 0.92507276463438437)	(-3.0576190249724675, -7.2113534943255644)	(8.276134882645831, 2.6793755290660677)	1.0	slash	0.284275
28	M	B	M	A					M	4	2	shapes	M	2	True	86	(0.37061985404266728, -5.1317962407079261)	(4.2046869222130177, 5.3092138279044505)	(-8.6059289786800672, -5.2848515279360022)	(-0.89432493903996146, 4.8205728636662322)	1.0	z	0.558425
29	N	A	M	B					B	4	3	shapes	B	2	True	86	(-5.4292175139109853, -4.9870615947606352)	(0.016781954908767105, 7.8102067753632873)	(-7.2630152607245133, 2.6736734092898775)	(1.1113467427798529, -7.8456440824341609)	1.0	z	1.32021
30	N	B	M	M	B	A	N	A	M	8	2	shapes	M	2	True	86	(5.5602995994090509, -3.51151051167838)	(-2.0926598631254238, 5.856373285998405)	(2.6196610655685753, 0.98443897800980729)	(-6.8699799678030118, 3.3668373409756498)	1.0	z	0.98957
31	M	A	M	B	B	A	N	N	M	8	6	shapes	N	2	False	86	(6.1299084031443751, 4.9526445374644545)	(-2.4859386694848808, -7.6880827524751414)	(3.4947983703467038, -0.48132292938484333)	(-4.8281448272522747, 0.48041130263541731)	1.0	z	1.04541
32	N	B	A	A	N	B	M	M	B	8	1	shapes	B	2	True	86	(-0.044174063626707394, -3.0172603289138049)	(2.6628917225910165, 3.0030545737649899)	(7.9030838876144358, -1.6634878351006162)	(3.1125041989802753, -7.9856400821314981)	1.0	slash	0.905024
1	M	A	M	B					M	4	0	shapes	M	3	True	86	(3.8355852575384421, -6.9009552788512636)	(4.2372794878777427, 1.4510651432647528)	(-1.446388253392171, 6.8951963545551749)	(-4.2011497129565596, -3.0709364382677924)	1.0	z	1.12674
2	M	B	N	A	M	N	A	B	B	8	7	shapes	B	3	True	86	(-7.4761627388309302, -2.029185621542557)	(-0.13105529254030479, 6.1104607321574029)	(0.20396524045705178, -3.7935984767010336)	(-0.32029348718367423, -7.9902394807390724)	1.0	slash	1.29834
3	N	B	M	A					N	4	2	shapes	M	3	False	86	(-2.335101032536909, -7.2680620736409445)	(8.6630810638335234, -3.8205164413160695)	(2.9154540311387933, 6.6576756051141075)	(-1.9099309526137924, 3.4955604034979171)	1.0	z	1.00749
4	M	B	M	N					N	4	1	shapes	B	3	False	86	(-5.9229906916700363, -6.7524944181965569)	(-7.9336955381449812, 3.1528018391465551)	(5.8503900481667834, -2.5785149260504765)	(5.3804618963796464, 1.635542318010403)	1.0	slash	1.31337
5	M	A	M	A	N	B	B	N	M	8	2	shapes	M	3	True	86	(1.1752683313279775, 1.5207810903454071)	(-2.0681867929339264, 4.982477810077814)	(0.34256255441675876, 8.1831739897657023)	(4.2159673624377607, -5.0475443343582764)	1.0	z	0.311206
6	N	A	A	B					A	4	1	shapes	A	3	True	86	(-3.7114231878346278, -4.7909515336404809)	(0.13769357023629958, 8.4794555828380389)	(-7.1660833093388359, 0.44860760048737802)	(3.5635635264241614, -3.2479393053422783)	1.0	slash	0.306868
7	M	A	M	A					M	4	0	shapes	M	3	True	86	(5.4243538130724929, 1.0340458736925253)	(7.1851024397263323, -7.884704943280938)	(-7.079600433561561, -7.4615189957254673)	(-3.2377226703805153, 6.265732057659763)	1.0	slash	0.768575
8	M	B	N	B	A	N	M	A	M	8	6	shapes	M	3	True	86	(-3.7757485379706655, 4.8525046656817814)	(8.2756415215035908, -0.039802134529395516)	(-7.8082197441401604, 3.2288770651665377)	(7.5208506109545397, -5.4035830523385773)	1.0	slash	0.612205
9	N	B	B	M					B	4	3	shapes	M	3	False	86	(7.0916206903212053, 5.6797507517507047)	(-0.095765212623465601, -3.2116918017419884)	(4.6986933913779367, -0.70728922755011681)	(-6.2956188965914741, 1.4870106409001007)	1.0	z	0.323807
10	N	A	M	N	M	A	B	B	B	8	6	shapes	B	3	True	86	(-3.1412107389952491, 4.8800182801476222)	(5.8176245626322025, -0.11570677864214929)	(-6.6966876093556404, -1.3580896244201872)	(2.0641249911514628, -2.2228739539500584)	1.0	slash	1.05547
11	M	A	B	A					A	4	1	shapes	A	3	True	86	(-6.3498654445332754, -4.2662396428540994)	(7.6098925262352246, -8.6965889427568719)	(-8.3552758306366535, 0.44206525566274557)	(1.1993455632115939, 6.7489730823700338)	1.0	slash	1.32715
12	N	B	A	N					A	4	2	shapes	A	3	True	86	(0.73988967058483901, -7.5943386426370125)	(-3.8584121268457814, 1.2985917916150953)	(-8.6255656053099106, -4.2239075538712187)	(0.57175588874883942, 1.2602978220901413)	1.0	z	0.912939
13	M	A	N	A	N	M	B	B	N	8	3	shapes	A	3	False	86	(-4.6765497708485926, -7.0924212470868202)	(3.4716925476619966, 5.7044854074914877)	(-8.2591207018493034, -0.24764012550402015)	(5.3366870773423951, 0.81299562264374181)	1.0	slash	1.08664
14	N	A	A	M					N	4	1	shapes	A	3	False	86	(-2.2226219491534227, 1.5197282101889265)	(0.81261421210240314, 4.5784570005422118)	(4.2916546686499313, -2.4097480081646543)	(-4.4399309640190712, -1.9040306001402998)	1.0	slash	0.984219
15	M	B	M	A					A	4	1	shapes	B	3	False	86	(5.2077456111637126, 1.7732340653676388)	(7.6094968607485782, -4.2891050699913178)	(-7.8118668981221875, -0.67867481071461455)	(-3.791865489623488, 3.1349154394600536)	1.0	z	0.789806
16	M	A	M	N	A	B	N	B	N	8	5	shapes	B	3	False	86	(-5.7536143222303666, -7.5379484777525683)	(4.6678071938335002, -3.6087688881061846)	(-0.42978069314178313, -8.6819190371381012)	(-7.2336287475812338, 5.4086658149614841)	1.0	slash	0.829392
17	M	A	A	M	B	B	N	N	A	8	0	shapes	M	3	False	86	(6.8393801567159187, 7.5702470311844579)	(8.6223681480430159, 0.17883962725111324)	(-3.322687273410672, -0.0055898144475570177)	(-2.47945217340577, 4.6037121847402869)	1.0	z	1.42103
18	N	B	M	B	M	N	A	A	B	8	5	shapes	N	3	False	86	(3.0783999074601311, -0.11123714038192567)	(1.1361853894289613, 4.9641267128737443)	(-5.8103992780537208, 2.8116978990392507)	(-4.9395212340373345, -1.9027270119678308)	1.0	slash	0.32675
19	M	A	B	N	N	A	M	B	N	8	4	shapes	N	3	True	86	(1.6048614612114438, 7.1151997146482326)	(3.6240703381158745, 1.4281908852485135)	(0.74226365383513127, -1.6075402504963288)	(7.5783348932587948, -0.5811123537431655)	1.0	slash	0.690504
20	N	B	B	A	N	A	M	M	N	8	0	shapes	N	3	True	86	(-1.6555925403408898, -2.181074429288123)	(-3.3654942491806992, 7.698023566006178)	(-8.6193804878437668, -4.0782781516103856)	(6.7445948550069659, -3.4315141171434913)	1.0	z	1.38199
21	N	A	N	A					A	4	1	shapes	A	3	True	86	(4.3294797546855488, 2.8577427818800274)	(-1.3818825619675081, 5.7840474928286927)	(4.4875959009790023, -5.3568062583071701)	(-0.42444860278497387, -6.5857619705796502)	1.0	z	0.955733
22	M	B	N	A	A	B	N	M	B	8	0	shapes	M	3	False	86	(7.8310157487836847, 1.8759131625579517)	(-8.1421457651098947, 0.33179376324233978)	(-1.554733667827783, 5.8210647349533069)	(-2.4795451555595553, -4.0148003360649165)	1.0	slash	1.03328
23	N	B	A	N	A	M	B	M	A	8	4	shapes	A	3	True	86	(-3.294810026139225, 0.62619931249546568)	(-8.1779177611230836, -5.0171230301161733)	(-7.6919758956886088, 8.694429715263837)	(3.6871304261980207, -5.136044085285052)	1.0	slash	0.110972
24	M	A	B	A					B	4	1	shapes	A	3	False	86	(-1.5281854920985518, 1.4809341760616714)	(7.9734346182233509, -5.1231595498802385)	(6.717042538358319, 7.5040081692859637)	(-2.5202937323287982, -2.7878128924310914)	1.0	z	1.33865
25	M	A	M	N					N	4	3	shapes	N	3	True	86	(4.8062556757531336, -5.1188168522271988)	(1.7344860907318722, 6.1436598846932675)	(-6.3588413387167675, -4.9373925013615985)	(-8.0248830135395721, 5.4329108177862757)	1.0	slash	0.592267
26	N	B	N	B					N	4	1	shapes	B	3	False	86	(-5.544061474725444, -6.3787844302003105)	(1.6906922836732399, -4.3146393744377241)	(8.0920441556081428, 1.2373968388981584)	(-5.7808121876414784, 5.6697546308475619)	1.0	slash	1.07587
27	N	B	N	M					N	4	0	shapes	N	3	True	86	(-0.6926303404490799, 8.7214006346182025)	(1.210972597549528, 3.6599916604167078)	(-6.5483384164256098, -3.2200825191553717)	(4.7028911411746233, -5.4228996911048606)	1.0	z	1.17561
28	M	A	A	B	B	M	N	N	N	8	6	shapes	N	3	True	86	(2.6215610176637263, -8.6968299014077939)	(-2.3209191617285603, 7.1185805024804001)	(1.0708460286402275, 3.796704596135017)	(-6.4778068698788527, -4.7714217884105619)	1.0	z	1.54509
29	N	B	A	B					N	4	3	shapes	B	3	False	86	(-7.2726725853643037, -2.6088671734357076)	(4.5459147504478121, 5.4014660788088698)	(-8.3816937408517838, 1.9805792793336856)	(7.7422503324503538, -3.716488811817344)	1.0	slash	0.926695
30	M	A	M	B	B	A	N	N	N	8	4	shapes	B	3	False	86	(-1.349639910254802, -1.0806045035510383)	(-3.2014120709185985, -5.5595789673162317)	(-2.2358154445991119, 5.3398625092847372)	(4.012592511923641, -2.4552283042722616)	1.0	slash	0.314303
31	N	B	A	N	A	B	M	M	N	8	1	shapes	B	3	False	86	(3.9035501708869269, -4.9537783020574366)	(0.18185436998886217, 2.089496865781026)	(-6.0128355881765909, 7.2866127449891138)	(6.4327234694665272, 1.0845762875638982)	1.0	slash	0.284845
32	M	B	N	M	A	B	A	N	M	8	2	shapes	N	3	False	86	(-5.4523033675489767, 7.8786912616750548)	(-0.062232695332316013, 8.0594647928685994)	(6.0030307878274165, 3.0274690194248883)	(-5.0797016957474632, -4.3673007651502136)	1.0	slash	1.73187
1	M	B	A	N	N	M	B	A	B	8	1	shapes	B	4	True	86	(-5.5671075315397864, -4.9710785101702752)	(8.4877314200114711, 6.788454431457918)	(5.5114228487025656, -2.8209601364890666)	(4.1286330884326965, 3.0068375984286213)	1.0	z	1.48963
2	M	A	A	N	N	B	B	M	A	8	6	shapes	B	4	False	86	(-1.7731888984355253, 2.0578964668650883)	(-1.3515353376048349, -7.9422644594883973)	(-7.2381596538716018, 1.5762021544781479)	(4.2547471354696533, 6.7921137805121816)	1.0	z	2.42888
3	M	A	B	M					B	4	2	shapes	B	4	True	86	(5.8392720645423477, 2.9571193748917199)	(0.9675047049790404, -3.166627162999692)	(-1.614836192900853, 7.4009342398338731)	(-3.608389269105059, -3.2189682961666328)	1.0	slash	1.44856
4	N	A	B	M	M	N	A	B	M	8	4	shapes	M	4	True	86	(8.2773264503698272, -6.999603394359907)	(-0.39883614981340365, 3.5548431895283592)	(4.3631200852031977, -0.57353547258131599)	(-4.0817803491710061, 6.9532697814102917)	1.0	z	0.908158
5	N	B	N	M					N	4	1	shapes	B	4	False	86	(-3.1073109419159062, -0.37349003465006447)	(1.2626350820195764, 3.1491101326318436)	(4.1098561683282711, -6.51604426583779)	(-7.5417321699404125, 8.7021430130755526)	1.0	slash	1.34347
6	M	A	M	B					B	4	3	shapes	B	4	True	86	(-0.80348528865325175, 5.2423936395409108)	(-0.27057089138138757, -1.2237001922995656)	(6.9235410484316269, -0.76178361797913841)	(5.2829599030729426, 6.8610437184365285)	1.0	slash	5.34928
7	N	A	B	A					N	4	1	shapes	A	4	False	86	(-0.80413376389665725, 5.0174686502150507)	(4.5284565937734929, 4.7489412525460803)	(1.8538294241699784, -1.1060275300647735)	(-7.6068395802596944, -2.3559070616318358)	1.0	slash	1.02463
8	N	B	M	M					B	4	2	shapes	M	4	False	86	(3.1077623238285899, -4.9016984426193835)	(-0.38701993255563139, -8.3069581730428883)	(8.3403163062658301, 4.2797924518286354)	(-3.2324201919628219, 5.7200229335391786)	1.0	z	1.4862
9	N	A	A	B					B	4	3	shapes	B	4	True	86	(3.7344069991664135, 3.4351118986047702)	(0.099303876641094746, -3.9390173245191704)	(-8.1074949704272008, -7.4550098021561215)	(-5.5342966537983322, 6.3215600503015761)	1.0	slash	1.19199
10	N	B	M	A	B	A	M	N	N	8	3	shapes	A	4	False	86	(4.5683419622766728, 8.0114074554239991)	(-2.5594505210223728, -0.42356131120980933)	(2.9564520367082974, -6.7162935536862172)	(-6.4818175406846965, 5.159820640927288)	1.0	slash	21.2449
11	N	B	B	N					A	4	3	shapes	N	4	False	86	(3.6138253692863316, -8.1733726086702632)	(8.0326375906829917, 4.0314961923950943)	(-2.9786137490863762, -0.38451869935195049)	(-2.9535985156857816, 8.1245333028378219)	1.0	slash	1.26165
12	M	A	N	A					A	4	2	shapes	N	4	False	86	(6.8923929201286107, -5.7405391125568253)	(-7.0437837442651041, 0.60983900171816607)	(7.7058558323953328, 7.8977659321213842)	(-5.9365585143692776, -6.2323155458094375)	1.0	slash	1.01116
13	M	B	B	A					A	4	2	shapes	B	4	False	86	(6.3904462221108087, -3.559795051228372)	(-0.82479347708635853, -6.6436441834911477)	(-5.4472036939993433, 1.8117966266418666)	(7.3991792157709995, 7.7870883602139926)	1.0	z	0.970913
14	M	A	M	B					M	4	0	shapes	M	4	True	86	(-3.955332842000483, -8.6722598405887172)	(-7.7157915072367391, 4.0868687164329423)	(0.030036608183099389, -0.53759919522958377)	(1.6368627487096319, 5.9853666805869619)	1.0	z	1.05057
15	N	B	N	M					A	4	0	shapes	N	4	False	86	(-3.7354549135813286, 2.9861293266570179)	(2.6608680869508454, -3.4751127349849256)	(-4.0982129519662722, -3.6261829012575957)	(7.3360966071744329, 6.0195299142155392)	1.0	slash	1.08213
16	M	A	A	B					A	4	1	shapes	A	4	True	86	(6.2558745238912206, 3.8036516462148864)	(-5.8827712851070153, -6.8254755919518457)	(3.2615629610333627, -6.5240588813160345)	(-1.0621388222450445, 6.178258816177733)	1.0	z	1.0838
17	N	A	B	A					N	4	0	shapes	N	4	True	86	(6.4091485022622674, -3.2271565576153991)	(8.1707656805643794, 6.7773065925273563)	(-5.6963770681823709, -4.3008912345332604)	(-5.0138072752296416, 0.42233895423615664)	1.0	slash	5.59732
18	M	B	M	A	B	A	N	N	B	8	4	shapes	B	4	True	86	(-1.3523361224834094, -6.690658347381973)	(-2.2061382956801925, 6.1222049726624714)	(1.5673787907340948, 2.8415953435507095)	(6.2098660904831444, 3.1403146314858557)	1.0	z	1.13875
19	N	B	N	A	B	M	A	M	A	8	3	shapes	A	4	True	86	(1.2825211887860437, 3.3009522102728415)	(-5.951404900854854, 8.5453924568795117)	(1.5882435731469275, 7.3415041199699793)	(4.638661215267966, -7.2215593225323804)	1.0	z	1.34818
20	N	B	A	A	M	N	M	B	A	8	4	shapes	M	4	False	86	(-6.2888837782765812, 8.6214702561060896)	(3.1290774901709515, 2.1479684068846119)	(-7.4859615366022645, -1.4899936760286838)	(8.1340966627300162, 6.3042920957157218)	1.0	slash	0.651943
21	M	B	B	N	N	A	M	A	B	8	6	shapes	M	4	False	86	(-1.698786099739964, 5.3303621439360285)	(7.9983877812501234, -0.76079841381423829)	(-2.615627605859645, 0.699198123975588)	(-5.409842579090764, -4.8088277798658741)	1.0	slash	2.59741
22	M	B	A	M					M	4	3	shapes	M	4	True	86	(5.3691064710448515, -6.1349974994623757)	(-5.8955283382761783, 4.4026016813911077)	(6.6935903397249756, 3.8417195454195063)	(-6.4798091296355942, -6.549696980747326)	1.0	z	0.857205
23	N	A	N	M	B	M	B	A	N	8	3	shapes	M	4	False	86	(1.323355884532722, -1.2499840396906938)	(-3.7635845929483684, 4.89673386574127)	(7.9456635002370959, -2.3591531919200222)	(-0.33631272693613745, -5.0245331397277813)	1.0	z	1.19476
24	N	B	A	M					M	4	3	shapes	M	4	True	86	(0.026565379494922325, -4.7168350576665441)	(1.1698982620244198, 7.5957540837409177)	(-7.0549823484926701, 1.8494476893205842)	(-6.5645788199287578, -8.1287748618994922)	1.0	z	0.798251
25	N	A	A	N	M	B	M	B	M	8	2	shapes	A	4	False	86	(-8.3365769069763989, -1.3031116796549753)	(4.8684447521349039, 7.6440971077174069)	(-4.6367509365635131, 0.30562973125736548)	(6.6915798853668615, -2.6006945708057261)	1.0	z	0.395835
26	N	B	B	N	M	M	A	A	B	8	3	shapes	N	4	False	86	(-0.21681272300986443, 5.1341780356008844)	(-7.3464714129712236, -1.0650825004329736)	(1.5246030186633828, -2.4969682223490528)	(-3.6413113908266928, -5.9901208651281861)	1.0	slash	1.7137
27	M	A	M	A	N	B	B	N	N	8	7	shapes	N	4	True	86	(2.3033152617099457, -3.6649914750403063)	(-8.1691410294574638, 2.1249034991721381)	(-4.9149688759809589, -7.0569709360553885)	(4.2262004318481985, 0.96237616537574766)	1.0	z	0.895357
28	N	B	M	A	A	B	N	M	M	8	2	shapes	M	4	True	86	(-8.7239579615064304, -4.0151891938513247)	(2.2651446034689862, 6.4308095494975213)	(8.4837449392422073, 2.4077228143953739)	(-0.028780057295520578, -2.4975491474862972)	1.0	slash	0.70497
29	N	A	B	M	N	B	A	M	B	8	5	shapes	B	4	True	86	(-0.17652944025801354, 2.7181272301728416)	(-4.3538308444161, 1.5815624047271299)	(3.9104392717717715, -8.3023334185043911)	(4.6339073552803693, -1.2528251865296562)	1.0	slash	0.522659
30	M	B	B	N	N	M	A	A	A	8	6	shapes	A	4	True	86	(6.20573356333969, -8.0590272309201421)	(-1.0158833830236311, 1.4696293378037257)	(-5.1107871556059301, -6.6399610965901648)	(6.2406644509899536, 7.6339963109142133)	1.0	z	1.05408
31	N	B	N	B	A	A	M	M	M	8	4	shapes	A	4	False	86	(-2.8697336197899457, -0.99725515469797621)	(-8.7303385725693214, -2.3507407433096335)	(7.8337295177606521, 6.6963882106967283)	(5.961457905369894, -6.382155678429303)	1.0	slash	0.719986
32	N	A	N	B					B	4	1	shapes	A	4	False	86	(4.7605248263728566, 2.033178272583049)	(3.976859358437844, -7.3005356034033335)	(-4.9854949324191598, -3.6496801790648465)	(-4.3989682180138097, 3.1360854816549466)	1.0	slash	5.841
1	M	A	B	N	A	M	B	N	B	8	0	shapes	M	5	False	86	(2.7914014220535623, 6.3889858639198351)	(7.9388163585061733, -8.673749363205669)	(-7.8297734819943559, -6.2624344973808475)	(3.1507552442417524, -5.5212841395170438)	1.0	slash	1.3427
2	M	A	B	A	N	B	M	N	M	8	6	shapes	M	5	True	86	(-0.82439087319323345, -8.2778365461307768)	(5.1689025634204651, -6.2559826964789051)	(-1.3657516405693721, -1.2593644039742085)	(-2.0074658945346648, 5.2080290766785549)	1.0	slash	1.23829
3	M	B	N	B	A	A	N	M	B	8	1	shapes	B	5	True	86	(-3.3461026761576553, 8.3717214649292764)	(2.2757025273018936, 3.2045138747751292)	(4.7582685886916458, -6.239905293877734)	(-4.1790128910415048, -3.8595124980957847)	1.0	z	0.97214
4	N	A	M	B					B	4	3	shapes	B	5	True	86	(-0.68840237884450772, -4.4655917301267278)	(3.3204156301855683, 5.8044027773852704)	(4.9143781795751593, -3.9184470645125131)	(-5.048978168733008, 7.9073817069638395)	1.0	slash	8.97945
5	N	B	B	N					N	4	0	shapes	N	5	True	86	(-3.1112513778803645, -4.2946156646271199)	(-7.6131019308213155, 5.9951816800033679)	(5.9371836751308802, 6.8144979914364647)	(2.7877337335034547, -0.44071741571613288)	1.0	z	1.21664
6	M	A	M	A					N	4	1	shapes	A	5	False	86	(-7.7293710932315189, -7.5297443067019731)	(-4.0802153788181519, 4.0263104995472165)	(7.0019632320732939, 1.3667689532303822)	(8.6768375622214577, -4.1403374348269368)	1.0	slash	0.720314
7	N	A	B	N	B	A	M	M	A	8	5	shapes	A	5	True	86	(-5.749481316197194, 5.518750758031528)	(5.693719643379433, 3.0539751943544999)	(7.8458612629244584, -2.048133145845112)	(-5.4860919089952596, -8.2050519955514734)	1.0	z	1.28796
8	M	B	A	N	A	M	N	B	B	8	1	shapes	B	5	True	86	(-8.6491527199815046, -1.4116231608477374)	(-6.5361703875935442, -7.9905194706218081)	(4.7978685090020097, 3.0788680780807276)	(2.8101728206576482, 8.7088411197057063)	1.0	slash	9.53943
9	M	A	A	N					B	4	2	shapes	A	5	False	86	(8.264031725313103, -5.0536490719342986)	(-5.9873143985563582, -2.2814932632839744)	(-7.3443273666312852, 7.9143201919436521)	(6.1763159432789863, 6.3967089058600166)	1.0	slash	0.264573
10	N	B	B	A	N	A	M	M	N	8	7	shapes	M	5	False	86	(5.2067791646975614, 0.38240654348749104)	(0.68220849347652113, 0.37774206903728746)	(-4.9586099454302266, 0.36956392366023216)	(-4.9132165854170653, 6.6328493471952399)	1.0	z	1.13652
11	M	B	M	B					A	4	0	shapes	M	5	False	86	(-5.2225946312704075, -3.2518166849596453)	(0.46618640380216014, -8.5567792195536327)	(1.5974992428974506, 6.5868577038759959)	(-8.4192686136940065, 7.1713444668835766)	1.0	slash	0.863897
12	N	A	M	A					A	4	3	shapes	A	5	True	86	(4.9805648055943177, 4.7014235913736169)	(-5.3611323728566767, -8.7017502166183025)	(-4.9972943270484018, 2.6042021742738513)	(0.20386363411981101, -4.3547413587643415)	1.0	z	0.949561
13	M	A	M	N					B	4	2	shapes	M	5	False	86	(1.4688071997004499, -2.0249381490931642)	(-8.4050183059459442, -5.6350470360695866)	(-6.2436279537810933, 2.0428556628358123)	(5.3090308426666262, 2.2934568672942586)	1.0	slash	0.641131
14	N	A	B	M	B	N	A	M	N	8	1	shapes	A	5	False	86	(-5.9242084545149698, -5.5779304984012565)	(3.2789539786556094, -3.1554321477830083)	(-8.1779664671708776, 1.4291364181921065)	(-2.0018198419086648, 0.50256954690051714)	1.0	z	1.10893
15	N	B	M	N					B	4	0	shapes	N	5	False	86	(-8.7087653855988254, 3.6057808121127106)	(1.0710982492203733, -3.5199336382516151)	(3.1304117616689595, 6.1375616677821672)	(-0.55334950763138302, -8.0704981987384787)	1.0	slash	1.20043
16	M	A	N	A					M	4	2	shapes	N	5	False	86	(-6.8727371531783286, 3.2573558841079677)	(6.9113305254762931, 8.3023745773646134)	(-4.6803985769249321, -7.7339595961756196)	(6.1861172080398941, -4.5173289688748826)	1.0	z	0.698121
17	M	A	N	A	M	N	B	B	N	8	5	shapes	N	5	True	86	(5.9546984096040774, -2.4184889868273691)	(0.79501106773055774, 0.49704355347340723)	(6.6911908453678102, 6.6409578307413302)	(-5.3800265334138402, 1.6387710721535367)	1.0	slash	0.539778
18	M	A	B	M	A	N	B	N	A	8	6	shapes	B	5	False	86	(-0.53890002653522906, 1.16803406869378)	(8.6064345729849698, 7.9544979723745755)	(-3.535381080112181, 8.489949117744402)	(8.1564088196125972, 3.9399687532302128)	1.0	z	0.509454
19	M	A	M	A					A	4	3	shapes	A	5	True	86	(-0.90006627440885012, 3.4502431168571768)	(4.8346015006484109, -8.6605030541292738)	(-1.5881838830093269, -1.2525294086479182)	(5.3421231326751872, 4.728718728131506)	1.0	slash	2.08112
20	M	A	A	M	N	N	B	B	B	8	5	shapes	N	5	False	86	(-6.6279104295849312, -2.6862657479831542)	(-1.8457925744850829, 8.6557618504880942)	(2.7766569852994785, -8.5448434406887106)	(-6.2202022198014468, 3.5444824017893026)	1.0	slash	0.694573
21	M	A	N	M	N	A	B	B	A	8	0	shapes	M	5	False	86	(5.7110730526468636, 2.6305067990337569)	(-3.4520472973976029, 3.0620496216859667)	(-2.7599782334842038, -2.8596184749553215)	(-7.8186532167662159, -0.99442041226719535)	1.0	slash	0.448312
22	N	A	N	B	M	M	A	B	N	8	2	shapes	N	5	True	86	(8.4185041898474857, -3.3872859531192505)	(-4.7597595918960982, -1.2821966252281589)	(-5.0899860955255187, 4.2045284626094137)	(6.8196208773418032, 6.3740821385606949)	1.0	slash	0.580037
23	M	A	B	M	A	N	N	B	M	8	2	shapes	B	5	False	86	(4.9785668730306902, 0.83200360790390171)	(-7.4597005430926187, 6.5027599680741872)	(-3.7128066635572736, -7.6091638649633317)	(-3.6011089045701805, -3.4093710524117062)	1.0	z	0.813659
24	N	B	B	M	M	N	A	A	N	8	5	shapes	N	5	True	86	(0.18329970185212474, 0.65128578103490575)	(3.1761234478007641, 5.9009044961795816)	(-7.2093743919064952, -1.6117910355818124)	(-5.4013929909758884, -8.0417398865533904)	1.0	z	1.15931
25	N	A	A	N	B	M	M	B	B	8	7	shapes	B	5	True	86	(-0.11852509164076963, -0.68951055434048314)	(-6.8634871811049747, -6.9680194637745796)	(6.0264502617075646, -0.94913098152459785)	(-2.7377016016414855, 8.3177779145727264)	1.0	slash	0.852993
26	N	B	A	M					M	4	3	shapes	M	5	True	86	(6.0286021805877219, -6.2503792060103347)	(-0.61905950173127167, 7.9771501757227554)	(-4.4400162268043424, -7.5567046358825944)	(7.4346754207151129, 7.7021829162418243)	1.0	z	1.25262
27	N	B	B	A	M	M	N	A	B	8	3	shapes	A	5	False	86	(7.3120876202066007, -2.9541683850171783)	(-7.0576560387900038, -0.35938331558923586)	(-5.3009302977626502, 7.6894167134131095)	(-3.8982907844270605, 2.164121528588808)	1.0	z	0.854216
28	M	B	A	M					A	4	2	shapes	A	5	True	86	(-7.5105572076374667, 5.8541813849011763)	(-5.5756140068174567, -6.4249578414665596)	(1.9662198267935072, 8.1793382684721543)	(0.89171247568112122, -1.7976815056348956)	1.0	slash	0.773927
29	M	A	A	N					M	4	3	shapes	N	5	False	86	(6.61265255489932, -5.4221570135570776)	(-8.5570134695436746, 5.5608750493088692)	(-8.4259878940255284, -1.5795842387990584)	(6.0669406072551801, 0.5913066709674073)	1.0	z	1.04557
30	M	B	A	A					B	4	1	shapes	B	5	True	86	(-5.7488442812232021, -6.2924379288726016)	(-5.8403716440831523, 0.46123630451801567)	(3.1969743844945047, -2.9671107356970721)	(1.6150701370252367, 0.94660880073695708)	1.0	z	0.623116
31	N	A	B	A					N	4	0	shapes	N	5	True	86	(-5.4196883807428335, 0.4903651953418926)	(5.64236159250523, 8.0846530027140524)	(7.5441161776548853, -1.0276245745908117)	(-1.3297184399040134, -4.6372774994283263)	1.0	z	0.572919
32	N	B	B	N					A	4	2	shapes	B	5	False	86	(-0.92264132164069412, -4.2769559472539953)	(4.1979881589782799, -7.8676572940721847)	(-0.10459135558021337, 8.5782006281004612)	(8.043217479914663, 0.53042282270472185)	1.0	z	0.916444
1	N	A	M	N					M	4	1	shapes	A	6	False	86	(-2.2646013182873173, 2.1656960647134031)	(-8.2335691043229851, -1.9257079081227326)	(7.0195606481986577, -8.1653496045592213)	(3.1930143462160796, 7.3164927974388867)	1.0	z	0.288411
2	M	A	M	N	N	A	B	B	B	8	4	shapes	N	6	False	86	(5.9816004483553833, 0.0038274996088247804)	(-4.1962387476024476, 1.6983003796513678)	(1.9824354399122299, 7.8878354027216204)	(1.0681754899421207, -7.3114005850349466)	1.0	slash	1.09978
3	M	A	N	N	A	B	B	M	N	8	2	shapes	N	6	True	86	(2.3587245355196718, -1.9768861748955553)	(-3.3921285276686897, 3.4365470154628515)	(6.904690766917426, -3.8446915916557156)	(1.9049316625237172, 4.7271541149811807)	1.0	slash	0.853463
4	N	A	M	N	A	M	B	B	A	8	6	shapes	B	6	False	86	(-7.4630145446499432, -4.7335952834465918)	(-0.50500054979256603, 8.3136797092243953)	(-4.5550805988287904, -1.5869932926656194)	(8.4406574976809736, -8.3386385359954431)	1.0	slash	1.1751
5	N	A	N	M					A	4	2	shapes	N	6	False	86	(-1.387265677765444, -5.7664532215590185)	(0.89116930005613249, -1.4547530992132041)	(3.5740286896928648, 1.9582127523454158)	(-6.0672150939345268, 5.5119565361176281)	1.0	slash	1.31079
6	N	A	A	M					M	4	1	shapes	A	6	False	86	(2.9237546507285899, 0.17569788616876814)	(2.8855461857832054, -7.6479431870840102)	(-3.8595664085759234, -4.9790661245205499)	(-3.2760369008225405, 3.9828978706440115)	1.0	slash	1.20233
7	M	B	N	N					A	4	3	shapes	N	6	False	86	(5.8504171159639036, 6.3726709681446678)	(2.6489604903800075, -4.8238863913939429)	(-7.3270874379201256, -3.4521302165697074)	(-4.2402754993729292, 7.8832227218040778)	1.0	slash	1.17963
8	M	A	M	N					M	4	1	shapes	A	6	False	86	(-3.0440164002135779, 7.4634158482294026)	(-2.1062295754799578, -5.5443115926336448)	(5.4954540490318067, 0.83477903935129838)	(7.5245538928759643, -6.0933721936083689)	1.0	z	1.0496
9	M	B	N	M	A	N	A	B	A	8	2	shapes	N	6	False	86	(8.6183494803450458, 1.3063818322524821)	(0.66521297085297881, 1.5410594030426328)	(4.6483696109827015, -5.220869343667756)	(-8.3102161055712802, -5.0553894232977905)	1.0	slash	1.25331
10	M	B	A	M	A	N	B	N	M	8	3	shapes	M	6	True	86	(-7.5941625696657997, -7.7842228845606094)	(-5.7224030728136839, 1.3472656132346561)	(8.4671956964476074, 0.7627829814092788)	(-0.85517103169592446, -4.2283079446101093)	1.0	z	1.11822
11	N	B	A	M					N	4	0	shapes	N	6	True	86	(-6.0375427155349453, -4.0854092694778004)	(3.8338198940007526, -6.5529477296365179)	(-4.9723450504867834, 2.8090567737453824)	(3.5744258735581429, 5.6437910746365461)	1.0	z	1.47242
12	N	A	M	N	M	A	B	B	N	8	5	shapes	A	6	False	86	(2.4527238861290925, -6.7387105210627034)	(3.8551694588030934, -0.73500494003141448)	(-6.588140961023786, -7.4145287437792415)	(4.6876138084585346, 6.1298512822771709)	1.0	slash	1.15008
13	M	A	N	M					M	4	0	shapes	M	6	True	86	(7.630601575196188, -6.3176787814895601)	(-2.7208937225724918, 6.6165252029164172)	(5.6594175647045741, 2.770676198119844)	(-3.2025325444271528, -1.6869311401544813)	1.0	slash	8.16971
14	M	B	B	A	N	A	N	M	A	8	2	shapes	B	6	False	86	(-8.3579698425199656, 1.495161887232257)	(2.6913915001211972, -2.2063021803563281)	(-4.0068032613488329, -0.66542810744405223)	(6.9758756521115615, 4.9015563110303706)	1.0	z	4.41099
15	N	B	N	B					M	4	0	shapes	N	6	False	86	(-5.3136733453673246, -3.6678448555341232)	(-3.3575942352354025, 2.093576807069315)	(5.7071258155593565, 1.4992334398390277)	(0.15258090230263832, -0.61636896902150617)	1.0	z	1.46628
16	N	A	B	B					B	4	0	shapes	N	6	False	86	(8.1932202993113492, -4.6069098936609851)	(-6.8924906082662574, -5.5873003950274409)	(8.1141173545671528, 7.6604899333893606)	(-0.76658842938681548, 5.3075444006641828)	1.0	slash	1.03983
17	N	A	N	A	M	B	M	B	N	8	0	shapes	N	6	True	86	(1.4166749333789728, -6.4640187059195906)	(6.5048070377612675, -2.3252873517637997)	(-3.721005297463444, 0.53371291682717192)	(-5.3907601145580335, 4.1908090104788283)	1.0	z	1.00353
18	M	B	B	A					B	4	1	shapes	B	6	True	86	(-5.9227089517801268, -5.3233937828311779)	(4.6070827168355262, -1.9529110784549246)	(4.5982788441830547, 2.660047990707529)	(-7.1413949288186904, 4.6360357301228685)	1.0	z	0.780989
19	N	B	B	N					N	4	2	shapes	B	6	False	86	(8.550870312313652, -6.0970915550849067)	(-8.4940196671853023, -8.3559083015342051)	(-5.0115231026976277, 8.6913853359659043)	(6.5296215659473376, 7.6713825815745302)	1.0	z	0.858836
20	M	A	A	B	M	B	N	N	B	8	3	shapes	B	6	True	86	(1.8796883965033331, -5.9486624425000416)	(-3.163215531166836, -5.8420017768980781)	(8.1830023056860917, 1.7401636429186773)	(-1.9905175038196798, 0.91571215439181586)	1.0	slash	0.266459
21	M	A	M	A					M	4	2	shapes	M	6	True	86	(-2.2658108374809585, 3.2203623440737168)	(2.938344218444918, -6.3971638997120612)	(3.4241052539572259, 3.5706831128027279)	(-4.1373839342111225, -1.1470119313457632)	1.0	slash	0.928074
22	N	B	A	A					A	4	3	shapes	A	6	True	86	(8.3126979530788319, 3.9804677380696294)	(4.1504834338923171, -8.7331940486193549)	(-3.0611841473512786, 2.7453142840904423)	(-5.3253066680668688, -2.9553108707558646)	1.0	slash	0.607628
23	M	A	A	B	N	M	N	B	N	8	0	shapes	M	6	False	86	(1.6469917077185396, -7.0767721933045742)	(0.50872935501212169, -0.13077201702136598)	(-1.2769304668012156, 7.8414464145235527)	(2.0461066500345986, 3.7598555941116576)	1.0	z	1.49555
24	N	A	A	N	B	M	M	B	N	8	3	shapes	N	6	True	86	(1.5035809354205156, 2.1560683480101215)	(-0.87281598308605002, -2.2312307005118983)	(-3.072725093043239, -7.9869892113602212)	(3.5140777405275312, -8.1397279099991007)	1.0	slash	0.280809
25	N	B	N	B					B	4	1	shapes	B	6	True	86	(4.3487527010309179, 3.1786589598559001)	(-4.7892844930104124, 3.5882828240938185)	(2.6771456061642898, -5.905541803958295)	(-4.4284666618790993, -2.8499047056221523)	1.0	z	0.818533
26	M	B	A	B	M	N	N	A	M	8	1	shapes	B	6	False	86	(1.0625816265846684, 3.3227352748795234)	(1.4388448019844784, -4.7550137580957834)	(-7.2803103667998776, -5.8029041810054167)	(-1.9566202781860564, 6.004305425250557)	1.0	slash	0.764291
27	M	B	N	M					N	4	2	shapes	N	6	True	86	(-7.1618763678634512, 3.4889988045153153)	(-6.2101807517932688, -8.0607879284771116)	(8.4212823929027856, -0.030205152346209019)	(5.8979342928907812, 7.4062364456316843)	1.0	slash	0.413867
28	M	B	A	A	B	M	N	N	B	8	1	shapes	B	6	True	86	(-4.4126777233402574, -1.0410839625976225)	(6.6843123606018189, -7.8286586462769172)	(-7.3060397043734344, 6.3071878111872142)	(1.3338662096870557, 6.5836454834957543)	1.0	slash	1.08749
29	N	A	M	M	N	B	A	B	A	8	5	shapes	B	6	False	86	(5.7267150846837662, 7.7423221684495758)	(3.9119444587846157, -4.5820856445335378)	(-2.0996910257481609, -5.6877317544705202)	(-5.6159448491608561, -1.2023495835680418)	1.0	slash	0.995231
30	N	B	M	A	A	M	B	N	A	8	4	shapes	A	6	True	86	(-4.0337905433325449, -3.5017254998379475)	(2.6885084984614629, -6.7596368057687828)	(0.073836943773354591, -1.6968370731414675)	(-5.3318121624592028, 1.3128505764479605)	1.0	z	1.08097
31	M	B	B	M					B	4	1	shapes	B	6	True	86	(-4.3988571615166485, 3.9582998920648116)	(2.2871155883453085, -5.8364000117954182)	(-5.1398604589976156, -1.9333383304376355)	(7.4251579636282052, 6.2252038004471011)	1.0	z	1.09043
32	M	A	A	M	N	B	B	N	B	8	5	shapes	B	6	True	86	(-1.93968904188237, 5.5231693189623208)	(6.5133842410791303, -3.9568246288675546)	(6.8067985705617104, 4.1708587513528759)	(0.3461313184800261, -6.1209546651700615)	1.0	slash	0.980116
1	N	B	B	M	N	M	A	A	M	8	0	shapes	N	7	False	86	(-4.9282650076696779, -1.1023515817875014)	(6.3619657675452537, 0.18155382501590189)	(-3.7011578866574073, -5.3802988921192378)	(-0.15728240550123473, 4.1454336719132012)	1.0	z	0.79766
2	N	B	M	B	M	N	A	A	B	8	3	shapes	B	7	True	86	(-4.7834516389190727, -2.1753225937516474)	(5.4031607064309242, -4.3968392299408947)	(-7.1969276564360491, 3.4953405874653107)	(2.8863185856906277, -7.7132992807631142)	1.0	slash	1.41132
3	N	B	M	B	A	A	M	N	B	8	1	shapes	B	7	True	86	(2.901838392170367, -7.4406967742108012)	(-7.6551988175783894, 0.54467200231693447)	(4.7192524082838752, -0.76993835414456768)	(0.45918071143673878, 8.1278162861626306)	1.0	slash	3.28505
4	M	B	A	M					B	4	1	shapes	B	7	True	86	(8.7070832050517701, -3.0819099256082634)	(-7.3359165080673812, -5.2501271232441953)	(-3.3161680001309453, 4.1097550915016008)	(7.7747111073065938, 6.1274026007565858)	1.0	z	0.862654
5	M	A	A	N	N	M	B	B	N	8	1	shapes	A	7	False	86	(6.1895046705905479, -6.8450860683822725)	(-1.3285800751195822, -2.2132401998097802)	(4.4287039393735999, 1.3515965455832077)	(-8.3931105549204812, 2.4999407184276059)	1.0	slash	1.17429
6	N	B	A	N					A	4	1	shapes	B	7	False	86	(-6.4093631692631359, 5.3276713399168525)	(6.4637728907537841, 7.3829862309176981)	(-4.6745751963833522, -5.8434045124686209)	(0.77912297513897677, -6.5582513381143137)	1.0	z	0.709797
7	N	A	A	B	M	B	N	M	N	8	0	shapes	N	7	True	86	(-1.8558264792757955, -3.0479096836421595)	(5.2714174175162078, -7.9914788885228303)	(1.1428665354639111, -6.2416879879770981)	(3.0527835008936961, 1.8944567686413496)	1.0	z	0.797493
8	M	B	N	N	M	A	B	A	A	8	3	shapes	N	7	False	86	(3.6727993491618225, 3.1733635432537248)	(-6.1890874778571057, 6.2481748398512895)	(-7.234597989309437, -2.559832311282249)	(2.4453135491667819, 8.0703984612680024)	1.0	slash	0.909092
9	N	B	M	A	A	M	N	B	M	8	5	shapes	M	7	True	86	(7.9505261650126045, -5.3151678653435965)	(-3.6331704282751538, -7.7793755907177164)	(7.9578054589154732, 7.6626154185266415)	(-7.7576208568170335, -5.684117800001486)	1.0	slash	1.31674
10	M	A	A	N	N	M	B	B	A	8	7	shapes	B	7	False	86	(3.3112250322877799, 2.7818876229300784)	(-1.977363416197977, 7.2329267897302412)	(7.2636119166760409, -4.8750692228916197)	(-6.9836330742195969, 1.7362786070677831)	1.0	slash	3.65216
11	M	B	B	M	N	N	A	A	A	8	7	shapes	A	7	True	86	(-5.0772276365918376, -7.1024602987324261)	(1.9608538915891476, 7.1434221105133933)	(7.828709929045953, -6.2940768975432571)	(0.3971395936179789, -7.200322304566904)	1.0	z	0.725499
12	N	A	B	M	B	N	M	A	B	8	1	shapes	A	7	False	86	(-2.589429315680789, -6.8250556886856115)	(-1.7911799514181732, 5.0622224786357375)	(5.0041418652731693, -3.8475332403210141)	(4.3211650903520216, 3.6281741657679873)	1.0	slash	1.08953
13	N	A	N	B					N	4	2	shapes	N	7	True	86	(-6.7424372425171022, -1.8009729394112046)	(2.1518346838329876, -5.1689559527862725)	(2.6137458091779049, 1.8888866982021568)	(-6.5729335707484138, 3.5289407761176772)	1.0	slash	0.281146
14	M	A	A	N					M	4	0	shapes	M	7	True	86	(4.7534598699482373, -6.8089314807084831)	(-2.697217378226612, 7.2201717582885916)	(2.1597261761051012, 0.74789556601967533)	(-7.6903148662866689, -2.8827006834747921)	1.0	z	0.258772
15	N	A	N	M	B	M	A	B	M	8	0	shapes	N	7	False	86	(-2.2740346466098051, -5.5016306723018511)	(5.7866323802666404, 4.0271905932634766)	(0.29365084230731497, -2.0246514662923181)	(7.8899065459925879, 7.8772520692940908)	1.0	z	0.380527
16	M	B	A	B					A	4	1	shapes	B	7	False	86	(4.6358259679751228, 1.2200033457677808)	(-7.1518245988055238, -5.3394255536376827)	(4.7421855421382624, -3.3695098530067282)	(-2.1737928506094235, 8.5689881426752628)	1.0	slash	0.71396
17	N	A	A	N					A	4	2	shapes	A	7	True	86	(3.2048524977230812, 4.566381636362923)	(-3.7648191047642845, 2.3957323892128066)	(-0.92018089832098227, -4.4041199956043471)	(4.3315865513905454, -6.2782433291329776)	1.0	z	0.925902
18	N	B	N	M					M	4	0	shapes	N	7	False	86	(8.2436363192764261, -3.868716462304338)	(-5.6870891017810052, 1.3549208139550419)	(-4.3886140693242037, -2.7208976705919268)	(8.0483299619900066, 0.52820361260275561)	1.0	z	1.04737
19	N	B	M	N					A	4	0	shapes	N	7	False	86	(4.7600078899185583, 3.6229352362599254)	(8.4026439492874374, -2.7534256313993293)	(-7.6639798374616568, -5.1309378946964923)	(-1.7230776576072806, 3.5553342645038768)	1.0	slash	1.56112
20	M	A	B	M					N	4	2	shapes	B	7	False	86	(4.4638339665328299, -2.9928311904423408)	(6.3670480613694238, 2.5722010927697365)	(-1.8592061111046112, -6.2007880243270996)	(-6.4234214302283057, 5.8176592412104142)	1.0	slash	1.95463
21	N	B	M	B	A	N	A	M	A	8	4	shapes	A	7	True	86	(-4.9923614371772, 4.5466388827378736)	(3.7383443558466531, -6.5572765002376352)	(-1.1826346422177005, -0.77019951690574562)	(-4.833875341687496, -7.8335018727489567)	1.0	slash	0.896167
22	M	A	B	A					A	4	1	shapes	A	7	True	86	(0.73974194418460293, 6.2099170233691279)	(-4.0925461911206931, -0.41726692649317165)	(5.332364008068355, -5.6826131376136519)	(-7.333742773136712, 8.3705247525594295)	1.0	slash	1.71991
23	M	B	M	B					A	4	0	shapes	M	7	False	86	(4.9275708026570246, -3.2966146256662077)	(4.4030030034964813, 2.4811415313662053)	(-1.6517156021412625, -2.2256706587720938)	(-0.59375426257142827, 5.0995136643995309)	1.0	slash	0.657594
24	N	A	M	A	B	N	M	B	A	8	4	shapes	B	7	False	86	(-7.2296031195043486, 3.2137767946526417)	(2.9817393368198353, -3.5935438344948052)	(-6.8130655057076837, -2.3605201121136439)	(5.898007309030513, 1.8713439065862971)	1.0	slash	3.01792
25	M	B	N	N					M	4	1	shapes	B	7	False	86	(-6.5726680325593874, -2.6103223233090249)	(2.4222909067953911, -4.842006189226888)	(-3.4883299927776479, 3.4211473204218645)	(4.7921866189797839, 5.1053031300300216)	1.0	z	0.496666
26	M	B	M	N	A	B	N	A	A	8	4	shapes	A	7	True	86	(4.2362220450370742, -2.8298021835772271)	(6.3914469571457229, -7.6207826510740757)	(2.2734900342825224, 8.0584943543069087)	(-3.2351431791510272, -6.4826375251639927)	1.0	z	0.276354
27	N	B	A	A					B	4	1	shapes	B	7	True	86	(5.6539035894153535, 3.8609186230828438)	(-0.47577626088879121, 1.8316941747505933)	(7.5891923390340068, -2.3965713555018606)	(-3.5040513080951534, -2.0500821012561437)	1.0	z	1.62407
28	M	A	A	N					A	4	0	shapes	M	7	False	86	(6.9646807636392154, -3.5749686462674539)	(4.1396986634970521, 7.7726851299837989)	(-6.2853789990067792, -3.2231112351633335)	(-3.0997637547022769, 5.6656036231985976)	1.0	slash	1.16566
29	M	A	B	B	M	A	N	N	M	8	6	shapes	N	7	False	86	(-6.0823653172040455, -3.7480443045410263)	(-4.0159846967590278, 7.0766517049922122)	(6.8174123458220226, 4.3765548601020186)	(-4.9222293635259948, 2.2182144551700258)	1.0	slash	1.83298
30	N	A	N	A	M	B	B	M	M	8	7	shapes	M	7	True	86	(2.3484632278008135, -1.5705801599821392)	(-5.3870077664218652, 6.3894062174745176)	(-0.78418738243710084, 5.3428712124811018)	(4.2098312081385245, -7.4620009003842238)	1.0	slash	0.430711
31	N	B	M	M					B	4	1	shapes	B	7	True	86	(2.7501470791439733, -1.7933108400369875)	(-6.001353460600348, 2.5399857375369734)	(5.5151570210895819, 1.7960861940175565)	(-2.4532774945509761, -2.2225896153329243)	1.0	z	1.01046
32	M	B	A	N					A	4	2	shapes	A	7	True	86	(-7.6880664893102715, -5.5936792885271256)	(4.1210725702647988, 0.30427070572442894)	(-1.6387294499688503, 4.7093130139068666)	(4.9728453531001691, -7.1101658969115853)	1.0	z	0.994164
1	M	B	A	B					B	4	2	shapes	A	8	False	86	(-3.6533015009612706, 4.9247383324159859)	(7.753534223942232, -1.4009624831857685)	(-0.056771782513882485, -7.3098681057341519)	(0.79344285762168276, 1.73308583708776)	1.0	z	3.21379
2	M	B	M	N	A	A	N	B	M	8	1	shapes	B	8	False	86	(2.5785279481025505, -3.5111043454031865)	(-4.3594878125036622, 3.1055478687487081)	(7.366907368289997, -3.2368024402789981)	(-5.0372096442154817, -4.0081535644760358)	1.0	slash	1.35107
3	N	A	B	N					M	4	0	shapes	N	8	False	86	(-7.4313338057135212, 7.9472533200282527)	(-4.4868622802095501, -6.9715630476343238)	(3.6879761753611309, -2.2823969611831423)	(2.9189188810234814, 5.7730122308036957)	1.0	z	1.15488
4	M	A	N	M	A	N	B	B	N	8	6	shapes	B	8	False	86	(-5.1651816918818536, -1.1082022258494169)	(-4.4524261318194664, 6.8711227182011765)	(1.3761265876471533, 6.6209574569322776)	(3.893221427284125, -6.7755500194090503)	1.0	slash	1.36039
5	M	B	N	N	B	M	A	A	A	8	0	shapes	M	8	False	86	(1.5938691453817597, -0.81880932466998591)	(-1.9365455620426948, 6.1204431062764844)	(6.6424664461070311, -0.13888751534842925)	(-1.3128023554115682, -7.5664638683222778)	1.0	slash	1.47808
6	M	A	A	N	M	N	B	B	A	8	7	shapes	B	8	False	86	(-0.90469811118085364, -8.3577854597196612)	(5.159747271870236, -7.0080540221635603)	(0.11644085712141816, 3.3924661258857878)	(-1.8652622721864383, 7.8259723044161937)	1.0	slash	0.86567
7	M	B	N	B					N	4	2	shapes	N	8	True	86	(7.1775659282873452, -1.3256225942268856)	(-2.8738473867038046, -4.2805590289475814)	(-4.4223490836624597, 7.3222493770494417)	(6.5635101402306955, 2.7283384856455175)	1.0	z	0.975337
8	M	A	N	A	N	B	M	B	M	8	6	shapes	M	8	True	86	(-8.0540535851965203, -5.8744938016912362)	(-8.2984986048791214, -1.4362260326153393)	(1.8363206697015571, -3.2456081280074534)	(5.1794170164781121, -6.7085616448070073)	1.0	slash	0.441188
9	M	B	N	N					N	4	2	shapes	N	8	True	86	(-5.4754919950456733, -6.4931401815141481)	(1.1837884863275612, 3.713799587382228)	(7.8357347979118579, -3.4608946699247278)	(-0.17064959880441322, 8.6104911688748658)	1.0	z	1.21064
10	M	A	M	N					A	4	1	shapes	A	8	True	86	(-4.0403316748908029, -1.1477190600404334)	(6.643296831623914, -4.6527435035668754)	(1.3393487609329142, 6.1522820870343686)	(-3.439351747723844, 6.4709861601037506)	1.0	z	1.33806
11	M	A	A	N	N	M	B	B	N	8	3	shapes	N	8	True	86	(0.84102345898672404, 5.8114654385460938)	(-5.48640032340891, -8.728030187543526)	(5.0087456788397624, 5.9696506801704725)	(6.5875043945558396, -6.3816903042585427)	1.0	slash	1.62779
12	M	A	A	B					A	4	1	shapes	A	8	True	86	(-5.1164598523687612, -1.1274939082232134)	(-4.3663314539010409, 2.9462870739523428)	(0.73957901971686546, 0.82936195534846036)	(5.3790344805453572, -3.7719188769012879)	1.0	z	1.11147
13	N	B	M	B	M	N	A	A	A	8	5	shapes	N	8	False	86	(1.1968124007492218, -0.45384776516777237)	(-8.5596290297361382, 4.7495537212914574)	(-3.8515561280625228, -0.01788508331561367)	(5.3901943136738559, -3.1347600433409637)	1.0	z	0.973084
14	M	A	B	A	B	M	N	N	M	8	1	shapes	A	8	False	86	(6.3534851085204451, -4.9991449247352282)	(1.3426947596513052, -1.1191829358658305)	(-7.5585861426803094, -2.0804722025291325)	(1.2776459790761212, 7.6626957027920781)	1.0	slash	5.55054
15	M	B	B	N					A	4	3	shapes	N	8	False	86	(4.5734618796419841, -3.1863122133444506)	(2.4370656786555838, 3.4415721859875053)	(-6.1528645941418691, 5.3484015750950586)	(-3.5806477666013681, -3.4188748585237194)	1.0	z	0.81807
16	N	A	A	B	B	M	M	N	B	8	4	shapes	B	8	True	86	(-7.032459522004471, 7.6133176623722605)	(4.1482249457028786, -6.4055380608992376)	(-0.29943911665796996, -5.9780375255780047)	(-2.3000097424158881, 4.0147792671282936)	1.0	slash	1.11572
17	N	A	N	A	M	B	B	M	N	8	2	shapes	N	8	True	86	(4.4975790461942484, -5.3069909727280038)	(-0.31860412697418461, -3.0140650636500537)	(-7.4773383180272859, 4.2259296465213918)	(-4.7320530209428995, 0.19662214851099513)	1.0	slash	0.401369
18	M	A	A	N	M	N	B	B	M	8	4	shapes	M	8	True	86	(-7.1091385478857045, -6.8467406261485486)	(-6.4093148673195977, 0.89488259739454179)	(-3.0722577428340605, -7.2048047018894197)	(4.5436903705584815, -6.3458412380992621)	1.0	z	1.05295
19	N	A	M	M					M	4	2	shapes	M	8	True	86	(1.8128690682584896, 0.46757701295694432)	(-7.831168385773835, 7.6606166542813448)	(-0.37561940083917378, -3.5651529340676502)	(4.3517187900174612, -4.188982482038023)	1.0	z	0.931359
20	M	A	M	B	B	N	N	A	M	8	2	shapes	M	8	True	86	(4.7923942017888912, 6.113515440820386)	(-1.0326044238285119, -4.8064696151505171)	(-4.3284401307566176, 1.8307053262459121)	(-0.2135252127969256, 6.8222861489705817)	1.0	z	0.654129
21	M	A	N	B					B	4	3	shapes	B	8	True	86	(7.2642195127002793, 2.0953132099075127)	(-7.5837725496710071, -6.424507984359483)	(-3.3212049774066585, 4.1590877367678907)	(0.40796975983062111, -0.89724257243295469)	1.0	z	0.950053
22	N	B	M	B					B	4	3	shapes	B	8	True	86	(-4.5977658314421799, 1.9377398683758305)	(-5.1010002967711738, -6.5218558905636463)	(1.1488832567488263, 0.28403817485059868)	(8.0450712688272255, -4.2096867597298679)	1.0	z	0.705579
23	M	B	A	B	A	N	N	M	M	8	1	shapes	B	8	False	86	(6.3507227862608993, 3.9065595307870424)	(-3.8444878322450062, -8.1624913760519444)	(5.1342053457591579, -4.9853350961228395)	(-5.6043296488490855, -3.529307339889673)	1.0	slash	0.953217
24	M	B	B	M					N	4	2	shapes	B	8	False	86	(0.15420612383635302, -5.7244175795936467)	(2.2598802087310901, 3.5794788601871943)	(-7.8961460152438505, 6.4876153454024834)	(-3.8616827877675393, -6.4349115627588027)	1.0	slash	1.25285
25	M	A	M	A	N	B	B	N	N	8	7	shapes	N	8	True	86	(-5.655212793476343, 2.4629741366641138)	(2.4102511644194422, 2.6623355521859917)	(5.7199863966452007, -6.1419553850859234)	(-3.0282015754178531, -5.9500323039832921)	1.0	z	0.830485
26	M	A	N	A					A	4	0	shapes	M	8	False	86	(1.979857374339927, 5.2022791096966881)	(-6.9353120044858283, -7.409360246462958)	(1.3008321624380805, -4.7487782603206901)	(-6.5218815387041715, 3.6322434165146902)	1.0	slash	0.94625
27	N	B	A	M	N	A	B	M	B	8	0	shapes	N	8	False	86	(4.1296433801764838, 3.6848041938030693)	(-5.2582182545570912, 4.899332888891383)	(6.3712918796338069, -7.5663008073858133)	(-3.6161598947942979, -5.2878366129690448)	1.0	slash	0.481891
28	N	A	B	M					A	4	2	shapes	B	8	False	86	(0.73398771918997241, -3.5956047125049411)	(-8.207980751190961, -5.4354161072076757)	(4.2654690416923025, 6.7772274358383662)	(-2.4113786991530981, 2.3129405761667137)	1.0	z	0.923454
29	M	A	B	B					A	4	1	shapes	A	8	True	86	(4.5449143863163695, 7.27085445938528)	(-3.2826388167990839, 0.12859720440731337)	(2.0336462384930734, -8.6257112027392839)	(-0.42263340874327326, -3.1827747581863006)	1.0	slash	0.541029
30	N	B	M	N					M	4	3	shapes	N	8	False	86	(-0.6659433287114922, 1.7694355267877064)	(-1.0974866462968702, -4.0146033151274843)	(6.6634923768193364, 4.9679893667192125)	(2.3582051965335644, -7.2764729486469459)	1.0	slash	0.450667
31	N	B	A	N					A	4	1	shapes	B	8	False	86	(3.1580539650369879, 3.9995910805529302)	(8.0330328723646538, -1.0176160708006297)	(-1.2682004920634888, 7.562515250678139)	(-0.53707352229063687, -2.7978888123015091)	1.0	z	0.738655
32	N	A	A	B	M	B	M	N	N	8	0	shapes	N	8	True	86	(-1.0678273017158091, 6.9010143545205445)	(-5.55777657241235, -3.7802432517366169)	(-0.95960003573864761, -3.7487447121324706)	(2.4122700671296116, -0.8368647860450622)	1.0	slash	0.690101
