TrialNumber	stim0	stim1	stim2	stim3	stim4	stim5	stim6	stim7	stim.probe	ttl.stims	corr.num	trial.type	stim.corr	block	match	Subject	stim.pos0	stim.pos1	stim.pos2	stim.pos3	ran	resp	RT
1	M	A	M	N					M	4	0	shapes	M	Practice	True	87	(-2.198029162890851, 2.2708953705772235)	(6.4037815264474656, -7.4005131128901418)	(-7.5355519527724883, -1.8499050564350767)	(5.2223545602892951, 4.9172991830092094)	1.0	z	1.9647
2	N	A	M	A					A	4	3	shapes	A	Practice	True	87	(-8.2568130197529968, -5.0272114485721326)	(2.1854145551464708, -1.4628546844172376)	(-0.41690492149125724, 8.6995612572948069)	(6.2368475677904343, 5.0201289550245285)	1.0	z	2.51035
3	M	B	N	N					B	4	2	shapes	N	Practice	False	87	(3.7915242442587385, -2.407736984404643)	(-7.8998207680793797, -4.037648247622398)	(-1.9950500850122364, 3.938605670926238)	(0.97774056571759438, 6.7220770956613887)	1.0	slash	1.69785
4	M	B	N	B	N	M	A	A	M	8	5	shapes	M	Practice	True	87	(-7.4607953434446426, -4.9869097651837349)	(-3.0722321492917111, 7.7234031589318519)	(3.3704723871996567, -6.8567548434474102)	(2.7217363180215006, 2.1666364464829435)	1.0	z	1.81939
5	N	A	A	M					A	4	3	shapes	M	Practice	False	87	(-1.4484847476521381, -7.6325864267157666)	(-4.5022513880107153, 1.1715789031140336)	(7.9057827123742115, -6.5064986896418349)	(2.1391538359218742, 3.4655710106057374)	1.0	slash	1.72091
6	M	B	B	M	N	N	A	A	A	8	7	shapes	A	Practice	True	87	(8.053487328711789, 7.8522317465386742)	(0.74003708828938208, -1.4005882038418003)	(-6.7438600322418276, -6.8687500927782352)	(7.4892157746628527, -3.1876738966194704)	1.0	slash	13.0841
7	N	A	M	A	B	B	M	N	B	8	2	shapes	M	Practice	False	87	(-5.1912617612012255, -7.2300920289353598)	(4.2656397162277173, 2.6712560618531853)	(-4.0340678587565018, -0.14660936790177459)	(8.0649390663148282, -1.0960963386954434)	1.0	slash	0.863243
8	N	B	M	A	B	A	M	N	N	8	6	shapes	M	Practice	False	87	(-3.623130486111231, 1.3160126588006591)	(2.7578454692230121, -0.29202098010943622)	(1.6729747099554526, 3.6612547884215072)	(6.259181432060787, 5.3949818575978075)	1.0	z	0.918914
1	N	A	A	B	N	M	M	B	B	8	4	shapes	N	0	False	87	(2.0237745254913317, -6.4431458469180685)	(-4.8554936189956281, 3.9800784517429282)	(5.5160850398950281, -1.9833829177326221)	(-1.3652558010213331, 8.1964226744794431)	1.0	slash	2.97711
2	N	A	M	B	B	N	A	M	M	8	5	shapes	N	0	False	87	(2.1265391939703182, 0.42221105208825982)	(6.1825958088830966, 4.8048226152320215)	(-2.7201320978155223, 3.695324830431419)	(-1.2879099441367972, -3.3247733081784547)	1.0	slash	1.30258
3	M	B	A	N	B	N	M	A	N	8	5	shapes	N	0	True	87	(-7.0766641781994011, 5.688492847674782)	(-6.4152594785999968, 0.77469362271805586)	(7.5832789287352824, 8.3339842867992608)	(-5.6214609416875998, -6.6186980060351539)	1.0	z	1.75831
4	N	A	N	M					N	4	0	shapes	N	0	True	87	(-0.06781095184565622, -6.6640111563187094)	(7.3226417902404926, -2.558157511576086)	(-8.6700499865809313, 6.73208362540373)	(6.0678908247296732, 1.6679160066285714)	1.0	slash	1.33574
5	N	A	M	A	N	B	B	M	A	8	3	shapes	A	0	True	87	(-6.2151403327508525, 1.8210844594319013)	(-0.19851837171875708, -0.15948104613887359)	(-6.1979484751641944, -4.5857626895297807)	(-0.69560246991312091, 5.2197766462934787)	1.0	slash	1.01749
6	M	B	N	B					B	4	1	shapes	B	0	True	87	(7.3967997908647796, -6.1495008164780884)	(-3.4765837373592126, -8.0268398435823052)	(-5.8460146042550107, 0.83044614305915587)	(7.9784318759632527, 7.1758920787445515)	1.0	slash	1.52872
7	M	A	B	M	N	N	A	B	N	8	3	shapes	M	0	False	87	(7.5596252955884964, -5.9347512089241121)	(0.59346292627232877, 7.7938680170589869)	(6.8848069691260889, 7.8237231274804593)	(-6.2859740229666397, -7.3538821763929265)	1.0	slash	0.90078
8	M	A	N	B	B	N	M	A	M	8	5	shapes	N	0	False	87	(0.88359197138784928, -8.0659170523372126)	(-5.2369632667113439, 5.0301779449943211)	(-5.7301969076529895, -2.3437526022022022)	(1.2934710929037418, 7.6655270108204441)	1.0	z	1.01436
9	N	A	B	N	M	A	B	M	N	8	3	shapes	N	0	True	87	(6.3367601384681169, 5.762651612751224)	(-1.3858151330065906, 2.5345770962123915)	(-7.4827221352539075, -4.2809650205883685)	(-6.1843083763347924, 4.9799345117379481)	1.0	z	1.15182
10	M	A	A	M	B	B	N	N	N	8	0	shapes	M	0	False	87	(7.2857086807767821, -7.2640730797506716)	(-1.3349996022524042, -1.2105355419225585)	(-2.7355350909274421, -5.9886198689214964)	(2.3035998641748066, 6.0879606582218297)	1.0	slash	0.741492
11	N	B	A	A	B	M	N	M	B	8	1	shapes	B	0	True	87	(1.7711624172902365, 3.9139644823091757)	(8.1966181038181105, -0.56905308852914338)	(1.160271214748553, -2.4300239699332833)	(-2.2618143541875275, -0.34638786293158397)	1.0	z	1.12526
12	N	A	A	N					A	4	2	shapes	A	0	True	87	(-8.6602654182131786, -5.4169861596893618)	(8.3877041301432733, 3.713014017516338)	(-2.0106508698419381, 4.4105995863470699)	(1.8538315110004131, -1.2825456395919925)	1.0	slash	0.958899
13	N	B	B	A					A	4	1	shapes	B	0	False	87	(-7.5938415779384405, 0.51340506276175368)	(6.902888922737521, 8.3624467814059109)	(6.0232234566812632, -3.6943395752390513)	(-0.28549141895503638, -5.3198662682276421)	1.0	slash	1.21663
14	N	B	M	N	M	B	A	A	A	8	7	shapes	A	0	True	87	(-3.2454618731823404, -2.2152269940615446)	(6.2917104194928939, 1.5680176041659397)	(-3.9648988558884657, 2.1965465305019105)	(5.5190749952220735, -4.2148752168192321)	1.0	slash	0.83411
15	N	B	A	B	A	M	N	M	B	8	5	shapes	M	0	False	87	(-5.4332076042312343, -5.5491976648228709)	(-5.2889722063336109, 7.0994876332232035)	(0.76612566967762774, 1.0880035007499682)	(2.9453009309625795, 7.5025994546232155)	1.0	z	0.831642
16	N	B	M	M					B	4	1	shapes	B	0	True	87	(-7.3045821656253702, 6.0791819964187521)	(2.5630437973532878, -8.0262059542410995)	(-6.2964369081567106, -0.0449902218444862)	(7.157258129753437, 7.2308230705868031)	1.0	z	0.947572
17	M	B	M	A	B	A	N	N	A	8	1	shapes	B	0	False	87	(-7.6367487374400884, -1.1570157179004337)	(-4.0920488006541813, 1.2215213491403301)	(5.7878169446801859, -1.4605310674461851)	(7.1580704961114865, -8.6108258941433178)	1.0	slash	1.99485
18	M	B	M	B	N	N	A	A	A	8	7	shapes	A	0	True	87	(1.2829924734602134, 8.4289433839217125)	(-8.5810960058964962, 1.6510993165525942)	(-2.2771205424138419, 3.8290893435648474)	(-0.80725608692681838, -6.3443513699927543)	1.0	slash	1.38257
19	M	A	M	B					M	4	3	shapes	B	0	False	87	(7.9422486828603809, 6.8938193588366179)	(-7.3412530744286864, 2.0228794649950697)	(4.7715999379046465, -0.70095417050278641)	(-2.2942264740707072, -4.3615524052125689)	1.0	slash	0.972194
20	N	B	N	M					N	4	3	shapes	M	0	False	87	(6.9218027152163994, 3.5992014880588101)	(-0.98335801000240064, 2.2106671619897131)	(-3.8994284121120106, -8.6680174864232242)	(7.0347514889582889, -8.3266247337075114)	1.0	slash	1.12419
21	M	A	A	B	B	N	M	N	A	8	2	shapes	A	0	True	87	(2.1428392596258661, 6.4733319059289318)	(-7.6256849472191943, 4.312793507717366)	(-8.1021195704415199, 8.5004543137352542)	(8.3603834572518281, -0.26814500420535303)	1.0	z	1.44754
22	N	B	B	N					B	4	2	shapes	B	0	True	87	(3.7198143153998959, 6.5923265966955356)	(-3.760900607735449, 6.5750299583984617)	(-2.2392523577316421, -7.2945658569703173)	(2.0889587151436118, -7.4907430013927652)	1.0	z	1.00899
23	M	B	M	N	N	A	A	B	A	8	5	shapes	A	0	True	87	(4.8200820184649107, -3.6712315392168353)	(3.9084590224265927, 0.24360044660589253)	(4.5562663148115341, 6.2165723008606761)	(1.9349457707816775, -6.5345778174336937)	1.0	z	0.716723
24	N	B	A	N					B	4	2	shapes	A	0	False	87	(7.0542043833301413, -2.7060546098933909)	(-4.6967216150794808, -6.5504589615812314)	(0.2002916583369867, 5.0857815726352875)	(-8.2820728384069184, 4.4230535612293327)	1.0	z	1.26434
25	M	A	A	M					M	4	0	shapes	M	0	True	87	(5.2098356468779841, 1.1533909593334251)	(2.1626441782234593, -7.7940748502759103)	(-4.9789868152898293, -8.0891270896033038)	(-4.9123756920714676, 2.1255468370627515)	1.0	z	1.34204
26	N	B	B	A					A	4	3	shapes	A	0	True	87	(-1.6207902554899061, 3.6971349892099017)	(4.5313395742806772, 6.6018877969837888)	(-4.0148754545550398, -1.1938169126887086)	(1.3021130071424558, -6.7038950534841293)	1.0	slash	2.66021
27	M	A	M	A					B	4	2	shapes	M	0	False	87	(4.6693917293520588, 3.7003360236262974)	(-4.2275262630425114, -2.9613653587179591)	(8.1525350034587056, -1.105871072029081)	(-1.0423017083527499, 2.7487908490874293)	1.0	slash	1.10476
28	N	A	N	B					M	4	3	shapes	B	0	False	87	(-2.0512090773477025, -7.7856920250195083)	(4.8611995418781699, 8.685068188979578)	(2.7629019005050637, -8.5144740500115859)	(-3.0853816027932419, 8.0072894440611542)	1.0	slash	1.10283
29	M	B	A	B					B	4	3	shapes	B	0	True	87	(-6.5376211180893176, 4.1529696274684653)	(0.66483753214114039, -4.3837542625407027)	(7.448322776708352, 0.069428999034045091)	(-1.6975363777395094, -8.6694501747241794)	1.0	z	1.14839
30	M	B	A	B	N	A	M	N	M	8	1	shapes	B	0	False	87	(-3.8886211359435947, 5.6893549891103739)	(-0.82108100569283948, -5.3381825321925254)	(7.5278257024897357, 8.2981565573024199)	(-8.2698945207737129, -8.6192669859132334)	1.0	slash	0.955736
31	M	B	B	M					N	4	2	shapes	B	0	False	87	(6.7856356957311732, -7.5475910304160507)	(6.7343066377608416, 2.2793842653294263)	(-1.2497450077229439, 1.606765007370182)	(-3.8166010615261152, -7.3419443574218892)	1.0	slash	1.6397
32	M	B	M	B					N	4	3	shapes	B	0	False	87	(5.1988338016411308, 7.1684086423335174)	(-7.5035338802555716, 1.9872275042061709)	(-0.30333133309708415, -0.70711341841595399)	(7.753121880052106, -5.0968320040476129)	1.0	slash	2.44917
1	N	B	A	M					N	4	0	shapes	N	1	True	87	(-7.4212759788608613, 5.5453652297455722)	(-7.0056650880923526, -7.8571699427650046)	(1.5796416630956607, 3.8068928804995483)	(1.1683106845798221, -2.4354923477292552)	1.0	z	1.94873
2	M	B	A	N	M	N	B	A	M	8	6	shapes	B	1	False	87	(0.79542580790939788, 8.5626424341773486)	(-4.3545486312147039, -6.2679627133103359)	(-0.39909702343871167, -3.5847766297813326)	(5.0674500599422192, -7.9330875015234419)	1.0	slash	5.48994
3	N	B	A	B	A	M	M	N	N	8	0	shapes	N	1	True	87	(-4.2393591237695221, 8.5230101401467415)	(0.51597549716875868, 1.6051369691309922)	(1.5268679710310451, -6.6390833330378385)	(8.6296703255266678, -2.4493675622519353)	1.0	z	1.84554
4	N	A	M	A					A	4	1	shapes	A	1	True	87	(-6.807847414976445, 5.3218979965770199)	(8.0773738007932678, 0.90802746182655625)	(-5.8236588142869259, -1.652784240108069)	(2.8928946536883835, -1.6458222947203724)	1.0	z	1.51112
5	M	A	N	B	A	B	N	M	M	8	7	shapes	M	1	True	87	(-8.147510680829539, 2.9076780018456212)	(-8.1298959953287273, -4.6125978572218971)	(-8.1704023490248652, 7.984941493831311)	(8.740345447656086, -5.1754768520420669)	1.0	slash	1.07084
6	N	A	A	B					M	4	1	shapes	A	1	False	87	(-3.2079600737723517, -2.4638181118013289)	(7.8140172982737006, -7.552399247533562)	(-0.38185674672373793, 5.8077848320167593)	(4.8582497483819189, 1.4187917944782384)	1.0	z	1.09849
7	N	B	A	B	M	M	N	A	A	8	3	shapes	B	1	False	87	(1.6408188780311637, 6.6741274506343302)	(0.55678085390395538, -3.2941765073757381)	(-7.6132455471838281, 1.9466870509592251)	(-2.5731429808320625, 7.4023401428540687)	1.0	slash	1.26817
8	M	B	A	M	B	N	N	A	A	8	2	shapes	A	1	True	87	(-3.5687322366855767, -6.0643362349642747)	(3.3078396127590626, -1.1737258527262568)	(1.7223909061726896, -5.2761683097662591)	(-6.2932549023153861, -0.91567892168442899)	1.0	z	1.33367
9	M	B	B	A	M	N	A	N	B	8	1	shapes	B	1	True	87	(2.8720272288216897, -8.1834140504467854)	(6.4954355823798853, -3.9379980884214074)	(-2.1001445062411186, -4.9849973291106151)	(-0.99370031140727555, 7.0782693881544407)	1.0	z	1.13506
10	M	B	A	N	N	M	B	A	A	8	1	shapes	B	1	False	87	(6.0166569430623262, -4.1083270121402418)	(-7.1617908485970343, 5.8401139232750445)	(3.6351593396990953, 5.699019594144259)	(-3.3771837656110328, 3.1460133172902545)	1.0	z	0.792986
11	N	A	M	A	B	M	N	B	M	8	7	shapes	B	1	False	87	(2.2076031983042075, 4.0579346145948598)	(-3.5598628508371837, -6.5599907037231056)	(1.2542272277996531, -2.1141476952577003)	(6.309859754195001, -8.2354214725886443)	1.0	z	7.19041
12	N	B	A	A	N	M	B	M	A	8	2	shapes	A	1	True	87	(4.2496936817400233, -8.5068237101946735)	(-4.4184253291159683, -2.1998672706920663)	(8.1805681136708088, 2.3788538117524638)	(-2.9149496828579524, 6.8936230649014334)	1.0	slash	0.725298
13	M	B	N	A					B	4	1	shapes	B	1	True	87	(-1.4990740541094736, -7.6331260486670987)	(6.5324438618767502, -3.151457445373536)	(4.5146507806858871, 6.7375947047895526)	(-4.824479668198439, 7.1812680946448939)	1.0	slash	1.32731
14	M	B	A	B	M	N	A	N	B	8	6	shapes	A	1	False	87	(7.818915209492264, 6.4801386724751584)	(-7.56074182895847, -7.7601272644663908)	(2.3736153016666339, 1.5724273791615921)	(-7.1288931517704981, 6.0339814152770703)	1.0	slash	1.25894
15	N	A	B	N	B	M	A	M	B	8	2	shapes	B	1	True	87	(5.1007269005380866, 5.260616715794006)	(-2.6471090372317105, -4.1757553356907318)	(-7.878746468880121, 4.3206526843945667)	(6.9733111558108192, -8.4544347881244786)	1.0	z	1.58058
16	M	A	M	B					N	4	1	shapes	A	1	False	87	(8.1128494783659697, -4.1731306762260489)	(-1.8655343783446927, -5.2325046955160017)	(0.79287301059515869, 7.6069049623857232)	(-0.94164661562290686, 2.344566971185758)	1.0	slash	1.2742
17	M	B	M	A	A	N	B	N	M	8	7	shapes	N	1	False	87	(-2.5261673092452224, 8.0369118501917889)	(2.8893920436661258, -7.7255962358917181)	(-6.1793416210632479, -3.4944564652809458)	(3.3259132345625453, 3.966494104377924)	1.0	z	1.46394
18	M	B	B	M	N	A	A	N	A	8	6	shapes	A	1	True	87	(6.7082954469595055, -8.3640133365263942)	(0.69030529471668345, -1.582382301687538)	(-3.4624301060712792, 5.8417217608900174)	(-7.6027512936367785, -4.4361394010492372)	1.0	z	4.35143
19	M	A	M	N					M	4	0	shapes	M	1	True	87	(2.8882115203615637, -3.0047382193854402)	(-3.2538640970978543, 2.6743455930702975)	(6.2967565637350731, 2.2017244938748082)	(-5.0378329638234982, -3.2857523060217053)	1.0	z	1.63462
20	M	B	A	N					N	4	2	shapes	A	1	False	87	(2.8898711562123811, 6.4626832217871559)	(-0.66192400130069196, -1.5147958698499462)	(4.3445250136025475, -2.0957374544639729)	(-5.5403882892992717, 3.0286588005603718)	1.0	slash	9.54809
21	N	A	M	A					N	4	0	shapes	N	1	True	87	(-2.0492535858135259, 2.5552390181167066)	(6.6082374104667938, 5.7259607843245846)	(0.48001311295574745, -4.6497845037439287)	(-5.3207324146718182, -0.47627273080096799)	1.0	z	0.725326
22	M	A	N	M					M	4	1	shapes	A	1	False	87	(-5.6305203107111268, 6.7816173204555383)	(-3.7036318747802692, -4.4687106801608181)	(2.2464394729094526, -7.3875245914710899)	(7.5074305504048233, 6.1431142622691297)	1.0	slash	2.04692
23	M	B	N	B					N	4	2	shapes	N	1	True	87	(-2.8166943415103747, 2.21902242086448)	(3.1932502145817931, 1.2005235662849323)	(5.1496996106255413, -3.3435674235380333)	(-5.061669141367835, -7.436006323910318)	1.0	z	3.98445
24	M	B	A	N	A	M	B	N	N	8	2	shapes	A	1	False	87	(-3.660908033252424, 4.3652305260346473)	(-6.4229417800146225, -2.9733955537088574)	(3.5573364895526964, -2.2023083649033772)	(8.7225777906073922, 3.4568660913398261)	1.0	slash	1.42409
25	N	B	N	M					M	4	3	shapes	M	1	True	87	(0.66309625909991965, -4.8446447359566314)	(5.2134416441190368, 6.9256456816127248)	(-2.9155701129205873, -1.0279536070554238)	(-2.6326609005531401, 5.4831309375731081)	1.0	z	1.70145
26	M	B	N	A					B	4	1	shapes	B	1	True	87	(-8.0655140319605394, 3.1458077106309883)	(2.5089876020455666, -7.9913716026663275)	(4.2895387533402101, 1.1699851038508342)	(-5.5028404367127699, -2.643740575048418)	1.0	z	1.54735
27	N	A	M	B	N	M	B	A	N	8	0	shapes	N	1	True	87	(2.4677547056298259, -6.6212618947479296)	(3.0548902514769463, 7.1398977026865804)	(8.4307585775872305, -1.649567084346641)	(-6.924260205593634, -5.2705816900639899)	1.0	slash	3.33058
28	M	A	B	N					B	4	0	shapes	M	1	False	87	(-5.2745736559200411, -2.627536290258873)	(8.1873141200385717, -1.9151157532220129)	(8.0264113317096495, 3.293586462203546)	(-3.4716835753520447, 7.2573094387801156)	1.0	slash	0.842116
29	N	B	M	B	A	N	M	A	N	8	2	shapes	M	1	False	87	(5.7104492988763056, 1.5970335536356615)	(4.8868132625886158, -6.5461302822457883)	(-0.78347627993580016, 2.7737305322679031)	(0.19169321357841262, 6.9000876044690163)	1.0	slash	1.03797
30	M	A	B	A					N	4	3	shapes	A	1	False	87	(-2.0256345702640379, -5.0666058152405338)	(4.0844113670557149, -4.3401411848356517)	(0.53228302352220425, 2.0497592976136154)	(-0.37665944394995066, 6.607318516145007)	1.0	slash	1.45549
31	M	B	N	B					A	4	3	shapes	B	1	False	87	(0.98473911971784744, 1.4987348208727287)	(8.6860735281341555, -3.5556115583993355)	(-8.0936399527485854, 2.3987561999131515)	(-6.6343793496872587, -1.9523713231755755)	1.0	z	1.06307
32	N	B	A	A					A	4	0	shapes	N	1	False	87	(3.1126676317671063, -5.2821864096549458)	(-0.79621303977706503, 2.2760703766276258)	(4.3814688479329646, 5.8675177834279371)	(-4.0168957721240464, -4.4863768894848652)	1.0	slash	1.25365
1	N	B	A	M	B	N	M	A	A	8	2	shapes	A	2	True	87	(5.8345153627151873, 6.9829241157101301)	(-6.6693798347697566, 7.6513720697671701)	(-4.5633917036423384, -1.5196924346498033)	(8.4218029366266443, 1.2340049149055918)	1.0	z	1.20302
2	N	B	B	N					A	4	2	shapes	B	2	False	87	(-3.0895176845722441, 6.5687306674077703)	(7.0783826681858226, 8.3783185870680299)	(7.4904798642887194, -3.2516674207028178)	(-4.3412569722371073, -6.9686698269254963)	1.0	z	1.12384
3	M	A	A	M					B	4	3	shapes	M	2	False	87	(1.8450404393870254, 1.3835870929231291)	(-7.9403802955147427, 7.8274193233713731)	(4.1226660384927207, -5.6781721798128206)	(-4.40165727569868, -0.12182727267022919)	1.0	slash	1.30174
4	N	B	M	B	M	N	A	A	N	8	4	shapes	M	2	False	87	(-7.3609188466292919, 7.8336639481626591)	(-2.1775730175826817, 7.5079733729879337)	(-3.8932694016112883, -1.4604839068520024)	(7.386855799273377, 2.6906329340604955)	1.0	slash	1.39731
5	M	A	M	N	A	B	B	N	A	8	6	shapes	B	2	False	87	(6.2128653578997692, -0.731287707659245)	(4.6608096062023474, 6.4382323288392858)	(0.84940209340240003, -8.3073887790592043)	(-4.0292274962277492, -5.3852046080541012)	1.0	z	7.37061
6	N	A	N	B					B	4	3	shapes	B	2	True	87	(7.097510114603848, -8.3715263156678184)	(1.8121261699736433, 4.6800706756774346)	(-2.1027701359479574, -6.3329713255658611)	(-6.9338969198692038, 1.248492696582451)	1.0	z	2.258
7	M	A	A	M					M	4	0	shapes	M	2	True	87	(8.0334702439997869, 6.1543596768448516)	(-4.7694741813866264, -5.985064509720349)	(-7.1820081865279928, 8.6058552829391708)	(2.1595275364096516, -5.4901598439753707)	1.0	z	1.53556
8	M	A	N	B	M	B	A	N	A	8	6	shapes	A	2	True	87	(7.1391426600976242, 0.58157653187812208)	(1.8306287684132769, -1.7444836647751822)	(-8.273810946799351, -7.7197000034053627)	(6.078924897541663, 5.7974866386264576)	1.0	z	0.945218
9	M	B	A	A					M	4	1	shapes	B	2	False	87	(-2.4993552292525472, 3.9534314503561419)	(-3.1374004133769668, -7.3676847906460639)	(0.4615359411540485, 0.90461407279034489)	(6.0604899807882138, -5.1865462046402611)	1.0	z	1.16485
10	N	B	B	N	A	M	A	M	M	8	5	shapes	M	2	True	87	(0.74348243477715314, 5.3687371465102824)	(-3.539185155322178, 3.2057415896116925)	(-5.5710932909040825, -8.214193321590324)	(-3.8125636461375283, -2.5615634106224947)	1.0	slash	3.04436
11	N	A	A	N					N	4	3	shapes	N	2	True	87	(8.4367379976508659, -5.047109543313244)	(1.6088346919509871, 8.3490247976093031)	(-7.6816609653467207, 3.4594519475004102)	(-4.5152292935763736, -1.8680304967962371)	1.0	z	1.29177
12	N	A	M	A					M	4	2	shapes	M	2	True	87	(0.044038128337705373, 0.13893256951150867)	(-4.3027164404859235, 7.0358125795201794)	(4.0179862098080665, -2.0972505287160157)	(-4.8739159301171195, -3.468248582644871)	1.0	z	1.40357
13	N	A	A	N	B	B	M	M	A	8	2	shapes	A	2	True	87	(-4.9234142057698786, 4.9895584079884632)	(1.614831771255588, 5.0048903153240598)	(-1.4274775562733257, -8.3040274903390152)	(0.67853525348287924, 0.34915024306261699)	1.0	z	1.51081
14	M	B	A	A					M	4	3	shapes	A	2	False	87	(1.2654451615125737, 4.6017427770687025)	(5.3247120980839888, -1.5942617001296053)	(-8.6559995099428306, 1.704266337032303)	(-3.7729882421841223, -7.4857188109693977)	1.0	slash	1.09066
15	M	A	M	B	A	B	N	N	N	8	0	shapes	M	2	False	87	(5.8714650442562135, -5.9000129999658846)	(-4.5143428339683984, 4.8196615457933607)	(-7.3051414111343727, -0.91017074062113235)	(1.7605693092039107, -0.86109711948530077)	1.0	z	1.15827
16	N	B	N	B	A	A	M	M	M	8	6	shapes	M	2	True	87	(5.8173165188014604, 1.5993668945950255)	(0.84968618958541597, -6.1666808132438362)	(-6.4641655545323928, -0.70491452602371041)	(7.9106673060851769, -3.9121596434848458)	1.0	z	1.04403
17	N	A	A	M	M	N	B	B	B	8	6	shapes	B	2	True	87	(-8.1946326536350895, -3.3562234895709313)	(0.62732955879156016, 6.6533247534592093)	(-5.5660572821151861, 3.971720354590877)	(-0.52935270255469291, -6.5134228924557256)	1.0	z	0.8636
18	N	B	N	A	A	M	B	M	N	8	0	shapes	N	2	True	87	(-1.3964108005812639, 5.2932231807951577)	(7.4541686111777494, 8.2347096314637582)	(-5.8583626052754489, -2.5747624887096547)	(0.61354629064698152, -7.9787452563687449)	1.0	z	1.47927
19	N	A	N	M	A	B	B	M	B	8	6	shapes	B	2	True	87	(-4.5994864891899558, -2.4084357913362027)	(5.8852577245206881, 1.7107594714119863)	(-5.8182336681807438, -6.4894864796626628)	(6.0737467767646667, -5.6518577605523497)	1.0	z	1.43478
20	N	A	B	B					B	4	3	shapes	B	2	True	87	(5.5499857369750103, 5.054693718172091)	(-8.2727656298371794, 3.9550703554276119)	(0.86813532230909196, -3.0972470095866109)	(-6.112474166932353, -2.7241184593615575)	1.0	z	1.25432
21	N	A	N	A	M	B	M	B	M	8	3	shapes	A	2	False	87	(5.093287897835804, 0.42624701840304091)	(-7.30707196657381, -1.0295721346120574)	(5.1645972086238103, 5.6357525149046896)	(-6.879238235044177, 3.5828713188955952)	1.0	z	6.16988
22	N	A	B	B	M	M	A	N	B	8	7	shapes	N	2	False	87	(-8.3003404839079167, -7.5111269485594727)	(1.8366696226089267, 1.1188030239931326)	(5.9615679253143981, -1.6099988834185721)	(0.66883913802943695, 8.4626152894211017)	1.0	slash	6.52507
23	M	A	N	A					N	4	2	shapes	N	2	True	87	(5.2182955022670292, 1.7885429917655262)	(0.096689147596920932, -6.4291591883342143)	(-4.0436080164248134, 6.8157094541179752)	(-4.8917551853819283, -1.4823887446830657)	1.0	z	2.75063
24	M	B	M	B	N	A	A	N	M	8	1	shapes	B	2	False	87	(-6.173393901934964, -3.7483233383529644)	(-0.14179658595820932, -1.5066031036362579)	(0.57148743156182213, 5.8899446940770659)	(0.57322452247056432, -8.2549948479121493)	1.0	slash	1.43813
25	M	B	M	B					M	4	2	shapes	M	2	True	87	(2.940412383285139, -3.2873642868365058)	(5.5575365727481163, 2.4937392771941234)	(-6.4998502576293369, -6.1161813496565642)	(-3.9453856479992258, 4.1329353178999622)	1.0	z	1.03358
26	M	B	A	A					N	4	1	shapes	B	2	False	87	(1.2833672300424457, 5.796712255910732)	(5.441303090922446, -1.9150547347844498)	(-0.44023002790080135, 1.3589757387351629)	(-4.9914598506523555, -1.7802209875966124)	1.0	slash	1.22814
27	M	B	A	A					B	4	1	shapes	B	2	True	87	(0.55761611477698736, -3.1945714123067805)	(-5.4617484277767776, -1.4589612974083126)	(5.5207206421478006, 0.22732077010887153)	(-0.62820647410503661, 6.6396033574014144)	1.0	z	0.944746
28	M	B	B	M	A	N	A	N	A	8	3	shapes	M	2	False	87	(4.973269709370145, -7.6869167667322937)	(4.9497306971388682, 2.1959300218967215)	(-3.2757016298334598, 2.7030158482818187)	(-3.6548100828459447, -2.3585356896261223)	1.0	z	1.35858
29	N	B	A	A	B	M	M	N	N	8	5	shapes	M	2	False	87	(4.9673078740246517, -4.9571754391010536)	(1.6929942838526539, 7.3568904310256578)	(-7.6278804886089659, -5.3695189972470736)	(5.6441760281094453, 8.3092545155054403)	1.0	z	0.878045
30	M	B	B	A					A	4	2	shapes	B	2	False	87	(-8.1042134773600676, 4.4064603667479805)	(3.1108968843386027, 1.1144408652472038)	(1.1288449065678137, -2.638697400857934)	(-6.7661007572248781, -2.3726896683619776)	1.0	z	2.07176
31	N	B	A	A					B	4	0	shapes	N	2	False	87	(5.30136079663421, 7.6867157710424543)	(-4.789380667369409, 8.264069930166869)	(5.6847015628301705, -0.23622013899117)	(-0.51688663332233453, -8.1122375287283912)	1.0	slash	0.755339
32	M	A	B	N					N	4	1	shapes	A	2	False	87	(-4.4743468981385375, -1.3665639777497232)	(-7.7432211701034497, 8.5238572374993495)	(2.3810724031064581, -2.9194093861303037)	(0.26934961666186474, 5.3166008663869864)	1.0	slash	1.02907
1	M	A	N	B	A	B	M	N	N	8	7	shapes	N	3	True	87	(1.0370569868250517, -3.4233942091165606)	(-7.0021860299828944, 1.5545630173964504)	(6.7638797405490525, -4.4045616308177244)	(0.96986248124308361, 8.2161757874498065)	1.0	z	1.20665
2	M	A	M	N					M	4	2	shapes	M	3	True	87	(-1.5853014680606012, 2.7690076108011556)	(5.0384036616361598, 1.2367357152360974)	(-8.7428143609605353, -6.0887515560141328)	(8.4346313250366407, -5.889657406173189)	1.0	z	1.24018
3	M	A	M	A					N	4	1	shapes	A	3	False	87	(-2.4058099661352932, 5.8242927456521123)	(1.9252787428421527, -2.0353980289948588)	(0.52967004545859098, 2.3719217396232253)	(-4.5522573967445306, -5.5437177139498672)	1.0	slash	0.682047
4	M	A	A	B	N	M	N	B	M	8	5	shapes	M	3	True	87	(-1.9171755889928592, -0.91930183346703576)	(4.0092561978153114, -8.2533892096337809)	(6.0074768852398677, 1.2303530793934758)	(-8.472970561244221, 7.6682945526568815)	1.0	slash	1.7895
5	N	A	N	A					A	4	0	shapes	N	3	False	87	(6.9781437980317058, 6.0505755560072938)	(-8.0284544319773445, 2.8546427475941663)	(-7.5168423953715289, -6.4537777067767568)	(2.9973442133962784, -1.667145937171008)	1.0	slash	0.783137
6	N	B	N	M	B	M	A	A	B	8	3	shapes	M	3	False	87	(-7.1301182186913401, -4.0168817935731385)	(-1.7099067373240526, -5.7676740017947417)	(1.8924464404562009, -0.78662870230681747)	(7.1847694100187525, 6.845802885756898)	1.0	slash	1.05062
7	M	B	A	A	M	B	N	N	N	8	6	shapes	N	3	True	87	(-1.958357438888628, -5.6396113787745401)	(6.7319891375734038, 8.4771162020825699)	(-2.4670172410029103, 8.451457058570977)	(-7.3231867399763191, 6.9320825647118696)	1.0	z	0.982152
8	N	B	N	A					M	4	1	shapes	B	3	False	87	(-3.1358856506070003, 1.3684808962290305)	(0.50418552299702668, 4.4098123456762259)	(8.2274077802693029, -6.7332323655274919)	(-1.8284115757842949, -8.276898786569113)	1.0	slash	1.53991
9	M	A	M	A					M	4	0	shapes	M	3	True	87	(-0.9022341688114448, -4.4590825831155332)	(-6.3607867835624115, 2.5710255119128647)	(3.844936493331625, -0.5784622554607477)	(8.6384222739817069, 2.0806467829470652)	1.0	z	0.889679
10	M	A	B	A					M	4	2	shapes	B	3	False	87	(4.1417330733270941, -0.20491430479809303)	(-1.8993257689603, 6.0917899989838915)	(-1.3769034766475325, -7.1024345739319834)	(3.652308183569362, 7.4800459181385968)	1.0	slash	0.841105
11	M	B	N	N	A	M	A	B	N	8	5	shapes	M	3	False	87	(-3.1937249782337975, -3.7224932519749867)	(-2.0476480156957555, 5.0902167698673075)	(8.0173386952164378, -8.5290827676137724)	(-6.971593559762038, -7.0812133333316787)	1.0	slash	0.966905
12	M	B	N	N	A	M	B	A	A	8	7	shapes	A	3	True	87	(-3.9510245381120761, -5.5107184531845057)	(0.67353456648292997, -4.2345464652455629)	(-8.7128400925399028, 2.4646677110396897)	(6.3686908970069354, -2.9444417507035396)	1.0	slash	0.986061
13	N	A	M	A	M	N	B	B	A	8	4	shapes	M	3	False	87	(4.9426642105359466, 6.2627077636222079)	(-7.6953751504827785, 2.9343418020655783)	(7.0473810770727265, -3.5364687707076721)	(-4.8843074142622456, -7.437768615210687)	1.0	slash	1.65813
14	M	A	N	M	N	B	B	A	M	8	6	shapes	B	3	False	87	(4.6546827841603893, 3.2001202449262234)	(-4.4439747713355091, 6.0533502106694677)	(-8.204903572293194, 0.19080444660087537)	(-4.4314266140731071, -2.4184745451224456)	1.0	slash	1.50771
15	N	B	M	N	B	A	M	A	N	8	2	shapes	M	3	False	87	(-6.2170398928747783, -5.6152372265034458)	(-7.2745119242929484, -0.52490190523073466)	(-3.3433326990083918, 4.9195620204829371)	(1.6408595185870585, 6.5530959308120273)	1.0	z	2.04329
16	N	B	B	A	M	A	M	N	B	8	1	shapes	B	3	True	87	(0.57206845473524659, 0.61274990501103588)	(4.5253112514745304, 2.7454046227362756)	(-1.8012082083032777, -3.6469184484212116)	(-8.5336994864453217, -5.9141291219026488)	1.0	z	1.06292
17	N	A	B	M					A	4	3	shapes	M	3	False	87	(4.2749938537292707, 0.59310658287329154)	(-2.3139193584151929, 1.7767944716945614)	(-4.1054488164024381, -7.9148582023814891)	(0.74293645960108634, -5.7812427357035574)	1.0	z	1.09259
18	M	B	B	N					B	4	1	shapes	B	3	True	87	(2.6050530999968036, -2.7333078919450475)	(-3.9050926884407557, 6.0493198063725639)	(3.9560694136536299, 6.604032911796164)	(-4.7852615412218054, -2.898806981230611)	1.0	slash	0.900061
19	M	B	B	A					B	4	1	shapes	B	3	True	87	(2.9751617540296564, 3.6303693447771348)	(2.0232139374897482, -8.6256027106840314)	(-4.8420117192335823, -4.3919016450571107)	(-7.7349417027972809, 6.3503155009207042)	1.0	z	0.913825
20	M	A	B	N					B	4	1	shapes	A	3	False	87	(2.2334706103007935, 5.0928914029778021)	(-2.5598350161382655, -6.3429725760825661)	(-5.3070499138640912, 2.6381837004093178)	(7.5191007624929291, -2.3023586698365124)	1.0	z	0.901398
21	M	B	A	N					B	4	2	shapes	A	3	False	87	(-1.3225453969308143, 0.13776649941510399)	(-4.3542341548854635, -3.1889494973431525)	(7.8958712978483483, 0.01289954958252082)	(1.8614281761291132, -8.2326640396845541)	1.0	z	0.693087
22	N	A	N	A					B	4	2	shapes	N	3	False	87	(-3.456879368246125, 2.2430416237561062)	(-0.66846121591211727, -4.1103762494477394)	(5.1128674392537778, -2.6028866571532809)	(3.4481010765211106, 4.0459772653462842)	1.0	slash	1.21285
23	N	B	B	N	M	A	A	M	M	8	1	shapes	B	3	False	87	(-6.1047294733095567, 5.9150615609197565)	(5.5936962743792087, -4.7130596483014751)	(-8.3450014820512344, 0.64798137480744522)	(6.8469865288895004, 6.707048676579749)	1.0	slash	1.39047
24	N	B	B	M	M	A	N	A	B	8	0	shapes	N	3	False	87	(-5.8554866856248626, -3.001851199409618)	(8.0987358251812083, 4.1744208491775101)	(4.4059964396032338, 6.16453504311872)	(1.9108716615845331, -5.4105687754950473)	1.0	slash	0.959954
25	M	B	M	B	A	A	N	N	M	8	0	shapes	M	3	True	87	(4.4373177802014201, -3.4804497229691798)	(-1.0773021194443624, 7.213782394756505)	(-2.8975186783920446, -7.305373847051758)	(3.2875040286781871, 8.0458160544357007)	1.0	slash	0.845611
26	N	B	N	B					B	4	3	shapes	B	3	True	87	(-4.1661010864129402, -0.85328614526005531)	(-7.8400821594960304, 1.9806849014112924)	(4.3331022934359797, -2.9581377489158722)	(1.9132641164622406, 0.56215135500438151)	1.0	z	1.02459
27	M	A	N	B	N	A	M	B	B	8	7	shapes	B	3	True	87	(0.91454899015820423, 3.8131553282775315)	(-2.1168507858190493, -1.5313970287653254)	(5.7914333379644045, 2.377995712643548)	(-8.4556606935137602, 2.9940587481746643)	1.0	z	0.598888
28	N	A	N	A	M	M	B	B	N	8	0	shapes	N	3	True	87	(6.7397220932467139, -7.7048552985506467)	(8.4572224329997852, 1.6305092842453739)	(6.9198968147360578, 6.3775035354841538)	(4.5108891633037942, -0.98136793918018927)	1.0	slash	0.930674
29	M	B	N	M	A	B	A	N	A	8	1	shapes	B	3	False	87	(2.4320260337699935, -1.5078924531534836)	(-1.3441897140018826, 3.5523869574173066)	(-3.6713108823074663, -6.3119024047962098)	(0.98497365244338653, -8.5468567288401811)	1.0	z	5.12808
30	M	B	B	M					B	4	2	shapes	B	3	True	87	(2.6605461950095943, -6.8012200081593805)	(-3.4297905044352346, 0.64166511747912836)	(7.6964494506162211, 6.1812145125722715)	(-7.6680810113414877, -1.7958321133948187)	1.0	z	3.76745
31	M	B	M	N					N	4	3	shapes	N	3	True	87	(0.85588048591155719, 3.581297271029646)	(2.140448409456873, -8.3227534520255713)	(-8.267789063167033, 2.0881689620494264)	(-5.8413307875074052, -7.7484644239190636)	1.0	z	2.77672
32	M	B	A	B					B	4	3	shapes	B	3	True	87	(-0.0074543183282358427, -2.2409701396892938)	(2.2335129175217237, 1.3772710047542258)	(5.4978386960431092, -4.7554739373046342)	(-1.9219806671213338, 1.5047960975703667)	1.0	z	1.29651
1	M	A	N	A	N	M	B	B	A	8	0	shapes	M	4	False	87	(2.4434033171211968, 4.7368928955303176)	(-4.0577908345671778, -0.45968315122254566)	(-1.0648529317902753, 7.5771570256247998)	(7.5036992240540243, -5.0084576103003196)	1.0	slash	4.17221
2	M	A	M	N					M	4	2	shapes	M	4	True	87	(0.2166725282698625, -7.5991067753601538)	(2.5384452163381983, 7.9463649881842606)	(-8.2228600198287811, 5.2503386518097557)	(-3.4264679892004901, -1.6867440953409423)	1.0	z	2.88346
3	N	B	N	M	M	A	A	B	B	8	7	shapes	B	4	True	87	(-0.047336119399712828, -5.764129431635105)	(1.8467579937190042, 2.8295512871098207)	(-6.7129866682663826, -2.0326614343519305)	(7.7230150345541766, 4.42188980447769)	1.0	slash	1.24682
4	N	A	N	M	A	B	B	M	M	8	1	shapes	A	4	False	87	(-3.2447505972562523, 8.6047042711096466)	(-0.39639679444292852, 1.1013776547521292)	(1.3013911432235421, -8.1852121910594544)	(-6.1623981515723116, -1.9071130720352354)	1.0	z	2.86648
5	N	B	B	N	A	M	A	M	M	8	5	shapes	M	4	True	87	(-6.4728904465982744, -2.6530195693909979)	(-1.5334743251145397, 2.6503570852844849)	(3.821011149721409, 2.9245298338710448)	(3.1136437369786183, -1.3911252925670752)	1.0	z	0.834076
6	N	B	B	M	N	M	A	A	M	8	5	shapes	M	4	True	87	(7.6379237648377618, -7.7908659107206208)	(1.4730109285829531, -6.3282223334310537)	(3.615921131702974, 3.8774176885622058)	(-4.9319891545413839, -2.043746525917105)	1.0	slash	0.879774
7	M	B	N	A					A	4	3	shapes	A	4	True	87	(5.9645048816865813, -7.3871789225099791)	(-6.8938224746930015, 1.3845576814210983)	(4.4320752779006618, 2.9163913321158113)	(-4.8885778879692499, -6.4344288454404897)	1.0	z	1.04952
8	M	A	M	B	B	N	N	A	M	8	0	shapes	M	4	True	87	(-4.2905581414318856, 7.6837110749561823)	(0.23092119939213873, 1.6675436433227198)	(-6.4678356750198551, 0.44916247973696777)	(7.8730671790780846, 6.6641133069404521)	1.0	slash	3.33321
9	M	A	N	N					A	4	1	shapes	A	4	True	87	(-4.8313665540195565, 6.2465810973671214)	(-5.6184589279578585, -2.2225550901002045)	(3.4754965269998976, -2.8066379500194545)	(4.1719485243155443, 8.7403815675923191)	1.0	z	1.05254
10	M	B	M	B	A	N	N	A	N	8	5	shapes	N	4	True	87	(-0.28705220139677934, -3.7209802403195642)	(0.99347231081984688, 7.2009016877061267)	(3.484072341199683, -6.9922144322148858)	(7.3681745644046721, 5.0760922908814674)	1.0	slash	4.58191
11	N	A	B	M	M	A	N	B	N	8	5	shapes	A	4	False	87	(-3.3356118597848665, -3.8885285894853627)	(6.6194091801872013, 1.7464512657971376)	(-0.47428024163892957, 8.7286468527651486)	(4.4614687892992819, -8.5498727499468394)	1.0	slash	1.23954
12	M	B	A	B					N	4	2	shapes	A	4	False	87	(-0.12851467300914621, -0.61771485448642949)	(-1.7445622429569951, 7.912309814645873)	(7.3492827268165577, 0.015118719906665135)	(7.6784471548809421, -4.3157539596844288)	1.0	slash	1.64104
13	M	A	M	B	A	B	N	N	B	8	2	shapes	M	4	False	87	(4.2442593196973366, 1.3594103259441894)	(-7.0949827482453429, -1.7221175149281303)	(0.85386244708160319, -1.6597782213031511)	(5.5298476409387867, -6.6130253634121194)	1.0	slash	1.46867
14	M	B	B	A					N	4	0	shapes	M	4	False	87	(-5.8350026951295781, 7.2028042349963606)	(0.29215406875839101, -1.235338382485887)	(5.3216058819799077, 3.24592983991589)	(-3.8103229954128803, -4.9014678125712843)	1.0	z	0.800324
15	N	A	M	M	B	N	A	B	N	8	5	shapes	N	4	True	87	(4.8212405684209791, -5.0179142987986909)	(8.4846541695595512, -1.1849035639294945)	(7.0209745862310839, 3.3963263928516909)	(-3.0899006021030564, 8.6765812329811922)	1.0	slash	1.55787
16	M	A	B	B					B	4	1	shapes	A	4	False	87	(-0.35535042762905356, -6.6594029281107252)	(-2.6650009228372618, 0.042533919448169755)	(7.2798565639713324, -1.9300222522826189)	(0.77356763077632706, 8.0871409398350131)	1.0	z	0.887523
17	N	A	N	A					N	4	2	shapes	N	4	True	87	(4.3965558755950802, -6.7121012507339461)	(-8.3002262624813099, -6.0939611121409731)	(-2.4192277095338843, 0.60381246801190969)	(5.8806397748126571, 2.7685678462517131)	1.0	z	1.21472
18	M	B	N	M	B	N	A	A	M	8	1	shapes	B	4	False	87	(2.5745723175901283, -3.0234407054272561)	(-4.2021130652090157, -7.7712557357966974)	(-5.775948399300761, 6.4266998309800805)	(7.7041685166354732, 7.3685741982139845)	1.0	slash	1.13666
19	M	B	B	N					B	4	0	shapes	M	4	False	87	(-1.2929938169285435, -6.6148946163873834)	(4.4947626722121949, -1.0383272758283812)	(-2.3987684118431662, 3.0937008315146741)	(2.5209131545498504, 3.7170330494033852)	1.0	slash	0.88038
20	N	B	N	M	M	A	B	A	N	8	7	shapes	A	4	False	87	(-7.8290336363223334, -7.8763358527665819)	(-2.3708394155760129, 8.5008814414497991)	(-7.4043139557484103, -0.15742769313218474)	(3.2695406765704895, -0.2394931397024429)	1.0	slash	0.70206
21	N	B	N	M					M	4	0	shapes	N	4	False	87	(7.9098150930094562, -6.7165908873149407)	(-0.98992133642456448, -0.18008091120005432)	(-3.0441466423121533, 4.6525689615876331)	(3.7645288092097147, 1.8849646052389257)	1.0	z	1.98778
22	N	B	M	A					A	4	2	shapes	M	4	False	87	(-2.6439835991717526, 8.3028279474849676)	(-3.7026908917336909, -3.3194481323474365)	(0.016535773552298849, 1.3094837612898171)	(4.3580209879576532, -5.4455217272538334)	1.0	slash	0.77742
23	M	B	M	B	A	A	N	N	M	8	2	shapes	M	4	True	87	(3.1207368316743729, 4.8312802089341851)	(-1.4508365070858948, -2.9432901162234311)	(2.0266344633949718, -5.8486161928790352)	(8.4595211146244793, -8.0225630339225731)	1.0	slash	0.71499
24	N	B	B	N	M	A	A	M	A	8	3	shapes	N	4	False	87	(-1.7404536187263151, 5.4284098633213294)	(4.0210228344566108, -7.7373709073888142)	(5.0659166495812222, 7.681167474978281)	(-4.7705050557783233, -6.7383932505569941)	1.0	z	1.2485
25	M	A	N	B					N	4	2	shapes	N	4	True	87	(-5.1111956103106575, -2.3494078158616141)	(1.6791759577760459, -5.9227357751318142)	(7.8046742140487844, 7.8717093991912783)	(-7.6444448065939934, 4.2440559108129765)	1.0	slash	0.728224
26	M	B	A	A					A	4	2	shapes	A	4	True	87	(-8.1270283140700226, -6.2461724053794851)	(1.767031488360141, 8.0497241291758428)	(5.7293181310791503, -6.2938781979346814)	(-5.6166082961414769, 4.1046511918361706)	1.0	z	1.03173
27	N	B	M	M					M	4	2	shapes	M	4	True	87	(-4.4472121125696988, -0.66928365739635787)	(4.3589458408248252, -6.7506358332747478)	(3.7179190882235229, 2.7376889754800704)	(-8.1421288459153622, 5.2053841935315912)	1.0	z	0.811331
28	M	B	N	A	B	M	N	A	M	8	5	shapes	M	4	True	87	(-3.6976964074968732, -4.9989023411067954)	(0.67253658885634593, 4.4171800992044652)	(5.0098195086025328, -7.9080315722733721)	(5.9155417094214737, 1.967438334677329)	1.0	z	1.63508
29	M	B	M	B	N	A	N	A	A	8	4	shapes	N	4	False	87	(-6.8301753851143108, -8.1467534379256676)	(6.7341984993207955, 8.0422104310662377)	(0.43655049461612805, -6.3057287423324517)	(3.2450558412386261, 4.3639079911995147)	1.0	slash	7.3126
30	N	A	B	B					M	4	1	shapes	A	4	False	87	(5.8145885840624114, 4.5242471248810947)	(4.6693058190089687, -5.7273769646986032)	(-7.8651870886364295, 2.226747307189342)	(-4.3081708003652421, -4.3689384218823717)	1.0	z	2.07586
31	M	B	B	N					B	4	1	shapes	B	4	True	87	(-5.4790117254096611, 1.3920741395018243)	(-7.2295688534839986, -5.7987714227500344)	(5.7007250845434356, -1.2283750555996296)	(7.5299674598885353, 6.7821340613104333)	1.0	z	3.78341
32	M	B	N	M					B	4	2	shapes	N	4	False	87	(-1.9294352170499822, -5.2695024126871068)	(1.5208289454105728, 6.0986267561085512)	(6.3735402376949786, -1.0644846758714115)	(-2.8332353274601205, 8.3317772450411169)	1.0	slash	0.828992
1	N	A	M	M	B	B	A	N	B	8	5	shapes	B	5	True	87	(7.0286082053032626, 5.5266290511006044)	(-2.6070454197855071, -8.7291595449004902)	(1.8564772089002908, -3.2460422252626531)	(-8.2297452845475316, -0.510015601006792)	1.0	z	0.828392
2	N	B	N	A	M	A	M	B	B	8	1	shapes	B	5	True	87	(-0.48522845804081172, -6.7255261978242311)	(7.8579333251138976, 3.701001344493017)	(-7.5326164164716118, -2.0574815689083552)	(3.8130337315938494, 2.2726831882172647)	1.0	z	0.820085
3	N	A	M	A					M	4	1	shapes	A	5	False	87	(0.18184365976570227, -5.3742214725175987)	(2.0602334467496366, 2.754777856821077)	(-7.0949064361547807, 8.1319337293729284)	(-6.9776041339305204, -0.19014372028469673)	1.0	slash	0.713939
4	N	A	B	N					B	4	2	shapes	B	5	True	87	(-5.9189077652471731, -2.5584477891817619)	(2.5141504986755763, 1.7748771200694797)	(-1.5454857787661087, 8.5529704353482217)	(0.09051207572779596, -3.7157915283787917)	1.0	z	1.89344
5	M	B	B	A					B	4	1	shapes	B	5	True	87	(0.097472170130712854, 0.55502511014420008)	(7.7704996234598482, -8.0088228024022321)	(-8.2553688227792161, -2.4430925068544171)	(-6.6678281367845846, 3.4280012508461741)	1.0	z	0.917052
6	M	B	N	N	M	B	A	A	A	8	6	shapes	A	5	True	87	(0.7528469436828864, -7.4379867753574747)	(-1.2431098828630383, 4.9681288495852449)	(0.59506732905455983, -0.33252047425177977)	(-6.9197650220601341, -4.6398291602862365)	1.0	z	1.05865
7	N	B	M	B	A	A	N	M	N	8	0	shapes	N	5	True	87	(5.5048080946995395, -5.3950908816756344)	(0.39672002539966833, -0.12077495713127462)	(8.0933092636663737, 8.3129163132239334)	(7.0451882223297631, 2.1467392176147744)	1.0	slash	1.8523
8	M	A	M	A					M	4	2	shapes	M	5	True	87	(-2.4250866484156379, -5.8015392844308682)	(3.1448724406848694, -5.4291187060084649)	(6.9267318609794941, 3.442274486892078)	(-3.1382891792071321, 2.7875131138260176)	1.0	z	0.867774
9	N	B	M	A					B	4	0	shapes	N	5	False	87	(6.0820697769252874, 7.8026019428333733)	(7.1098428747467324, -7.045368559701199)	(-4.3880887065682694, 4.3378692974019284)	(-0.38820360889921268, -5.4199414474817615)	1.0	slash	1.15347
10	M	B	A	M	A	B	N	N	B	8	0	shapes	M	5	False	87	(6.3877829046423074, 6.0505450259110507)	(-3.4579102904914745, -6.541163577095455)	(-2.4586562475244627, 4.6797103275889498)	(-3.1046039096027895, -2.2337607424565169)	1.0	slash	1.4948
11	M	A	A	N					N	4	3	shapes	N	5	True	87	(-0.17127640740111616, 4.6851259035174504)	(2.8995184977470618, 8.6149215605991998)	(0.32271859080847776, -1.6227247363321871)	(-5.0834707139822619, -6.6505051412818101)	1.0	z	1.54278
12	N	A	N	B	A	B	M	M	N	8	7	shapes	M	5	False	87	(6.4156928947948337, -4.6854645910003452)	(8.301920988121136, 0.68178716360128711)	(4.5305561585211223, 8.3860203987373581)	(-7.034386924367622, 1.9334432442743612)	1.0	slash	1.26209
13	M	B	N	B	A	A	N	M	A	8	5	shapes	A	5	True	87	(-3.3457636358137677, -6.4117395152426466)	(-0.036166953103370147, -0.49080796579121966)	(7.5605035305389983, -1.4839343191968899)	(6.7671600658976541, 5.7518951125914626)	1.0	z	0.901988
14	N	B	N	A					B	4	1	shapes	B	5	True	87	(0.40036558465069305, 7.7762157885956036)	(-4.2024746001500599, -1.0850141676232425)	(6.0487883772842128, -5.8351521288104431)	(-7.3196294093574945, 5.6978515416475712)	1.0	z	1.04344
15	M	B	N	A					N	4	0	shapes	M	5	False	87	(8.2324041202936513, -2.1252846433501063)	(-6.6969162068900125, 1.3381948281440668)	(3.8775854107084271, 2.1492160850280069)	(-4.7043042637803341, -4.2205552316961317)	1.0	z	4.3969
16	N	A	A	N	B	M	B	M	A	8	0	shapes	N	5	False	87	(-5.8592374323363323, 3.045164982007643)	(3.0608199122447513, 1.9782876117424468)	(-2.7662107503028679, -5.8717153757001803)	(6.224864083527212, -5.7507172576771879)	1.0	z	3.05854
17	M	B	N	B					B	4	0	shapes	M	5	False	87	(-7.7679443498845622, 1.3493940168047001)	(-1.9930557053532718, -7.5521939590735236)	(0.95863716683610001, 5.138609650597715)	(8.2284822458302074, -6.1879894250334502)	1.0	slash	0.784147
18	N	A	B	A					A	4	0	shapes	N	5	False	87	(-3.0430379675362262, -4.9226635204452043)	(-6.9243233943124105, 1.4190770374347768)	(6.8146739618840826, -4.356083518985721)	(2.7650872847435171, 2.2686118950151855)	1.0	slash	0.685756
19	N	B	N	A					B	4	3	shapes	A	5	False	87	(7.826370239080866, 6.6570076989500429)	(-3.044365406112215, 7.9931899388266103)	(5.4724764031172448, -2.2946494833978619)	(-5.8026659340992079, -7.9479549944228864)	1.0	slash	0.759212
20	M	B	M	N	B	A	A	N	B	8	0	shapes	M	5	False	87	(-2.2739621661432636, 0.30373634540402783)	(-4.6992459918061797, 7.8763390573394609)	(-8.507565157318238, -1.2004651906305117)	(3.9958781730295954, 4.5072282354075153)	1.0	slash	0.653015
21	N	A	A	B	B	N	M	M	B	8	3	shapes	B	5	True	87	(3.9665615909525584, -3.7612909441781124)	(-8.165016352810424, 5.9293755599123639)	(-3.49767380186531, -0.33263038095025443)	(1.0252869973079797, 1.2267477116877981)	1.0	slash	0.848375
22	N	A	B	M					N	4	0	shapes	N	5	True	87	(-5.2439779253332333, 1.4807423997095963)	(4.1399118268824733, -0.25187337429027323)	(-5.4530500640390889, -7.9031363867680682)	(5.2252033670238056, 8.6604887985135051)	1.0	slash	0.648413
23	M	B	B	A	A	M	N	N	A	8	5	shapes	M	5	False	87	(-0.67847756894742517, 0.76917681932662596)	(6.3953983973438167, 8.3523938546429335)	(-2.6705498377843089, 7.1323649331713295)	(-6.6577631128830781, -3.7538215747432266)	1.0	slash	1.1799
24	N	A	A	N	M	M	B	B	M	8	4	shapes	M	5	True	87	(-4.81796520200575, 0.077009075643012181)	(1.2817541176567158, -2.696589024720879)	(2.0033027207724796, 8.1468351969535782)	(7.2063615046920599, -7.9549364777959282)	1.0	z	0.917754
25	M	B	B	M					M	4	0	shapes	M	5	True	87	(4.9195668938764676, 3.9613016052879342)	(1.9288041493479184, -4.9024369650234441)	(-6.2037633098900322, -0.89956468049653981)	(-7.1184659929116272, 4.9461565537657215)	1.0	z	0.905297
26	M	A	N	N	B	M	A	B	M	8	5	shapes	M	5	True	87	(2.1216106870835709, -1.5960926591562039)	(-4.4439272876604425, -7.0819007444426232)	(-1.0041027580920501, 2.4293966677073762)	(5.9277422477426782, -8.496966019746802)	1.0	z	0.704585
27	M	B	B	M	A	A	N	N	M	8	4	shapes	A	5	False	87	(-8.5986496882539925, 3.3717270636689296)	(0.72939773462977975, -5.8568283490078183)	(-5.5244247688216523, -4.5282406974908387)	(-2.5119473383397475, 3.2778370969599173)	1.0	slash	0.864577
28	N	A	M	M					N	4	1	shapes	A	5	False	87	(-7.7262858068746771, 6.2357176022595624)	(-3.4835111907000149, -1.9127221094273175)	(2.491724413161327, 4.6343213472995188)	(3.6939161757159624, -5.5786275581851399)	1.0	slash	1.15826
29	N	A	M	M					A	4	0	shapes	N	5	False	87	(2.6615911613451431, -3.5432407086265325)	(-7.3094839184022344, 6.0592436149359461)	(8.6328930275710043, 5.6414545343893376)	(-0.98857641162658005, -7.9114070769752569)	1.0	slash	3.63974
30	M	B	N	A	A	B	M	N	N	8	0	shapes	M	5	False	87	(7.9529643307352167, 2.0547839544762478)	(8.0699098558090832, -6.4679468543828937)	(2.8535717412928374, -3.9132167952854049)	(7.8958328305604084, 6.4447389892851987)	1.0	slash	1.3094
31	N	A	A	B	B	N	M	M	M	8	0	shapes	N	5	False	87	(6.8913196319696315, -7.895031795361021)	(-7.5100424246024833, -0.3617063402634173)	(-4.3434370187414304, 2.2843000216900062)	(4.2472348653074459, -3.6450959466361574)	1.0	slash	1.5089
32	M	B	B	A					B	4	1	shapes	B	5	True	87	(0.089063400138163829, 8.1317467300363298)	(-5.6939710023154442, 0.19089746071037972)	(-6.1051097304947213, -5.1343959307097595)	(1.1422268959718007, -1.5562037969792168)	1.0	z	1.00857
1	N	B	A	A	B	M	N	M	M	8	7	shapes	M	6	True	87	(3.4272386779695356, 5.2135108471395508)	(-7.6165308011337007, 3.3673269546840672)	(-4.9081379763033333, -8.4621560016623061)	(-1.5355613147673326, -4.8889493327558791)	1.0	z	0.788214
2	M	A	M	N	N	B	B	A	A	8	5	shapes	B	6	False	87	(2.060332391591519, 7.6990971971156341)	(-3.2502470444434701, -1.2417934714392347)	(-1.8387171092958656, 5.872554983040855)	(4.7137873484454911, -4.3853326717622689)	1.0	z	0.79968
3	N	A	M	B					N	4	1	shapes	A	6	False	87	(-3.5493935549526494, -6.7932780466546649)	(7.8824599452625144, -6.4707715940278963)	(3.4288075938316176, 2.6257775365537377)	(-3.1924475319445591, 5.4046224667180187)	1.0	slash	0.729466
4	M	B	M	A	A	N	B	N	M	8	2	shapes	M	6	True	87	(-3.2762893280897734, 0.64621362696021301)	(-8.6709002019631232, -0.71175977605629015)	(-6.314551774565424, 7.4029797777672215)	(7.151280294451821, 3.5544361318365247)	1.0	z	0.815086
5	N	A	N	B	M	M	A	B	B	8	1	shapes	A	6	False	87	(5.2087444602899637, -7.0881325814479679)	(-2.7117577552318739, 0.96544131132540656)	(7.9698481697202403, 8.5189627169488595)	(2.5250019800108472, 7.4206100404287803)	1.0	slash	0.734813
6	M	A	B	B					M	4	3	shapes	B	6	False	87	(-5.7215881260403441, 8.5929408009107711)	(-3.7999736325844937, -2.0668581148036536)	(0.059556942541142632, 8.0201433219590079)	(6.4636298337936182, -4.550917928238996)	1.0	slash	0.777464
7	M	A	M	N	A	N	B	B	N	8	4	shapes	A	6	False	87	(-4.8864553526450081, -7.2239255439836745)	(5.8574427517985939, -0.84295605184618783)	(-1.5774709401928515, -1.597941882743247)	(8.0111314516106233, 3.665047252767982)	1.0	slash	1.48802
8	N	A	M	A					N	4	0	shapes	N	6	True	87	(-1.0631511422589321, 3.6809801145413221)	(-2.555026843188652, -6.5277295216740079)	(5.8384743985234575, 3.0159179761024539)	(2.3665415791310913, -1.2589342290742795)	1.0	z	1.79165
9	M	B	B	A	M	A	N	N	A	8	5	shapes	A	6	True	87	(-4.6362669903082168, 8.7283271437013461)	(-7.153397851679447, 1.5132944190667068)	(-7.1949380493571287, -3.9154990702066561)	(-1.2399793154656269, -0.41689310561393356)	1.0	z	1.47723
10	M	B	N	A					B	4	1	shapes	B	6	True	87	(5.9621752507862276, 5.2748964243603425)	(-1.5141706282757088, -6.6753369815681278)	(-5.2024729760294166, 0.84593767919844076)	(3.7613928420685063, -3.2308205607989455)	1.0	z	0.69688
11	N	A	N	A					B	4	3	shapes	A	6	False	87	(4.1858159020223287, -7.8791423957136955)	(-7.2711493725017471, 6.547843530604009)	(-4.6133558385796753, -4.6775001081276395)	(8.2663346394514505, 5.8995227764051652)	1.0	z	0.784541
12	N	A	B	N					N	4	3	shapes	N	6	True	87	(-7.2544153560391607, -2.7881049391741524)	(1.6841852078856654, 8.4646309041714467)	(-7.3277840725956311, 5.2629805341040452)	(3.8705034998526155, -3.3739047768469153)	1.0	z	1.01423
13	N	A	N	M					N	4	0	shapes	N	6	True	87	(-6.954516064030603, 5.1618620126381867)	(-0.049855943232666178, -2.4556951140891705)	(3.756632831314672, 4.3746125142588088)	(4.1801480165676868, -1.4121478806532588)	1.0	z	1.17376
14	N	B	B	A	N	M	M	A	A	8	7	shapes	A	6	True	87	(-1.398597765233438, -3.0452418874812404)	(6.46759996807919, -5.8956457383543075)	(-6.1641101994207395, 7.7559956890756325)	(8.387243078779683, 2.0277746245556258)	1.0	slash	0.695295
15	M	A	B	N					A	4	3	shapes	N	6	False	87	(3.9683222840781927, -2.1872783633178488)	(-0.78806814255161584, 1.1656646766935204)	(3.1095471554319509, 7.1558074289759581)	(-7.8144044969006874, -6.0489219635026021)	1.0	z	4.69497
16	N	B	A	N	M	M	A	B	M	8	4	shapes	M	6	True	87	(1.5237155732307031, 7.2533550703154859)	(3.8185480774794236, 2.6180967719861741)	(8.0162980503200458, -7.5271528216762329)	(-6.8375122396349024, 6.2592115371660402)	1.0	z	1.01658
17	N	A	A	B	N	B	M	M	M	8	7	shapes	M	6	True	87	(-1.0390051085367826, -0.87339822354183561)	(-4.7645486905077412, -8.412964256693293)	(2.9897465732096862, 2.6668333812417231)	(6.9695227653560021, 5.9027616672708767)	1.0	slash	0.494038
18	M	A	N	B	B	M	N	A	A	8	2	shapes	N	6	False	87	(-7.2374178662986974, 4.5848135545774777)	(0.3391538133960541, 1.0576379450413853)	(-4.8379367099823707, -2.4813333968406202)	(0.19112315118338508, -7.6262406685873634)	1.0	slash	4.21568
19	M	B	B	M	N	A	N	A	M	8	3	shapes	M	6	True	87	(7.5928630417782124, -0.17377533096752806)	(-6.2240147758689499, -3.7016947453263676)	(-5.9394461855493859, 6.9547457006096831)	(-1.364293937384164, -4.0930382366400222)	1.0	z	0.697078
20	M	B	B	M					N	4	1	shapes	B	6	False	87	(-3.9866340956301247, 5.3215683356737102)	(-7.1963582257740644, -1.0224946766198508)	(5.5998673738512821, -6.2923550734288867)	(2.6157938334562409, 1.1806393611506678)	1.0	slash	1.00081
21	N	B	A	B					B	4	1	shapes	B	6	True	87	(-1.9483059379771657, -6.9962167153465975)	(0.53018081351792645, 1.9284250350318359)	(6.5041772825480741, -5.7482903257632962)	(-2.677664993714945, 5.0070613904165349)	1.0	z	0.906303
22	M	B	A	A					A	4	1	shapes	B	6	False	87	(-0.63484348565366844, -3.7233345599445675)	(6.0563238340375793, -5.1011169093180477)	(-7.7257210818876061, 3.0863450562371817)	(6.7174774114771498, 6.9506889276198791)	1.0	slash	1.37614
23	M	A	B	A	B	M	N	N	B	8	1	shapes	A	6	False	87	(-5.8057770507568254, 5.3666257065986542)	(-6.8525467357032248, -5.4664388659140535)	(0.82960384495608253, -4.2657221416098006)	(5.4618669237854807, 5.0712020262531396)	1.0	slash	2.92962
24	M	A	N	M	A	N	B	B	B	8	3	shapes	M	6	False	87	(-0.27552198866584732, 8.5719308489220367)	(-8.2895558963181042, -6.9279208095667792)	(-0.85290619742037777, -3.8431174534070029)	(7.5059694322819688, 6.015411534715291)	1.0	z	1.86099
25	N	A	M	M					A	4	1	shapes	A	6	True	87	(-3.9341508315628726, -2.3127793318445882)	(7.4033189736987559, -2.8265568332976905)	(4.534787852565497, 1.1206016661732239)	(-2.1819397622372936, 2.9843650685891383)	1.0	z	0.938659
26	M	A	M	N					A	4	3	shapes	N	6	False	87	(-6.0032214553021754, 4.1429540048442437)	(-2.0526619725388784, -3.4450125817113104)	(7.3536493721252647, 0.14013089368582143)	(5.7087458442276588, -6.8878249497456228)	1.0	slash	0.960119
27	M	B	A	A	B	M	N	N	N	8	2	shapes	A	6	False	87	(5.5436650278595607, -8.4193577642393915)	(5.9792623195442154, 0.94611457397660992)	(-3.4039408295223899, 3.5435363182712685)	(0.011932384976359955, -4.8593428730067156)	1.0	slash	2.22998
28	N	A	B	A					M	4	0	shapes	N	6	False	87	(6.4823601028284124, -6.4300446619567317)	(-7.9464896931543993, -6.2012727666806988)	(-6.0099206554173534, 1.5402343046431159)	(6.9828453451528798, 1.6493430556368427)	1.0	slash	1.7535
29	M	B	B	A	M	N	A	N	N	8	5	shapes	N	6	True	87	(2.6955292209393669, 6.8370515157001606)	(3.4134559242372191, -3.5746238870717164)	(1.1429675873304674, 0.51831742180732654)	(-8.2210120514666745, 8.3000032568655762)	1.0	z	1.23115
30	N	A	B	A	B	M	N	M	N	8	1	shapes	A	6	False	87	(-1.5045699899772647, 4.2637753282961821)	(5.3962169912671616, 5.2480616756026919)	(8.4913703159875595, 1.801177203156735)	(-7.556858126991294, -4.528954249786767)	1.0	slash	0.77272
31	N	A	A	M					A	4	2	shapes	A	6	True	87	(3.1295026672131989, -5.7495529515231247)	(-1.8635019654325982, 0.50941552590036387)	(0.4267964331996037, 6.7123447019986013)	(-6.9494566594214984, -8.4726919078710576)	1.0	z	0.652042
32	N	A	A	M					A	4	1	shapes	A	6	True	87	(-0.50110400012099277, 0.55165746512590275)	(2.1775758058640644, -8.6107062855958922)	(-0.64758718284885219, -3.6939154720269478)	(2.8077988745908513, 6.7101016417235844)	1.0	z	0.655959
1	M	B	M	A	B	A	N	N	N	8	4	shapes	B	7	False	87	(-5.7399787524667625, -0.95963498525088919)	(-4.5056806679226691, 3.2002947822653542)	(-0.88276942657330615, 8.6081014309812289)	(3.4542065373003528, 3.1338356176522471)	1.0	slash	0.979721
2	N	B	B	M	N	A	A	M	B	8	2	shapes	B	7	True	87	(2.2489786276864514, 8.7381866514960791)	(6.5235537761650217, -6.6073262364510175)	(-6.306338202195283, 3.2999554450835333)	(-6.893529294942339, -1.6938995683542108)	1.0	z	0.949384
3	M	A	B	A	B	N	M	N	M	8	7	shapes	N	7	False	87	(-3.9618312730732308, -0.49507393217272622)	(6.6740669825530343, 1.2479435955308684)	(1.470039354666838, 3.0516704015697798)	(-7.4044302722784074, 2.3052080241609971)	1.0	z	1.57104
4	M	A	A	B					B	4	2	shapes	A	7	False	87	(-7.9478939920214584, -1.6683718665224481)	(5.5629901156508712, 3.4966262621271351)	(2.4274370297421353, -0.46434606985504878)	(-0.75047067627998931, 3.0704899315974092)	1.0	z	1.46669
5	M	A	A	M	B	N	B	N	M	8	7	shapes	N	7	False	87	(4.6901033368233449, -2.4428338120045296)	(-0.59321479456622761, 4.31710921322742)	(8.6153975328936667, 0.14887538627856145)	(7.725767764868106, -7.5785066683210101)	1.0	z	3.43165
6	M	A	N	B					M	4	1	shapes	A	7	False	87	(1.6789619917474461, -6.471932347267968)	(-0.69360256637273032, 0.973554504270572)	(-3.7469429562902832, -3.8736064669546622)	(2.7678811343419163, 4.2652403582141538)	1.0	slash	0.723568
7	N	A	B	N					B	4	2	shapes	B	7	True	87	(1.9629373241843524, 1.6237356192785679)	(-6.1568873946799334, 3.8549342662309911)	(-8.6727840106669838, -7.6764747236311823)	(7.6529298711277924, -7.6230614037119349)	1.0	z	0.725249
8	N	B	N	A	M	M	A	B	A	8	2	shapes	N	7	False	87	(7.3162032634401264, -3.7095900674991826)	(5.4090180259126139, -8.6308278509148142)	(6.223981674491764, 6.6240447994115801)	(-4.8411252246153378, 6.611766107674292)	1.0	slash	1.16105
9	M	A	N	B					A	4	1	shapes	A	7	True	87	(-5.3956882455205299, -4.9595090588409363)	(-6.1498251879594932, 8.0866545035533512)	(0.01111430203127739, -8.4272169463335178)	(0.20524529766214172, 7.3534935494744751)	1.0	slash	2.33835
10	N	B	N	B					M	4	3	shapes	B	7	False	87	(4.762445951650097, -5.843193046967972)	(-3.4695207869125335, -6.2219752890296638)	(-1.2027034022477512, 3.8347796356703423)	(2.6161763114234624, 5.9294114913915923)	1.0	slash	0.688042
11	N	A	B	B	M	A	N	M	B	8	3	shapes	B	7	True	87	(6.9058850308039883, -5.1800742793331516)	(6.4474328132076248, 3.3392306300699399)	(-1.4672258089448338, 7.1119533127025321)	(-3.8388797532408443, -4.5550926794735576)	1.0	slash	1.21162
12	M	B	B	N					M	4	0	shapes	M	7	True	87	(0.93427124857714716, -1.4122832717230036)	(-8.6493584743617955, 2.8959491113588651)	(8.0513694190138239, 4.3370040984095102)	(-3.2350326503901519, -2.8430457210526745)	1.0	slash	1.60337
13	N	B	N	M	M	A	A	B	B	8	1	shapes	B	7	True	87	(-2.1337271472922223, -1.3340884455067981)	(-8.7249021600645271, -0.4310474434228464)	(3.5419621039917715, -7.7348260617148119)	(-2.7129364131493006, 6.7613491038270173)	1.0	z	0.838986
14	M	B	M	A					B	4	1	shapes	B	7	True	87	(-3.9496313503095131, 4.9509395345791418)	(7.1821136721715053, 4.7634273047260152)	(-5.7092719055378289, -5.8131653774228438)	(8.076086887003239, -4.0347317296051157)	1.0	z	0.735085
15	M	B	M	N	N	A	B	A	A	8	7	shapes	A	7	True	87	(-4.7417252263671488, -0.025975236041237082)	(-4.6382610670655264, 4.4942084468465211)	(6.6025810657638004, -3.4252880651569768)	(-8.2570367207694346, -6.7887953199708848)	1.0	slash	0.938511
16	M	B	A	B					N	4	2	shapes	A	7	False	87	(-4.7983146616610508, -1.2776796566314106)	(8.6581738847184511, -1.5526593707164666)	(-4.1979105592825512, 3.829055099949203)	(0.64983762695027281, 5.3527569078137702)	1.0	slash	0.726007
17	N	B	M	N	A	B	M	A	A	8	0	shapes	N	7	False	87	(-8.6768548264482686, -6.9590468330416027)	(-7.4739182432216662, 3.2955693685293017)	(5.8710957529847612, 1.4154031871778479)	(2.6708649685013732, -5.2612721759758401)	1.0	z	0.921726
18	M	B	B	N	N	A	M	A	A	8	7	shapes	A	7	True	87	(-2.4184591097681238, 6.2413614436431608)	(-1.065029313046244, -6.8138116101851089)	(3.2878383975280254, 0.018448604386790635)	(8.0517530256380851, 0.71627937029279032)	1.0	slash	1.05595
19	N	A	B	B					A	4	2	shapes	B	7	False	87	(3.1874711181535851, 4.3761062806243967)	(0.35649902199336125, -7.6460328090221319)	(-2.6271544511446194, 2.25980206980066)	(-6.4855114081122904, -6.280150517509262)	1.0	z	1.95881
20	M	B	N	A					M	4	1	shapes	B	7	False	87	(4.802363765743868, 4.2962472642017868)	(7.460011406881506, -2.5310633532997677)	(-8.1803717704626138, -2.6656161496610489)	(-2.9234433008570706, 4.6394529493574677)	1.0	slash	0.664555
21	M	B	A	A	M	N	B	N	M	8	0	shapes	M	7	True	87	(2.2570511136365123, 8.1695036494043087)	(-7.9127249178450052, 1.3625323025955787)	(3.5834282532350006, -5.4607840826133645)	(6.0915048098806341, -2.2095021376070694)	1.0	slash	0.816244
22	N	B	N	M					M	4	3	shapes	M	7	True	87	(0.25186728994821195, -4.8938469467344818)	(6.6843556766299148, 4.9260024828169158)	(-4.1490393812257285, 0.15215350850234977)	(-5.4048540173576658, -7.0916156986893579)	1.0	slash	0.695806
23	N	A	B	N	M	B	A	M	M	8	4	shapes	M	7	True	87	(2.7631108510140656, 6.7645289655800784)	(-1.2076673422387634, 2.9935847597636531)	(7.5004224759119928, -3.9817846314448024)	(7.7203942936619647, 2.7790776614328934)	1.0	z	0.865362
24	M	A	A	M					A	4	2	shapes	A	7	True	87	(3.5001901856769759, -4.0745187890870778)	(4.0252031432019066, 4.0269048184340512)	(-3.4137282960467887, 6.8738637509996199)	(-5.6718259546682717, -1.2855809970599879)	1.0	slash	0.679217
25	M	A	N	A					A	4	3	shapes	A	7	True	87	(-3.5413629562805014, 4.2597445155154077)	(1.7370677216915293, -7.90401391243417)	(6.9171456938952343, 0.16278561229845323)	(-3.1731813317702882, -4.9533217115033263)	1.0	z	1.48084
26	M	B	A	B	M	N	N	A	M	8	7	shapes	A	7	False	87	(-7.1177312662565289, 0.90279481826107499)	(8.709331643844429, 6.4132669488779257)	(-0.98361509717730122, -4.0578931186162848)	(8.5016732040235787, -8.0279404680456388)	1.0	slash	2.08644
27	N	A	N	A					B	4	0	shapes	N	7	False	87	(-2.7686983032561452, 3.7851814557420003)	(-2.9302656115167762, -0.83143200489841185)	(8.2190714203167126, 1.3153169634641273)	(2.3506902707151873, -7.1336846426693974)	1.0	slash	1.88788
28	N	B	A	A					M	4	1	shapes	B	7	False	87	(4.6478172720211663, -4.4517758514829522)	(7.7112405690781145, 2.8135383708702797)	(-6.1375416675658911, 8.2293757740710305)	(-0.12139856178629849, -5.9781586143495486)	1.0	slash	0.633229
29	M	B	N	A					A	4	3	shapes	A	7	True	87	(4.9418877249584856, -1.214955801413435)	(-0.84292358985945626, 7.1565804337344634)	(-5.8512956539203085, -4.1522747974904703)	(4.8434487480410269, 4.2965108928773734)	1.0	z	1.07768
30	N	A	A	M	M	N	B	B	B	8	6	shapes	B	7	True	87	(0.92937065424546539, -6.7479218315643852)	(2.3493656236170199, -0.18675548189174407)	(-4.0386751459748327, -3.8842559793407894)	(-6.5775957926060462, 0.2830457007492857)	1.0	z	0.984537
31	M	B	N	B	A	N	M	A	B	8	5	shapes	N	7	False	87	(-2.2048159173978172, -6.0647623438664837)	(4.9180242798505027, 6.273689535047863)	(8.2083699675019943, -7.0455253450566886)	(-5.0137367209461026, -0.17898232824407678)	1.0	z	0.736321
32	N	B	B	N	M	M	A	A	M	8	0	shapes	N	7	False	87	(5.5951994259631075, 5.8820968600209351)	(-3.289569872079757, 3.3348503249891621)	(-2.6546651778913049, -2.3165657429835651)	(8.4694793693552377, 0.53021521061960009)	1.0	slash	1.31601
1	N	B	A	B	A	N	M	M	B	8	3	shapes	B	8	True	87	(4.8273528235868017, 6.5036011553262796)	(2.495428528945606, -2.7980470894689526)	(5.755220404369906, 2.0181266741457602)	(-0.63083454320261012, 4.6765870613985996)	1.0	z	0.883621
2	M	A	N	A					N	4	0	shapes	M	8	False	87	(6.4622394240545997, -4.3246579448915767)	(7.337154122038104, 0.87735445848549887)	(-0.16765728457760964, -5.8101801014104542)	(-1.0816806121442157, 7.8002821265970645)	1.0	slash	0.893364
3	N	A	A	B					M	4	0	shapes	N	8	False	87	(-1.1150110714512573, 8.0274660188564972)	(-6.0459623743126514, -7.691806673217374)	(1.4979131112598676, -6.7142008810785647)	(2.6232251814518559, 4.5903399015279689)	1.0	slash	0.916985
4	M	B	B	N	M	A	N	A	M	8	7	shapes	A	8	False	87	(-3.5877734671691304, -6.2779226307242553)	(-5.862614228899103, 0.66922908552566795)	(-0.34541577165753878, -1.2096531944441056)	(-0.83930539844663699, 8.234141688229375)	1.0	z	1.05055
5	N	B	M	N					N	4	0	shapes	N	8	True	87	(-4.8342154848237708, -1.8682944959551904)	(6.4162655621704605, 0.58426741782920288)	(7.6140960159534465, -4.0911642874030569)	(-8.2425050628961749, 8.4059560485197551)	1.0	z	1.44207
6	M	B	M	A	B	A	N	N	B	8	5	shapes	A	8	False	87	(4.4427499620666673, -3.0208204407354309)	(-4.4590521019334401, -2.1597149043617891)	(-6.5829960483743122, 1.5265772269895166)	(-6.3378380506598226, -7.5247444787188531)	1.0	z	1.37376
7	N	A	A	M					M	4	2	shapes	A	8	False	87	(6.420623651352944, 7.4352754833124592)	(-1.8455495089347229, -0.35917772823900762)	(3.3826547533399847, -6.5722122940812753)	(-0.38440055858715461, 5.7996304659193001)	1.0	z	1.52512
8	M	B	A	N					M	4	1	shapes	B	8	False	87	(5.3341217996286296, -2.3092895776380411)	(-1.9734735208099305, 1.8820907942973317)	(-4.3285086648224871, -3.7100505990984427)	(8.4360995163475714, 1.6939960289414682)	1.0	slash	1.35302
9	M	B	N	A	M	B	N	A	N	8	7	shapes	A	8	False	87	(-5.5735589964406795, -2.6111864652604915)	(4.5742773716763434, -0.28657562985226726)	(8.4825712718177293, -5.6623261221946803)	(-3.9213745050246844, 4.9891083982028483)	1.0	slash	1.73247
10	N	A	M	B					N	4	3	shapes	B	8	False	87	(5.6010266822726233, -6.6450749168753473)	(-5.7702282573170054, -5.1854041079191964)	(-3.3536882454964223, 6.9892190871609614)	(4.9198417362279034, 3.441663007508474)	1.0	slash	1.60437
11	M	B	M	A	A	N	B	N	N	8	7	shapes	N	8	True	87	(4.5030148791663169, -1.4296784866580721)	(-2.385224386110119, 5.428597021176051)	(-1.0400871719766345, -4.8144790613484885)	(6.0693522519018952, -6.6171334579033649)	1.0	z	8.84755
12	N	A	B	M	N	B	M	A	N	8	4	shapes	N	8	True	87	(-2.4479874484747661, 5.1958170488305324)	(-8.2041069977661358, -8.055961515263558)	(7.3324221575395967, -1.0282252076667664)	(-6.2667127937566676, -3.2003602959711301)	1.0	z	0.922886
13	M	A	A	B					B	4	3	shapes	B	8	True	87	(-7.6599748637137139, 7.8349382986332614)	(1.3171717313051232, 7.4559717433189121)	(2.2564523553566591, -4.3541856845063709)	(-6.3396234944343064, -3.5027293738958649)	1.0	z	1.70854
14	M	A	M	N					B	4	2	shapes	M	8	False	87	(-2.5556196591760223, 7.9961785743943672)	(6.1516105554394347, 4.6720307185646881)	(-8.5638985078441276, -1.8847725551818559)	(8.3058629554815759, -4.1075833391051644)	1.0	z	1.4481
15	M	B	B	A	N	A	N	M	M	8	7	shapes	M	8	True	87	(-8.0207499279669658, 6.0716885773940419)	(6.2184191547024756, 3.4551601001782597)	(-3.6297842001388858, -6.8672518738129851)	(1.1315755714044062, 5.4832230936578803)	1.0	slash	1.1559
16	M	B	M	B					M	4	2	shapes	M	8	True	87	(1.0021698061180899, 1.8525642580809194)	(-4.3908883328166342, -7.7864564537589356)	(2.0294793459196967, -5.2539795215303338)	(-0.085459987943373505, 7.8918613720764519)	1.0	z	1.0792
17	M	A	M	B	N	N	B	A	B	8	2	shapes	M	8	False	87	(-4.4645228910481176, -1.7531666570038009)	(-0.12823918690943259, -5.3767159655071444)	(-2.581435110613457, 4.8762576803808066)	(-8.0661496078944328, 1.3126027519582131)	1.0	z	0.78685
18	M	B	M	N	N	B	A	A	N	8	3	shapes	N	8	True	87	(-1.3810365558493549, -3.9294130907113551)	(6.8084694562543007, 4.8345529443358046)	(-1.5292610672939331, 7.2517791894166628)	(4.7022669514491096, -0.50505541229130735)	1.0	z	1.09065
19	M	B	B	N					B	4	1	shapes	B	8	True	87	(-5.5057087882810016, 5.9055219823559995)	(3.1073722999985165, -3.309068404558138)	(-0.25733155288742182, -0.95770903233851357)	(2.8835140070431802, 7.7122360891121247)	1.0	z	1.25027
20	M	B	M	A	N	N	A	B	B	8	7	shapes	B	8	True	87	(0.91084095208505111, -5.2832377379397473)	(-2.2452630839932075, -8.3678061647111743)	(-6.5979341710993467, 0.83084612272413416)	(6.9247432099414663, -7.0110193083084162)	1.0	z	0.824478
21	M	B	A	M					M	4	1	shapes	B	8	False	87	(-4.4663982657432557, 7.9225965724019929)	(-5.315333522202728, -1.3763431064431924)	(0.22777843264647579, -0.25428086988121912)	(5.0078936864817507, 3.6146520065274306)	1.0	slash	1.2995
22	M	B	M	N	A	A	N	B	B	8	2	shapes	M	8	False	87	(0.42709466734734036, -0.87336998586140258)	(4.0594082444247555, 1.0688375537146992)	(4.4401807934814546, 7.1322106465574979)	(-0.018736842790602282, -6.4326282573315972)	1.0	slash	1.26904
23	M	A	N	N	A	M	B	B	A	8	4	shapes	A	8	True	87	(-2.9277910275798797, -7.1896382372050542)	(4.607351237918504, 6.0163856394894246)	(3.433850486845861, -0.16649669613251739)	(-8.5973960184545604, 7.8589309247968799)	1.0	slash	1.53265
24	N	A	A	B	M	N	M	B	N	8	7	shapes	B	8	False	87	(-7.9034418958550461, -3.9852949995301072)	(4.9599040215971417, 3.1043292554462187)	(-0.01459310597906871, 5.2810286076651245)	(7.2836207551158125, -1.3835104120297901)	1.0	z	1.38227
25	N	B	B	M					A	4	3	shapes	M	8	False	87	(2.3240393498221934, 8.3120228996938366)	(8.6112784335861008, -5.5943982600279449)	(-5.8346862636022054, 5.8908358617127359)	(-6.6592901501640718, -5.1288832826523301)	1.0	slash	0.691907
26	N	B	N	B					B	4	3	shapes	B	8	True	87	(-0.74933054326910664, -3.7165464968790873)	(-4.3582193936117379, 7.2608779928074938)	(3.6140681255819089, 2.8716022832294676)	(8.0911215314128171, -6.1049596976022968)	1.0	z	2.51552
27	N	A	M	A					N	4	0	shapes	N	8	True	87	(-4.5167089459977801, 0.95981752644710028)	(6.0364256917342107, -3.0185148619729087)	(-0.94745481537064258, -6.6062906404412374)	(5.9523685899778407, 4.3982555694801828)	1.0	z	1.89503
28	N	B	A	M	A	N	M	B	A	8	4	shapes	A	8	True	87	(-4.0917397381518805, 0.55817860983624534)	(-2.4450169488545592, 8.3492628387456271)	(8.2798526221883044, 3.3711456315194308)	(6.0992857709685513, -2.1424544234568925)	1.0	slash	1.57691
29	M	B	N	M	A	A	N	B	M	8	1	shapes	B	8	False	87	(4.666164921633472, 0.50645729840679365)	(4.2356175785987844, -5.0659009231316388)	(8.4716410115698331, -8.2311116397697521)	(6.0904760871035304, 4.7820473457355401)	1.0	z	4.85018
30	N	A	B	N					B	4	2	shapes	B	8	True	87	(-2.1756415181582129, 4.4290332313561791)	(-2.8331676525102001, -3.6798355950038104)	(2.1296922042975197, -3.8033500123409532)	(0.1629391593907652, 8.2796923182593645)	1.0	z	1.20157
31	M	A	A	M	N	N	B	B	N	8	2	shapes	A	8	False	87	(6.9605101268859784, 7.8725775699333163)	(8.3135460216881505, -0.13345638175029961)	(-2.9184196734985273, -5.2199611525537488)	(-6.4275849192783951, -0.964269487137841)	1.0	slash	1.06704
32	M	B	A	M					A	4	2	shapes	A	8	True	87	(-1.7398865248034285, 8.0491670615443773)	(8.7084456470797065, -0.47425485088085395)	(5.6690186060691783, 6.3671526486040726)	(-7.4507993681678064, -4.6904898854900452)	1.0	z	1.1447
