TrialNumber	stim0	stim1	stim2	stim3	stim4	stim5	stim6	stim7	stim.probe	ttl.stims	corr.num	trial.type	stim.corr	block	match	Subject	stim.pos0	stim.pos1	stim.pos2	stim.pos3	ran	resp	RT
1	N	A	B	N					A	4	2	shapes	B	Practice	False	89	(-1.5496161181510226, -1.7779038928947299)	(2.5339566232465991, 7.8484433996263583)	(-6.5034654460040153, 3.804716575273277)	(7.7218498677782605, -7.8693070704748518)	1.0	slash	10.6275
2	M	A	B	A	M	B	N	N	M	8	3	shapes	A	Practice	False	89	(6.3412783327167457, 0.22096336922917992)	(-7.6909334451384019, 4.9550038052068768)	(-3.2769124397633815, 3.3030000085553759)	(7.7807512455808556, 4.5228484823254256)	1.0	slash	4.50167
3	N	A	N	M	M	B	A	B	B	8	7	shapes	B	Practice	True	89	(6.7977151970097189, 2.006147440785746)	(-6.8483461106429395, -8.2253770901745842)	(1.4051341959504065, -5.9335878171946863)	(-0.2317198527293538, 2.0876147963722111)	1.0	slash	1.66906
4	N	B	B	A					A	4	0	shapes	N	Practice	False	89	(-4.2903298152259248, -3.4064735376775079)	(-3.1221667061159462, 3.8041466347623274)	(5.2165528430010912, 6.240773115437884)	(6.4172263307182327, -4.1383379193685235)	1.0	slash	1.56048
5	N	B	N	B	A	A	M	M	A	8	3	shapes	B	Practice	False	89	(2.8586379477226966, 4.5595984118439556)	(-7.0891806648616766, -4.4652950875383697)	(6.7018545177970967, 5.9373907621530684)	(-1.10232459777255, 0.28258971349079154)	1.0	z	1.15038
6	N	A	N	M					N	4	0	shapes	N	Practice	True	89	(6.8894986032458636, 4.1674346965155955)	(0.79808617871110243, -3.1652388332688641)	(-7.9976583796735632, -1.5050821980150815)	(-0.48240311608837594, 1.5393846517146486)	1.0	z	2.96975
7	N	B	B	A	M	N	A	M	N	8	0	shapes	N	Practice	True	89	(-6.8830687470062397, -0.60477020506349888)	(-2.7847964983979923, 8.0152780507915757)	(-1.7927568946680221, 3.3336546341511184)	(7.6113566242159436, 1.8132707357543545)	1.0	z	1.6675
8	M	A	M	N					M	4	2	shapes	M	Practice	True	89	(7.8637206081743152, -4.3293744795894566)	(-7.9196720300519647, 6.0491637704686134)	(7.8461386728569451, 3.7687648743801336)	(-4.8001343080838943, -5.7028223868684274)	1.0	z	1.20105
1	N	B	N	M					A	4	3	shapes	M	0	False	89	(-0.72039551360639464, 4.542312437037987)	(0.95344966478746507, -4.3706266197414614)	(3.6157965501770377, 0.51890555169754649)	(-6.7879549054168713, -4.9875272075052592)	1.0	z	1.96779
2	M	B	M	A	A	B	N	N	B	8	5	shapes	B	0	True	89	(2.9828118466757481, 2.4008181380969038)	(-6.7661837288590538, 7.5130652886332427)	(-5.5009096280562719, -7.2811517594926087)	(-1.9767661556478924, 8.412570159387009)	1.0	slash	0.755238
3	M	A	N	A	N	M	B	B	B	8	7	shapes	B	0	True	89	(1.466444768626106, 3.8235010372823819)	(7.7149262201160376, -5.1395784960520743)	(5.829728119423665, 0.51565480710272737)	(-0.19770697116718949, -5.1498942949952049)	1.0	z	0.953119
4	M	B	B	N	A	M	N	A	A	8	4	shapes	A	0	True	89	(-2.5937553107758866, -3.325782964900438)	(2.0377951546851101, 8.0726004449990008)	(8.5223262669329465, 2.9845787075939274)	(-6.4303677935203627, -6.4845166135881254)	1.0	z	0.702606
5	N	A	A	B					N	4	0	shapes	N	0	True	89	(-2.0748186881569355, -7.0066413691942877)	(-6.7465229252764054, 2.1588076901892315)	(8.3939026858231394, -7.0734229699656552)	(1.1418753888995923, 0.2571016516532687)	1.0	slash	1.02015
6	M	A	A	B	N	N	B	M	B	8	3	shapes	B	0	True	89	(-7.6391387697335897, 1.0072165687558936)	(-4.8339507492637477, -8.5574718183809786)	(7.1961554731559847, -5.9454911676143141)	(4.6280850485565548, 2.3633786514997208)	1.0	slash	1.42201
7	M	B	A	N					A	4	2	shapes	A	0	True	89	(7.6317842058696108, -8.5903306499341436)	(-8.5098565617037227, 7.4374736423813594)	(-1.3927298819199416, -6.7711522309073304)	(7.5439042736337854, 5.4132871728907883)	1.0	z	0.69946
8	M	B	M	A	N	A	N	B	M	8	3	shapes	A	0	False	89	(-1.109262305573572, -5.2282616340235428)	(2.194198044953291, 6.9730553592029434)	(5.4953123727248343, -7.700804608214316)	(0.75094060611617763, 3.2353729612045257)	1.0	slash	1.07688
9	M	A	N	B					N	4	2	shapes	N	0	True	89	(6.5834471753897397, 1.0166787914897704)	(-6.8952244698569025, 6.713948208808949)	(4.8826649066162595, -7.6310232413268881)	(-2.4650307919677106, -2.9466968751350571)	1.0	z	3.33475
10	M	B	A	B					A	4	0	shapes	M	0	False	89	(-7.1176923728419021, 5.9281028715622419)	(7.146526843450971, -6.187320662927128)	(7.4724485366674926, 7.7270092081936816)	(-2.7124031281270877, -3.3869705877863909)	1.0	slash	0.635927
11	N	A	M	A					A	4	3	shapes	A	0	True	89	(-0.83329871359656948, 2.4420752347153005)	(1.2782474399431027, -6.7642711665939528)	(-4.9447349245458563, -6.6014577555068676)	(4.0303605053501315, 3.5012155386217927)	1.0	z	0.87198
12	M	B	B	N	A	N	A	M	B	8	4	shapes	A	0	False	89	(-5.9535501713484376, 1.9293690356609812)	(-1.3611188835884658, -0.85896786663793279)	(6.804318795834801, -1.3112153680853451)	(-0.90493611997999857, 3.2289374709887788)	1.0	z	0.985631
13	M	B	N	A					M	4	1	shapes	B	0	False	89	(-6.8177383065151238, -6.3978633387464932)	(2.9840166715796244, 0.026185250615071709)	(-0.50723099464815213, 5.3327647491560182)	(7.2894722468801874, -1.7860737409857661)	1.0	slash	0.687284
14	N	B	M	A					M	4	0	shapes	N	0	False	89	(5.7449697281255894, 4.9086373231070564)	(1.7138355260011267, -5.5086750537068321)	(-0.59900226938895962, 1.8549008062652614)	(-8.7045481831965894, -3.7455496663405521)	1.0	z	0.544909
15	N	B	B	M	M	N	A	A	M	8	3	shapes	M	0	True	89	(1.7541399903833188, 8.6845392295151171)	(-1.1438620175780434, -1.864010942468239)	(-7.0998793054705036, -5.6285472059643968)	(-5.9202123699154914, 1.401708410272505)	1.0	slash	1.04855
16	M	B	N	M					A	4	3	shapes	M	0	False	89	(1.9251237116166653, 2.191539942361695)	(-7.7518834854646892, -8.6790908943539211)	(-0.77654818793321834, 8.4051882052809965)	(8.1546987825372277, -0.44659838998174273)	1.0	slash	0.990112
17	M	B	N	A	N	A	M	B	A	8	3	shapes	A	0	True	89	(5.3741638786210011, -8.1254813492358533)	(-0.97674753745431708, -8.7367320843917931)	(-0.28381645694210889, -4.5944974806606416)	(4.1246853439164415, -0.96750693484581696)	1.0	z	0.853789
18	N	B	A	B					N	4	0	shapes	N	0	True	89	(-6.7602003043374861, -8.5161963679978037)	(4.4850778196642729, 7.7625796486382441)	(-2.6984922736604871, 5.1916565580470735)	(1.6830699130409279, -7.2832730656328444)	1.0	slash	0.597702
19	N	A	B	N	M	B	M	A	B	8	4	shapes	M	0	False	89	(-1.4112271219732113, 4.1176224111381305)	(-8.5969115803889196, -5.8745418265957383)	(-0.49598954575502496, -2.9119176640407094)	(7.0167714907778098, 7.1864852419433038)	1.0	z	0.881174
20	N	B	B	A					A	4	3	shapes	A	0	True	89	(-5.9704039775551658, -2.3465767145738301)	(-7.3269954041735623, 4.1157033284779985)	(0.7712967174153107, 2.8058128796185322)	(4.0781036560234742, -3.5968762202800688)	1.0	z	1.6749
21	N	B	A	M	B	A	M	N	N	8	7	shapes	N	0	True	89	(-7.6983116612543565, 4.952585631705043)	(-0.022245618645223786, -0.78592370431653347)	(0.97151456689165983, -6.7342704616342157)	(6.4891851184733849, -3.1822043337628632)	1.0	z	0.712465
22	N	A	B	M	M	B	A	N	A	8	0	shapes	N	0	False	89	(-1.7172850587233519, -7.705632144689738)	(-6.6100928938513324, -0.51793367266369295)	(3.2735209290520793, -6.0328882668856565)	(7.8647302667164247, -0.23102555030861716)	1.0	slash	1.09223
23	N	A	N	B	B	A	M	M	N	8	5	shapes	A	0	False	89	(6.739227588694277, 6.39370154759788)	(-6.9240980095297591, 4.4822429565528292)	(3.6717778479195413, -3.4407327246644286)	(2.8139548349800165, -8.2545639621759026)	1.0	slash	1.06962
24	M	B	N	A	A	B	M	N	B	8	4	shapes	A	0	False	89	(1.1780133169207474, 3.9444231242840839)	(-0.39611230844055179, -7.3129658196919536)	(-7.6434176408690657, 0.16569979491801767)	(7.9064714559218885, 0.38897247167018989)	1.0	z	1.04123
25	M	B	B	N					A	4	3	shapes	N	0	False	89	(-1.3306905661358996, 4.7366686799909754)	(6.3558528086730153, 1.5610608952102272)	(-1.3590211652523188, -2.4461678433471441)	(5.3143087885065849, -4.6254701508882041)	1.0	slash	0.868802
26	N	B	M	M	N	A	B	A	M	8	2	shapes	M	0	True	89	(1.4236185077808106, 7.8762255793472171)	(6.3818476899206349, -1.2083693776297126)	(1.2476851925916641, -0.73874296690880747)	(-2.6836929586779181, -7.619643840099779)	1.0	z	0.856744
27	N	A	N	B	M	A	B	M	A	8	7	shapes	M	0	False	89	(-2.2249875668186121, -7.6552271777599445)	(-4.9523948910455875, -4.5578364603321138)	(1.3909753043572088, -4.9237332734257642)	(-4.7835297368300536, 1.7286526771614277)	1.0	slash	0.724125
28	M	B	N	N					A	4	2	shapes	N	0	False	89	(-4.3552688450888306, -7.1894285245246232)	(4.206860545158511, -5.5884400497408624)	(2.2421752815790992, 1.6092295511610271)	(-6.8941318970537644, 1.1194953685900746)	1.0	slash	1.08569
29	N	A	A	N	M	B	B	M	A	8	5	shapes	B	0	False	89	(-1.1863231892949031, -7.1816625461890604)	(4.3212533630934171, 8.7208029408721437)	(-7.0728122950261705, 0.71946804525638619)	(4.8024686164807626, -1.4785675040706909)	1.0	z	1.7914
30	M	A	M	B					M	4	3	shapes	B	0	False	89	(-2.1901000190898268, 4.0321885124970134)	(1.58827634897232, 2.0364733202978726)	(7.4025640766545671, -2.5262259051932823)	(-8.3690395146022549, -8.4002237352433813)	1.0	z	0.906908
31	M	A	N	N					N	4	3	shapes	N	0	True	89	(-0.73018766785080835, 1.5417655823296883)	(-6.2735231606644719, -1.8292415780022004)	(8.4529292622005094, -5.9571566740495836)	(0.80859508809824376, 8.0827738149606567)	1.0	z	0.688602
32	N	B	N	B					N	4	2	shapes	N	0	True	89	(-5.8066480884614435, -3.3509082929257357)	(2.8897902067156238, -8.1397529869211418)	(-4.3772587987311047, 5.5250191862112938)	(2.993069560795826, 6.7267477245564642)	1.0	z	0.792164
1	N	B	M	M					A	4	0	shapes	N	1	False	89	(-5.0281449243407144, 3.3418330278943227)	(2.7242442738744543, -5.2964143337251173)	(4.875717113852124, 8.1388945165637736)	(-8.4734403900490847, -1.2304976671322283)	1.0	slash	0.656047
2	N	A	N	A					B	4	3	shapes	A	1	False	89	(0.76382236916085589, -0.10524569450617172)	(-7.0736925368772781, -6.0835859702429591)	(-2.4191057897226367, 2.9289969067904522)	(7.2928971844972352, 8.3121354259561677)	1.0	z	0.903686
3	N	A	M	B					B	4	3	shapes	B	1	True	89	(-4.4134609487718999, -1.4081245190980924)	(6.9075563085942573, -6.0486698013908153)	(-4.3021711037387043, 5.6254484797512472)	(2.5814685443423606, 0.12553666951097497)	1.0	z	0.901362
4	M	A	N	N	A	B	B	M	A	8	1	shapes	A	1	True	89	(8.39134438851897, -5.6733073646195278)	(7.740308285326428, 4.7418080273508476)	(6.1332991043805993, 8.6448779077343758)	(-0.75652382498874449, -2.8378071350741916)	1.0	z	1.1084
5	M	A	M	B					M	4	2	shapes	M	1	True	89	(3.4168856616550602, -0.53629683290998287)	(-0.26423404964627828, 6.3991866449448001)	(-0.043283800717009768, -3.0945471207388779)	(7.1102227291404159, 2.9977428630736931)	1.0	z	0.792316
6	M	B	M	A					M	4	2	shapes	M	1	True	89	(-5.9877021608620371, -7.9319988109801844)	(-7.3205936624223078, 2.0702995350039473)	(6.1084802497689914, 6.9167141987907872)	(0.48125317302614334, -5.0108540534685222)	1.0	z	1.01614
7	M	B	A	B	N	M	A	N	A	8	6	shapes	A	1	True	89	(3.850831266394712, -3.5303908078090904)	(-8.6263082613940814, -2.4080654389803744)	(-8.5270644078900926, 8.0655008900072467)	(4.7188945552815937, 5.6928559630476627)	1.0	z	0.753806
8	N	B	M	M					A	4	3	shapes	M	1	False	89	(2.4637647249994412, -8.7377156422780615)	(-7.4739593973333678, -1.8814631635102188)	(1.8913430033202534, 8.3863407787695223)	(-3.2716512862067697, 7.9014710633357303)	1.0	slash	0.733569
9	M	B	B	M	N	N	A	A	B	8	5	shapes	N	1	False	89	(-0.79975657519589483, -4.3818375199066955)	(-0.25643228447941091, 3.2883709334325228)	(-3.535838507164069, -8.1613214607683275)	(4.9951797390054651, -8.4853026097659328)	1.0	slash	0.839132
10	M	A	N	B	B	N	M	A	A	8	0	shapes	M	1	False	89	(6.8343741775868665, 6.3979568307404282)	(-2.6357364677902719, -7.5177068304485148)	(-4.312029913415091, 7.4954350414658322)	(0.62475188402803283, -3.0733373587347677)	1.0	z	1.19681
11	M	A	A	M	B	B	N	N	N	8	6	shapes	N	1	True	89	(0.74244965745318936, 7.2056847422924104)	(-3.6050447058109993, 7.0491399711329255)	(4.2272852912744874, -3.8339568131251589)	(0.052734311057548666, -2.992671748660249)	1.0	z	1.09835
12	N	B	N	M					M	4	2	shapes	N	1	False	89	(1.161569626201695, -7.656383069904134)	(5.7630175238911061, 5.4026255826409688)	(-2.7770499437549478, -3.6169110793010937)	(-0.60549043457049834, 3.3471529047689987)	1.0	z	0.599976
13	N	B	M	M	B	N	A	A	A	8	3	shapes	M	1	False	89	(-7.2612345762708985, -6.2894175576919507)	(4.7412854660739665, -6.1208626016109697)	(-5.0638908236162647, 2.139435279458791)	(-1.2280894973624301, -0.27123135224133677)	1.0	slash	0.677759
14	N	B	N	A	A	B	M	M	N	8	6	shapes	M	1	False	89	(-1.9860203281137112, -6.646792936798974)	(-5.2151441103542284, 8.2498006411144473)	(6.9509972818275241, 3.4574361732862435)	(-8.6773850344070276, 0.47250501778868959)	1.0	z	0.937228
15	N	B	N	B					B	4	1	shapes	B	1	True	89	(-5.1645836562212786, 1.1183712344412733)	(7.9918622319704653, -0.81137299079546565)	(1.4547539154055773, 6.9555376859341305)	(-3.5602851670559161, -3.5189475826305134)	1.0	z	0.968904
16	N	A	N	B					A	4	2	shapes	N	1	False	89	(-4.2288770351709104, -2.0494552172621265)	(-7.0623503660235087, 5.1333570961050761)	(6.2848944538754097, -3.57865665137472)	(5.8245855992570998, 5.1452294670358434)	1.0	slash	0.824625
17	N	A	A	M					B	4	0	shapes	N	1	False	89	(0.6855051908448786, -6.0582194669191711)	(-5.2349983119533929, 3.4331184485692621)	(-2.6776001818105701, -0.63189326331658435)	(4.7819373059354842, 4.743389484056495)	1.0	slash	1.75813
18	M	B	B	M					N	4	2	shapes	B	1	False	89	(-1.2096356057255582, -4.4233939629961956)	(-3.2223820697644037, 7.2842710970388715)	(7.0163577972501763, -4.959982287022962)	(4.0198807530959133, 7.7078702015967941)	1.0	slash	0.743855
19	N	B	A	M	N	B	M	A	N	8	0	shapes	N	1	True	89	(1.7998914535701633, 8.3237257003810718)	(3.0792531191660668, -8.4286255096540241)	(8.5424464264466771, 0.59248526523978029)	(-0.066369862460087248, -5.8707532226944776)	1.0	z	0.909534
20	N	B	A	M					M	4	3	shapes	M	1	True	89	(-7.7145399065735134, -2.0776723263882344)	(-7.563355156403099, 5.679372289746258)	(5.8470833552876051, -0.25681469880460206)	(2.0962635660961144, 6.0683724715297966)	1.0	z	0.817197
21	M	B	M	A					A	4	3	shapes	A	1	True	89	(-6.2650891114090728, -7.2025263009021874)	(2.8486203970624757, -0.24568707264618617)	(1.5010899068468841, 6.8586718437515053)	(-3.0495538337019283, 6.9750040037480847)	1.0	z	1.09886
22	M	A	A	M	B	N	B	N	N	8	3	shapes	M	1	False	89	(-5.1509913950066792, 2.3621395779659373)	(6.2034507433655914, -2.5366756650394908)	(1.8322743317141814, 0.86599430391081711)	(5.2623605527392439, 8.1901579533454232)	1.0	z	0.888384
23	N	A	N	M	A	B	B	M	N	8	2	shapes	N	1	True	89	(8.2838230609093593, -5.4353413313766987)	(-7.3743363786989775, -5.000272198514824)	(-0.87065914788298482, -0.73367022382775993)	(8.2357457648778585, -1.3140491964697665)	1.0	z	0.987883
24	N	A	M	B	A	N	M	B	M	8	2	shapes	M	1	True	89	(-7.7433057287978375, 3.5705981101118791)	(8.3086960819525686, -4.9031591552509877)	(-4.6896047420808555, -1.162096420393989)	(-3.8928629030449962, 5.1258035768532935)	1.0	z	0.690263
25	N	B	A	B	N	A	M	M	A	8	6	shapes	M	1	False	89	(-1.9346182354294248, 2.7524463109688977)	(1.0371614500978943, -6.4182021641117721)	(-7.9637358869603307, 1.7041218852417366)	(-7.2416573808083609, -2.8333404395262614)	1.0	z	1.02921
26	N	A	M	A	M	B	N	B	B	8	1	shapes	A	1	False	89	(-7.7990749700102073, -1.0993129926005585)	(-0.79893630408279392, 0.28370071981041001)	(4.7696391965190887, -2.3735410547969353)	(-5.4290645656562422, -7.0308842976156818)	1.0	slash	0.765105
27	M	B	N	A	M	N	B	A	A	8	7	shapes	A	1	True	89	(8.2884935395357857, -2.6098271666735418)	(7.0275100005436428, 7.7745692614831476)	(3.5791596689461596, -7.1370853857462961)	(-0.12575103757480832, -1.5670896174691515)	1.0	z	0.840508
28	M	B	B	N					N	4	1	shapes	B	1	False	89	(4.5421246818341405, 2.9950666095014054)	(-6.798606704063836, 7.2679234657849392)	(-4.9055444208116015, -5.6543303410919581)	(5.139120435540617, -4.4657791286766484)	1.0	slash	0.562344
29	N	A	N	M	A	B	B	M	N	8	1	shapes	A	1	False	89	(7.096796075635023, -8.0565541802899947)	(7.3491598814131045, 2.9707361811664725)	(-3.6367238563644291, -0.76440842022365807)	(-3.3393646219290805, -6.305498426314383)	1.0	slash	0.93194
30	M	A	M	B	B	A	N	N	N	8	7	shapes	N	1	True	89	(-1.1042582720978693, 4.9211022881838122)	(2.8660632090895586, 6.9355795229161643)	(7.836683632462865, 2.2682747455653232)	(-3.5171013602649994, -4.2308644082998565)	1.0	z	1.12563
31	M	B	A	A					A	4	3	shapes	A	1	True	89	(8.6955388214267373, -0.43566253728423554)	(0.91611929240487022, 2.5757483368119711)	(-2.7282310488017192, 7.2141589751301503)	(-2.7305962230632552, -3.2213466042192813)	1.0	z	0.687116
32	M	B	N	N					N	4	3	shapes	N	1	True	89	(4.2097777717495379, -6.7541852584883939)	(-6.8092139289399238, 3.1084896845411194)	(-3.8316874236827694, -1.018934322200499)	(5.0582664971322675, 1.0671416695698888)	1.0	z	0.656894
1	M	A	M	B	N	N	B	A	N	8	4	shapes	N	2	True	89	(3.4010052449760693, -6.0519720912287021)	(4.4871792824450232, 4.0937416668281763)	(8.6134335447735104, -2.7317851799887709)	(-2.6733317786042541, -2.9024065631549272)	1.0	z	0.870044
2	M	B	B	M					B	4	2	shapes	B	2	True	89	(-0.17538852560165274, 4.2457284580888413)	(3.0470538413912802, 0.52959237992951813)	(-6.6103296492881025, -7.5108422130777033)	(2.190793470835537, -6.1376050472992869)	1.0	z	0.715618
3	N	B	B	M	A	M	N	A	N	8	6	shapes	N	2	True	89	(-5.1668441088875756, 1.8931739452210152)	(8.4601971692988549, 5.5726878238071418)	(-6.7636163524125523, -7.6105384129930957)	(0.91394663736378945, 6.002594192654799)	1.0	z	1.11387
4	N	B	N	A	M	M	A	B	M	8	5	shapes	M	2	True	89	(3.5573070819624864, -3.7586516446023914)	(-6.4342628891494806, 6.7036478855528578)	(7.6013533847603618, 3.8882253311855095)	(-5.3877695807064381, -7.3691348977537343)	1.0	z	0.785458
5	M	B	B	N					B	4	1	shapes	B	2	True	89	(-2.218215980571399, -6.280234558058881)	(2.3337987292470057, 4.947628812579639)	(-4.3781613070009833, 4.2584355438829213)	(0.90217088318130934, -2.7840140927965482)	1.0	z	0.735165
6	N	A	N	M					B	4	2	shapes	N	2	False	89	(-4.2631315560871723, -2.010147582273687)	(1.553047611277746, -7.8690787786791585)	(8.0818504045157979, 8.2425001060755285)	(-8.3799492784916829, 2.3995717527054623)	1.0	slash	0.658741
7	N	A	B	M	B	N	M	A	B	8	6	shapes	M	2	False	89	(-6.7695426323362407, 8.1398170223713819)	(0.42439594323923657, 6.7070006131864819)	(5.0639773829803811, -3.4361320259679227)	(1.9373221025048544, -7.9519171923192893)	1.0	slash	0.900479
8	M	A	A	B					B	4	3	shapes	B	2	True	89	(-4.6715022498957417, -3.9840505836910749)	(6.242285903588888, -2.7524014726236157)	(7.9797717318330896, 8.4523729814968647)	(-7.6383658506649486, 7.1592956007697257)	1.0	z	0.69007
9	M	B	B	A					B	4	1	shapes	B	2	True	89	(6.8897120205623832, 1.6961622084946892)	(2.4660196669230494, -4.6144751336602399)	(-0.6047024935416605, 6.0862942412919754)	(-1.4507009359728569, -3.2698733319610156)	1.0	z	1.11378
10	M	A	B	M					M	4	1	shapes	A	2	False	89	(-6.8014242507049296, 7.8595066262094804)	(-3.0372188952696026, -5.8438920003161368)	(3.2696586098013469, -1.5859144840481028)	(8.5212654241561339, 8.6788843409686116)	1.0	slash	0.797403
11	M	A	A	M					A	4	1	shapes	A	2	True	89	(-5.5539836551612805, -0.35960293139465094)	(2.9331892468380438, 5.3425285727729115)	(4.5925012063033428, -4.536892268778538)	(-4.1980544670193654, 6.036933342582941)	1.0	z	0.663052
12	N	B	N	B	A	M	A	M	M	8	4	shapes	A	2	False	89	(-5.736906807436033, 1.361141572377667)	(2.6424348690386488, 1.6797370374398639)	(3.7332128818183232, -7.1860995233652538)	(-2.392335675712185, 6.7433592603102248)	1.0	slash	0.692542
13	N	B	M	N					B	4	2	shapes	M	2	False	89	(5.6557917394476931, 3.0528911131479539)	(-3.2282360424451628, -6.5298866092977432)	(2.7283717942759065, -2.8212080225439307)	(-6.3811637974202897, 7.5403012412109263)	1.0	slash	0.540269
14	N	B	B	A	M	N	M	A	M	8	6	shapes	M	2	True	89	(-7.8946280027656019, -2.447785355489394)	(0.84982828677201105, 0.513524669361896)	(-5.8599204165917245, -5.932537858869126)	(1.1878574817600658, -8.6117207311776802)	1.0	z	0.981922
15	N	B	A	N	B	A	M	M	N	8	1	shapes	B	2	False	89	(-2.6243840251729669, 5.9578712095043311)	(-0.28719864500643055, 1.0197302432934023)	(-8.0321064791264281, -1.4831021415492049)	(8.0477855217907539, 5.0786586352817267)	1.0	slash	0.557192
16	N	A	N	B	B	A	M	M	N	8	3	shapes	B	2	False	89	(0.37366380565847557, 6.8971272643057997)	(8.5085267346802382, -2.6023693909758601)	(-5.8807612817159889, -0.19464398721564358)	(7.1934875901610731, 4.6210914484293362)	1.0	slash	0.667423
17	M	A	B	B					B	4	2	shapes	B	2	True	89	(3.6727496698205968, 1.8732101557395495)	(-5.9478366492821522, -7.9819735281477397)	(8.5336476526281686, -4.0077203511494623)	(-0.32653060443414006, 5.9529839646483005)	1.0	z	1.03301
18	N	A	A	M					M	4	0	shapes	N	2	False	89	(-4.0825180184251755, 0.11048095488368759)	(2.4926866895135511, 2.4690725102971154)	(2.0377854215560784, -7.079057120097497)	(-6.5144070530938745, -3.9319943399250148)	1.0	z	0.73833
19	M	A	A	B					N	4	3	shapes	B	2	False	89	(1.226591221936868, 1.3985268364216044)	(-7.4301517600987861, 4.9271358519890178)	(8.2585274882209276, -4.2516928204819076)	(-2.6772762408760258, -3.4019523955727946)	1.0	slash	0.648212
20	N	A	B	M					M	4	3	shapes	M	2	True	89	(6.6331066365911067, -3.362052020837587)	(-3.9330848196752557, -4.8662155389801907)	(-7.7089965789119894, 6.2234444303562597)	(8.0963718088254772, 6.0037308875069844)	1.0	z	0.720029
21	M	B	M	B	A	A	N	N	B	8	3	shapes	B	2	True	89	(-3.7529836700615098, 2.5968144994302627)	(-4.5086571353035607, -6.3571757445783046)	(5.4773915689714343, -3.7424977233436767)	(-4.4624246914569508, 6.9730694038404319)	1.0	z	0.973628
22	N	B	M	A					B	4	2	shapes	M	2	False	89	(-3.4467329990960609, -0.035825392157175173)	(5.071752934725577, -0.33922330011145618)	(-2.469312833387991, 8.4285066559005664)	(0.48162722990937468, 4.6116962443136735)	1.0	slash	1.20526
23	N	A	M	M					M	4	1	shapes	A	2	False	89	(8.2122548217722517, -6.334116777930519)	(-2.3536844905938086, -8.3914142329291916)	(-2.5415377627664428, 2.5888883777024141)	(7.8893823539675054, 8.524648978264711)	1.0	slash	0.776875
24	N	A	A	N	M	B	B	M	A	8	2	shapes	A	2	True	89	(-8.6123387302758481, 5.5425704373201494)	(2.4813580704806117, 7.3844835585917536)	(2.6593469258270623, -0.20906848338496076)	(3.3123984105355753, -8.6485590086033959)	1.0	z	0.626513
25	M	B	N	N	A	A	B	M	B	8	0	shapes	M	2	False	89	(4.5157628866738637, -6.9906252324349021)	(0.76570955285623654, 2.6901992642220609)	(-2.5256328114536704, -4.8154383094876003)	(5.708951752614059, -0.17801158416493479)	1.0	slash	0.994047
26	N	A	A	N	M	M	B	B	N	8	0	shapes	N	2	True	89	(-1.6255135394274802, -1.2010084946925375)	(-6.4844580050254166, 2.5398144799676157)	(2.4200659127208546, 2.1042045772005835)	(-0.89103807709672633, -6.0319557666102117)	1.0	z	0.621944
27	N	A	M	B	A	N	B	M	B	8	3	shapes	B	2	True	89	(0.30198677486959369, -1.0450758211633335)	(8.3475643661800554, 3.993422841214235)	(8.0323497017520928, -7.812848826669053)	(-7.4590886648915404, -7.7507629102630693)	1.0	z	1.16553
28	N	B	B	M					M	4	3	shapes	M	2	True	89	(3.6993600746572, 5.8708394457865349)	(-6.0563334155682078, 2.9386093135399545)	(-1.0803402287839097, -4.4033471357870315)	(7.0148463082078436, -5.9645196947768948)	1.0	z	1.75889
29	M	A	A	N	B	N	B	M	A	8	7	shapes	M	2	False	89	(7.2801968222905948, 0.14749668585318965)	(-3.6786535817699226, -1.9027844066035158)	(-8.2198566193207725, -1.8436777694610935)	(-8.6371446371822458, 2.4498382055229122)	1.0	slash	0.844854
30	N	A	B	M	N	A	M	B	M	8	0	shapes	N	2	False	89	(7.282562712644026, -2.266372493827868)	(-7.7226227740906737, -3.6500282697490425)	(0.41202262615479412, -0.27453780087090784)	(0.060219893127774426, 8.6402490808176751)	1.0	slash	1.46235
31	M	B	M	B	A	A	N	N	A	8	3	shapes	B	2	False	89	(2.4498018504000054, 0.78643434013385694)	(6.0228418996944466, -2.2788800110509966)	(-3.2137607606973129, 1.3028142991616303)	(8.2096788258491991, 7.2970130281996717)	1.0	z	1.24582
32	N	B	N	B					A	4	3	shapes	B	2	False	89	(-4.237605076084332, 4.8382693396183747)	(8.2263247006329969, 1.4330330915048322)	(5.0491268946274808, -6.4939215336175486)	(-3.9692015621592827, -1.4290020847863136)	1.0	z	0.601525
1	N	B	A	B	A	N	M	M	A	8	2	shapes	A	3	True	89	(8.6414920204637085, -8.0104181917105244)	(7.5718964913173998, 7.9260537633437274)	(-8.2251287678703733, -8.5068728595945835)	(4.8335057903788581, -3.648845710983923)	1.0	z	0.987141
2	N	B	A	B	A	M	N	M	M	8	7	shapes	M	3	True	89	(-3.1692587365722673, -8.7123966018256542)	(4.6901058957609827, -7.4868775972519552)	(-0.14941750775446927, -6.0072065573780726)	(-2.3476165461094851, 5.9124181393675812)	1.0	z	0.698736
3	M	A	B	A					M	4	2	shapes	B	3	False	89	(-1.0555457381997586, -6.5978140455852987)	(-4.2353217111946284, 3.3898568642744209)	(2.7171065590575019, 6.1700568577335932)	(8.3691992711003529, -4.822737919382817)	1.0	slash	0.624709
4	M	A	M	N					A	4	2	shapes	M	3	False	89	(8.3684402032209526, -1.2473561757332945)	(2.4330889570261096, 1.17200477395766)	(-3.4802803755684053, 8.5519209662853939)	(-8.5845436600896345, -7.6155962513842077)	1.0	z	1.13399
5	N	B	A	M	B	N	M	A	N	8	0	shapes	N	3	True	89	(-5.9689635811310993, -8.4997997618342058)	(0.18067410184321631, -2.4305313337128505)	(0.50886667374112449, 2.2066327624882796)	(4.2358476050896829, 4.6835120259210719)	1.0	z	0.695893
6	M	B	M	N					N	4	3	shapes	N	3	True	89	(-3.0498460072445148, 4.6853020888119339)	(1.4648133143982065, -2.4469235506028859)	(-7.3450411597627507, -7.3303356024194457)	(0.3493041981912306, 2.28928978814624)	1.0	z	0.511413
7	M	A	B	B					B	4	3	shapes	B	3	True	89	(-3.2501152756013365, 5.2693671037337566)	(-4.3458765841841673, -1.4709296873079172)	(3.2428906030660265, -2.667597394269972)	(4.7692141244077302, 7.5513094834393968)	1.0	z	1.1391
8	N	B	B	M	A	A	M	N	N	8	7	shapes	N	3	True	89	(1.4516732778017349, 7.8499005228608638)	(6.3582212002852891, -8.6499015377059756)	(-6.5403234516990558, -7.6796632669919456)	(-0.23906296618143053, -7.6475472058992304)	1.0	z	1.57659
9	M	A	N	A	N	B	M	B	M	8	0	shapes	M	3	True	89	(5.4792311279901398, 0.51308058698757186)	(-4.2944257995927595, 5.0708654536274853)	(-7.1204425297524629, -0.0051216793940156435)	(6.5263402540963149, -7.8526827092172589)	1.0	z	1.62624
10	M	A	B	M	N	B	A	N	N	8	3	shapes	M	3	False	89	(2.5813170902676621, 0.59818379224011942)	(-4.3089782030073982, -6.1319787506396564)	(-6.0092214845768659, 2.3743567286550675)	(5.6826112843229772, 3.6245672480285691)	1.0	slash	1.25781
11	M	A	B	N	N	A	B	M	N	8	1	shapes	A	3	False	89	(7.2752116569840091, -0.68507071716755874)	(1.8770509006694844, 1.0026273874099694)	(1.6418100382377876, 8.5347398952095546)	(-8.2634820136415215, 0.17679983036317815)	1.0	slash	0.611495
12	M	B	B	N	N	M	A	A	A	8	5	shapes	M	3	False	89	(-7.6945248524942373, -2.1372010911961183)	(-0.78051165931011379, 2.9860538475361391)	(0.89833412566846604, -2.2696352477779929)	(-2.0744946650369949, -7.279215923814581)	1.0	slash	0.795101
13	M	B	B	M	N	N	A	A	N	8	5	shapes	N	3	True	89	(-2.2051230384691376, -6.7479398558672212)	(0.43490500330911175, 3.1331579000475926)	(-2.5957426396784173, 6.4305686531487609)	(5.9203434705963627, -2.1204552923947002)	1.0	z	2.24883
14	N	B	N	B					M	4	0	shapes	N	3	False	89	(-3.6644379310868409, 3.5020616218757663)	(1.7476151185523729, 0.88907414871835755)	(-5.4948193275976713, -4.9981009088910042)	(6.8165388321179545, -0.65953502190262547)	1.0	z	0.832366
15	N	B	N	B	M	M	A	A	A	8	7	shapes	A	3	True	89	(6.8342337356234033, 7.1108684718290771)	(-8.6347682851726884, -0.44263905656395508)	(-5.879667790895482, 3.1516850866970749)	(-0.68910760483985278, 8.711279474734571)	1.0	z	1.05998
16	N	B	M	N					B	4	1	shapes	B	3	True	89	(-7.8449762534238401, 0.66035397240529115)	(4.4592396271446404, 4.1076586479211841)	(-3.5286772068971253, -4.7486887188366467)	(6.8828732613791122, -5.5293169471718286)	1.0	z	0.993547
17	N	B	B	N					M	4	2	shapes	B	3	False	89	(7.1017753526733216, 1.3679849098384871)	(6.9056276318774579, -5.3864973088719879)	(-2.0101992333283798, 6.4695070815558253)	(-1.8296676238281542, -3.6583095948202784)	1.0	slash	0.929349
18	M	B	N	A	A	N	M	B	B	8	6	shapes	M	3	False	89	(8.0630169135211318, -3.277796369760849)	(2.6301845807631032, 3.6946688855041483)	(-4.9897679615571215, -8.537439597857265)	(-0.38455746400413027, -3.4484577750477454)	1.0	slash	0.802674
19	N	A	A	B					B	4	3	shapes	B	3	True	89	(-8.0316964927569074, -8.0422463527189407)	(-6.0618421848692829, 8.383686673198369)	(7.4357045393960206, -0.21386224445539881)	(7.3479433748603036, 7.1603260136372739)	1.0	z	0.64236
20	M	A	A	M	N	N	B	B	N	8	2	shapes	A	3	False	89	(-5.4313082233883296, -1.844373051935488)	(2.2751134452997182, 7.3139594673465531)	(-3.6644526554268948, -8.4331950427994311)	(-6.9938482003130265, 2.4240418091214142)	1.0	z	0.974155
21	N	B	B	A	M	A	N	M	A	8	6	shapes	N	3	False	89	(8.4615408207774792, -2.8024372839186178)	(3.442855911762754, -3.6724536141436497)	(3.1532151769556158, 3.4683490298309714)	(1.4193407165580645, 7.8463902976674369)	1.0	slash	0.919644
22	M	B	M	N	B	N	A	A	M	8	0	shapes	M	3	True	89	(4.9636910107867216, 3.5558641416285397)	(5.0139149321413328, -2.5175379781112639)	(3.4371397888821491, -7.7942112451200316)	(-4.0051143455874474, 2.9989407817258975)	1.0	z	0.787005
23	N	B	B	N					N	4	0	shapes	N	3	True	89	(-4.9010945554372904, 2.1102638721031326)	(0.33055133737017783, 5.9787539073789464)	(-3.6449110208198752, -2.6461988654830755)	(7.4151781648334207, -0.81112916200424046)	1.0	slash	1.03299
24	N	A	M	M					A	4	1	shapes	A	3	True	89	(-4.010845551886697, 0.99401234676584771)	(-2.9583504449323419, -6.8846179129443295)	(1.4092089952283899, 0.46538656583401306)	(3.7160438745469708, -4.1819381953538519)	1.0	z	1.68422
25	M	A	A	M					N	4	0	shapes	M	3	False	89	(2.1661408234640689, 6.1165407771048805)	(3.4900006758621487, -7.7628925641099222)	(-0.98356198191720967, -8.2575325174973209)	(-6.5448765065598877, 5.3836314376244587)	1.0	slash	0.528231
26	N	A	N	B					M	4	3	shapes	B	3	False	89	(-4.909879472754513, 0.22927263944714227)	(5.853754125541947, -7.9652945411264753)	(-5.4997448127317057, -4.3517391769540641)	(7.8325567381170949, 1.3958784046484922)	1.0	slash	0.680022
27	N	A	M	N	A	B	B	M	A	8	5	shapes	B	3	False	89	(0.55478541398110615, -6.0929175455487705)	(7.993922965837772, 3.3681590753060764)	(2.4215663283602034, -0.15858756958353659)	(-1.6253993161356277, 8.0060862157892245)	1.0	z	1.02749
28	M	B	B	N					M	4	3	shapes	N	3	False	89	(-2.7650383677968202, -7.4353444768551897)	(8.5091215962487539, 6.7460713170463862)	(6.8052027217754336, -7.0571293043940022)	(-2.3244724366881613, 0.37006933316269475)	1.0	slash	0.553269
29	N	A	A	M					A	4	2	shapes	A	3	True	89	(1.2380082304077771, -1.0781551153871156)	(-2.0867295273192079, 8.4851128295903813)	(-0.27472115827399968, -6.0786522383811814)	(6.9974496766700334, 6.8402875599894166)	1.0	z	0.831008
30	N	B	B	A					B	4	1	shapes	B	3	True	89	(0.60926302082854278, 4.1408910127429088)	(-5.9836608323999307, 8.4341207331350141)	(-0.97683483320966857, -5.3741123726129576)	(7.8258610776663176, -3.887400803689709)	1.0	z	1.08453
31	M	B	N	A	A	B	M	N	A	8	2	shapes	N	3	False	89	(1.1157620832044728, -6.2376217896921506)	(5.2139125741730066, 8.7381753337986048)	(5.1859022697529316, 0.38281656952261756)	(-0.75784725483661486, -0.0041825346043520284)	1.0	slash	1.07216
32	N	A	N	M					B	4	1	shapes	A	3	False	89	(4.8616131839147734, -8.7288206138090789)	(-5.4070374075738385, -4.8273653828902336)	(4.0779470252401495, 0.65419882277524088)	(-1.9495491427461298, 1.7313844436038597)	1.0	slash	0.911744
1	M	A	N	A	N	B	B	M	A	8	0	shapes	M	4	False	89	(6.9158121047328915, -4.2762427448092923)	(1.139025299037506, -1.1817530199483572)	(-3.4744668438863382, 6.9808902993318487)	(-7.4958666759235149, 5.5463502052556031)	1.0	slash	0.863524
2	N	B	N	A					N	4	0	shapes	N	4	True	89	(-4.3892200017946292, -2.6429298122291724)	(-4.0853943485942921, 3.5117352342669932)	(7.343085627709403, -2.6301244171830573)	(2.6631955778362553, 8.5439007415796979)	1.0	z	0.765184
3	M	A	N	M					M	4	3	shapes	M	4	True	89	(-8.4571841878263463, 0.027679037380039517)	(6.3728130431389438, 1.6355511872608766)	(-3.3144035552959759, -0.84594429111144809)	(7.9682399031523339, -3.3312030797832257)	1.0	z	0.654144
4	M	B	B	M	A	A	N	N	N	8	7	shapes	N	4	True	89	(-4.1633890443660286, 6.7431281913787089)	(-3.09039895133537, -6.9859889850306498)	(4.134021992848389, -5.5174157832039734)	(-7.2860384614241509, -7.0493323478382441)	1.0	slash	0.640571
5	M	B	M	B					M	4	0	shapes	M	4	True	89	(-4.0456664573160896, -7.8677660485117507)	(7.0545812658709739, -7.4034094082613544)	(-7.7351126847334868, 1.4056143822300449)	(5.3067049587487638, 3.3881746805921438)	1.0	z	0.79426
6	N	A	B	M					M	4	3	shapes	M	4	True	89	(-1.206507873298321, 3.0221945465549638)	(-3.7191517075104432, -2.5495797295853588)	(0.23729101810007514, -8.5539650701413503)	(3.6975764167899179, 2.3934211544527262)	1.0	z	2.50964
7	N	B	N	M					B	4	1	shapes	B	4	True	89	(4.1041687123688302, 4.6300073125795791)	(-2.9186735300799755, -5.1663219690211566)	(-5.8036047426872122, 5.5583871108927401)	(0.066848570459020706, -8.632775842832757)	1.0	z	0.577251
8	N	A	A	B	B	M	M	N	N	8	7	shapes	N	4	True	89	(-7.4393884571213817, -5.0159461105431191)	(4.7000033967924697, -4.9196923831782353)	(-5.7349446215491326, 4.0441929091453463)	(-3.8752927257426855, -7.1333469884963883)	1.0	z	0.960963
9	N	A	N	B	A	B	M	M	A	8	2	shapes	N	4	False	89	(-1.1444748644523193, 7.421671977901017)	(7.0119233093047306, 3.4529839867530097)	(1.952414437806306, 0.56618518444516397)	(8.3651125594862705, -1.9752318917843708)	1.0	slash	0.742465
10	M	A	B	M	A	B	N	N	A	8	1	shapes	A	4	True	89	(6.4934243406662766, -7.1475876109048482)	(6.3587479258710715, 3.5208345012648472)	(1.3723651942930655, -7.9562167554893541)	(-7.5706955228035921, -7.4205065343406273)	1.0	z	2.56418
11	M	B	N	M	A	B	N	A	M	8	2	shapes	N	4	False	89	(-5.0774818008383225, 7.1622179755257278)	(6.7259013723505827, 7.0316504720624877)	(-4.8713520416085156, -4.9351479292815625)	(-2.1230011449823065, 1.5217791465380905)	1.0	z	0.871654
12	N	B	B	A					B	4	1	shapes	B	4	True	89	(-2.0433897027978345, -1.5171692523811533)	(-5.3111815465922838, 3.6343870762632715)	(0.023875256012956925, -8.6768432048689803)	(2.2748893846183122, 7.080948769784289)	1.0	z	1.46749
13	N	A	B	A					B	4	0	shapes	N	4	False	89	(2.5679240400486432, -1.4941268699761405)	(-3.4292709358314495, -7.8295920937783698)	(-8.2939307105670572, 3.1747670718832293)	(7.9655252793262292, 8.3181252052199319)	1.0	slash	0.590548
14	M	B	M	B					M	4	1	shapes	B	4	False	89	(7.4943726513235696, -5.736056296142154)	(3.6825162043999615, 8.2289324881595256)	(-1.8776387436340745, -1.3238199694930222)	(-5.1338066949530097, 1.4450319162398717)	1.0	slash	0.610649
15	M	B	M	B	N	N	A	A	M	8	3	shapes	B	4	False	89	(2.9340901194833293, 2.3872143597313844)	(-6.9036660747262868, -4.1682246861512802)	(2.4524765883779445, 6.5515533510349879)	(-3.5847686548132032, 4.2024626123683433)	1.0	slash	0.695149
16	M	A	N	M	A	N	B	B	M	8	3	shapes	M	4	True	89	(-8.5285794237182202, 1.5026519249542734)	(1.174964428766204, 2.1875564181379357)	(-3.2246658232129821, 8.6667651680582658)	(8.6705476438966151, 7.4541622827595688)	1.0	z	1.11003
17	M	B	A	B	M	A	N	N	N	8	7	shapes	N	4	True	89	(-4.9644328664929525, 0.63636290782739913)	(-8.4349480378304058, 3.770220691542443)	(2.2259096357867652, -8.5421936135796503)	(0.60517164816147329, -1.9367434260650596)	1.0	z	1.12355
18	N	B	M	N					N	4	0	shapes	N	4	True	89	(5.3395264442066441, -6.6693442937238316)	(-2.5003477081819101, 8.4925325150637079)	(4.0701969924072419, 6.8060590706603055)	(-5.7398779281795953, -8.3617203990047706)	1.0	slash	0.581212
19	M	A	A	B	N	B	M	N	B	8	3	shapes	B	4	True	89	(7.1750616544729411, -5.8144416275615063)	(5.241474140657143, 6.2052376587568592)	(-6.6399760405441466, 6.4246043925792851)	(-2.5364712176047526, -6.5706571125375355)	1.0	z	0.814879
20	N	A	B	N					A	4	2	shapes	B	4	False	89	(3.7261681558094928, -7.413388119160496)	(-5.0743150368643182, -2.7198259511352321)	(1.2347411627512948, 0.69261745943947162)	(-1.3162155244716764, 6.3773544059663898)	1.0	slash	0.630497
21	M	A	A	N					M	4	2	shapes	A	4	False	89	(-2.3975398364138956, -2.2209258185115432)	(-2.0890807082815801, 3.8971959570922383)	(6.4943217401105482, -4.8018970199159909)	(7.4001714403498831, 8.1646304056309624)	1.0	slash	0.690113
22	M	B	M	N	A	N	A	B	M	8	4	shapes	A	4	False	89	(5.1999626513313011, 2.2098856330048111)	(-1.5135852126781826, -7.1334920920153682)	(6.6407068223530974, -4.6427719303989194)	(-7.9470540190277532, -5.893073817385825)	1.0	slash	1.13944
23	M	B	N	A	M	A	B	N	B	8	1	shapes	B	4	True	89	(-6.3541603178730952, -6.1437376493430111)	(-7.0261902873017821, -0.95545597246345615)	(0.89633590142227249, 1.2210750992846116)	(0.79580946209780556, -8.2294576835663698)	1.0	z	0.763367
24	N	A	N	M	B	B	A	M	M	8	0	shapes	N	4	False	89	(-5.5744116530578172, 2.7998414117677015)	(6.8441185844694488, 4.9397696004234746)	(7.832201860380966, -8.0301577170402343)	(0.81870515245169884, 0.99872631966642977)	1.0	slash	0.935028
25	N	B	B	N					A	4	2	shapes	B	4	False	89	(-5.5528998305901736, -0.28969868783992858)	(4.7154865582605794, -2.8838050980869454)	(0.47459393352063195, 2.4505780582881922)	(-5.1433124152870837, 8.722892348715849)	1.0	slash	0.590845
26	N	B	A	A	N	B	M	M	N	8	6	shapes	M	4	False	89	(3.3674160781058973, 6.9103522624782823)	(-7.3239508819648034, 4.44746013340899)	(5.5607964928222238, -6.4833488556870327)	(6.6392289343208155, 1.5594889104568175)	1.0	slash	0.854343
27	N	B	B	A					A	4	2	shapes	B	4	False	89	(-5.6351557939865575, -8.1459210653255685)	(1.6362264367439714, -0.18418935123194657)	(-2.6624586082147754, 5.5696199844122809)	(1.716338099891269, 7.0507768407910234)	1.0	z	0.646207
28	M	B	A	B					M	4	3	shapes	B	4	False	89	(5.0481390073876131, -1.9386472354927111)	(-0.32782817714789481, -4.4777409464603162)	(6.9399197119495799, 4.8481980268857097)	(-5.4906574124517524, 6.9805073999445142)	1.0	slash	0.487937
29	N	B	A	B	A	N	M	M	N	8	0	shapes	N	4	True	89	(-7.8359433854329463, 3.4751609548039788)	(6.1868973887539909, 7.1306281379106586)	(-3.1389809810297153, 7.8045305189467236)	(-2.5043871868661194, -3.5516851113547414)	1.0	z	1.23533
30	N	A	N	M	B	A	M	B	N	8	6	shapes	M	4	False	89	(4.7261626385931095, 6.7797477592697533)	(-7.8704069506157426, -2.1112984684337412)	(1.1880821598769202, -6.5438498106135352)	(7.4260776880345318, -2.4127974524206275)	1.0	z	1.28104
31	M	B	M	A					B	4	0	shapes	M	4	False	89	(3.3745496206260199, -1.8343172546949829)	(-8.3619590142266489, -8.4850786983061486)	(3.4186326785578078, 4.4238429167518198)	(-8.4467088463858673, 3.0264824370712216)	1.0	slash	0.618522
32	M	A	N	A					N	4	2	shapes	N	4	True	89	(8.6356253705105281, 1.6879678089069952)	(-3.7006243513818919, 0.89109041634118036)	(7.4611916298099921, -3.5443969291520023)	(-6.1281132460829379, -7.3885001669340244)	1.0	z	0.654417
1	M	B	N	A	A	M	B	N	M	8	1	shapes	B	5	False	89	(-2.709041768176081, 1.0296212597931351)	(4.053994604064755, 1.723410147181518)	(6.5820528824579796, 6.775791377041859)	(-3.2033727770636462, 7.6183043573379123)	1.0	slash	0.873892
2	N	B	N	B					A	4	2	shapes	N	5	False	89	(6.7739100151724738, 8.0347365196330465)	(-6.2879936941458956, 5.0468569169823922)	(8.4837445143963457, -5.2162054330343475)	(-7.4558523185989714, -6.4338070196135604)	1.0	slash	0.517512
3	M	A	M	N	N	A	B	B	M	8	0	shapes	M	5	True	89	(4.3625510752287582, -5.60920367363026)	(8.0693787718745362, -7.6006921619641092)	(-4.0655739627048275, 2.4199524591603261)	(4.9435938726574058, 3.0071385540817701)	1.0	z	0.649293
4	N	B	B	A					B	4	1	shapes	B	5	True	89	(6.7449392955085727, -1.8966331923257655)	(5.6399611831245888, 7.8646112879194092)	(-0.067438566990441373, -3.8182760831937701)	(-3.0742797076684463, 1.7171272691727371)	1.0	z	0.70502
5	N	A	B	A	M	N	M	B	M	8	6	shapes	M	5	True	89	(5.8052614524991153, -5.248328142318063)	(6.3548866528409125, 2.4662110687768273)	(-3.8296267070039063, 3.6362307736754413)	(0.85838701729777434, -4.8307981644934275)	1.0	z	0.814518
6	M	A	N	N	M	B	B	A	B	8	5	shapes	B	5	True	89	(-4.8403924663742339, -7.4613578645652892)	(3.2187114061908115, -4.5495494282874374)	(-6.8325184377998927, -1.281236748652991)	(0.69545320286798251, -8.260207440196174)	1.0	z	1.05631
7	M	B	N	B					N	4	1	shapes	B	5	False	89	(1.7321222347925449, 0.15769714361760023)	(-4.8106207713842517, -4.230036714688195)	(-6.124307028700203, 1.4688554342708979)	(0.040357522977577887, -7.7603145414546191)	1.0	slash	0.607853
8	N	A	B	M	A	M	N	B	N	8	5	shapes	M	5	False	89	(-3.6328834480928682, -4.7419179809222998)	(-2.2133051830659198, 5.2621574481504716)	(1.4469835389015753, -4.5077580074010015)	(3.1114822965555362, 2.8513938261815035)	1.0	slash	1.21149
9	N	B	N	A	M	B	M	A	B	8	1	shapes	B	5	True	89	(-4.5179036591530215, 3.1151400445833755)	(1.1273594418470836, 2.1843475199864777)	(-8.5253703028496943, 6.3815694323898331)	(8.5033953812774001, 0.062491733852469977)	1.0	z	0.749098
10	N	B	A	N					M	4	2	shapes	A	5	False	89	(-6.2363789786435468, 8.2095456154679951)	(1.3344063870938889, -8.245089056066071)	(3.6689753351596224, 7.4238630825507137)	(-7.5306377332371124, -2.0569684538558146)	1.0	slash	21.0708
11	M	A	B	N	M	N	B	A	A	8	4	shapes	M	5	False	89	(4.7816578275370887, -0.9864291772101037)	(8.7123266363497542, 0.3753079067780476)	(-0.096190182457721818, -3.6111621212674683)	(6.1500455170841111, 4.3865136316141395)	1.0	slash	1.0663
12	N	B	N	M	B	M	A	A	B	8	7	shapes	A	5	False	89	(1.2197562302564222, 3.8306481728689459)	(-2.8493763075837393, 1.3638137606709932)	(-1.2851493619021701, 8.1587783714890492)	(6.424856646151369, 3.2025086472635422)	1.0	slash	1.04556
13	M	B	M	A	N	A	B	N	M	8	2	shapes	M	5	True	89	(-0.33772179119985779, -4.957959267186931)	(-7.6936086870546614, -3.7887500909142373)	(4.4917184312264151, -6.1594693509141472)	(2.9624299842841939, 5.1252772375514191)	1.0	z	1.05579
14	M	A	A	N					B	4	0	shapes	M	5	False	89	(7.0820787098494709, -2.0131757331778379)	(-2.1791859177404058, -7.5685072289325284)	(-4.6277541081751004, 4.2737276363881342)	(4.026923916607462, 2.0813115796076858)	1.0	slash	0.663735
15	M	A	N	B					N	4	2	shapes	N	5	True	89	(0.37383430632084647, -1.5212186277434725)	(5.4901739811155306, 4.1665551907968243)	(-7.7574839937778384, -8.3597705739054238)	(-8.0434940547636273, 1.6456555707924085)	1.0	z	1.27743
16	M	B	B	N					N	4	0	shapes	M	5	False	89	(2.4089703062997945, -7.1882316543363434)	(-8.3407994879127703, -6.1095617114566574)	(5.8217636277576705, 0.30687462648324981)	(-1.3073640970068841, 4.1059999686968958)	1.0	z	1.20704
17	M	A	N	A					N	4	0	shapes	M	5	False	89	(-1.4679845683488963, 1.395140903077019)	(0.93621049271365564, -5.1532536797199597)	(3.7156473806583428, 0.46080517423269818)	(-2.5308991961062661, -8.6935345356195111)	1.0	slash	0.774553
18	M	A	N	B					N	4	2	shapes	N	5	True	89	(-7.7408968978658477, -8.1289570309051253)	(6.4126830705300986, -2.0522895889857073)	(-8.0247889031037456, 4.7351707413912401)	(2.6727350284105391, 3.5126469926553696)	1.0	z	0.534282
19	M	B	B	M					M	4	2	shapes	B	5	False	89	(-5.6145825045829536, 0.0061893395790129091)	(-1.3621689527768339, -4.4221587582142314)	(0.92667364978087541, 4.1669595387918221)	(8.2819852341091149, -4.5102697497041051)	1.0	slash	0.637964
20	N	B	N	A	M	B	A	M	A	8	0	shapes	N	5	False	89	(-8.3413552794021459, 2.346649060122239)	(-3.4248318404648996, 5.5217305604126494)	(4.7770903800584534, -7.3736549841572101)	(7.8628240094205317, -3.4916524638855106)	1.0	z	0.761527
21	M	B	A	N					M	4	0	shapes	M	5	True	89	(6.7974564060766109, -8.0389650630594627)	(1.8157410870372974, 5.9448206222214974)	(-7.5286948590664018, 6.4757633493121212)	(-0.81492210808511878, -2.0435123243914202)	1.0	z	2.23523
22	N	A	A	B	N	B	M	M	A	8	1	shapes	A	5	True	89	(-6.9290570475132105, 4.9580301519983738)	(-2.9997899392882426, 1.1231322492716398)	(7.6915467202810675, 0.67819675932291545)	(4.0888317945565422, -4.3904293394474205)	1.0	z	0.710612
23	N	B	A	B	M	A	M	N	M	8	5	shapes	A	5	False	89	(-6.8639878099102987, 0.77541760793269887)	(2.3788916328344865, -6.9201860354065889)	(-1.7756960246184645, 1.5773769676493465)	(1.972042551003705, 6.5035532940983671)	1.0	slash	0.604179
24	N	B	A	N					N	4	0	shapes	N	5	True	89	(1.0460509627353591, -8.7249555290869054)	(7.13156707537029, 2.1360503565922659)	(-8.3202153500549425, -1.0701947578638125)	(-2.4716325399404013, 2.8347172522586668)	1.0	z	0.565753
25	N	A	A	B	B	N	M	M	B	8	5	shapes	N	5	False	89	(-4.4461634229545375, -6.7741592185112927)	(7.727800756980745, 5.2907106151824852)	(6.4186094232294177, -6.7371925068985687)	(-2.3181911933162533, 2.5181033186343349)	1.0	slash	0.553831
26	N	A	A	N					A	4	2	shapes	A	5	True	89	(1.3517268256487611, 0.035361803019547722)	(6.8234446168222025, -4.7737552110754411)	(-5.3834649452638725, 7.4839774671872767)	(-4.2274840755769016, -4.353282200159116)	1.0	slash	0.549376
27	N	B	M	M					B	4	0	shapes	N	5	False	89	(7.9881543532508736, 5.873135223233211)	(-6.6561963099159538, -5.5284938397397418)	(-0.46261889702924286, 3.2968690718636449)	(3.3314139826031059, -1.077898011011106)	1.0	slash	1.01712
28	M	B	N	N					N	4	2	shapes	N	5	True	89	(-2.0147622630300361, -8.0682915301200193)	(1.7891150494173438, -3.1445968796150785)	(7.1484957455398597, 0.44860929602288202)	(-6.8643529825168272, 4.3963092906349388)	1.0	z	0.994847
29	M	A	N	M	N	B	A	B	A	8	1	shapes	A	5	True	89	(5.8551271123522302, 3.3307510528227464)	(-1.7822249333646285, -1.1335688074432504)	(1.7535481605857779, -8.1633296463130751)	(2.7488913389086367, -2.236812337393383)	1.0	z	1.35232
30	N	A	N	B	M	A	M	B	B	8	6	shapes	M	5	False	89	(-5.5327120523406439, -4.0599788151390275)	(3.2885893051295003, 0.080407518217169738)	(7.0109254690624176, 4.8484037992899243)	(-3.9134073067250679, -8.5176181848704093)	1.0	slash	0.638124
31	M	A	M	N					M	4	2	shapes	M	5	True	89	(2.2413217663246368, -5.4004913710958977)	(-7.9200124749881633, 1.3703307762860355)	(-6.8678869007726187, -4.3671062741397249)	(3.1965106292676975, 1.7107969301252748)	1.0	z	0.823501
32	N	A	M	A	B	N	M	B	M	8	6	shapes	M	5	True	89	(2.4205972984370394, -8.4481810193407778)	(7.7261118532160893, -4.1012543825556458)	(7.7173342191617884, 4.351349365510881)	(-8.3217542284669683, -3.6922996503786401)	1.0	z	0.975341
1	M	B	B	M					A	4	0	shapes	M	6	False	89	(1.1302383551484159, -7.8676468968131541)	(8.1557930954712212, 7.5471275517766614)	(-5.7194429104885458, 2.6840122552717638)	(-3.7252527492441017, -1.2171356972425063)	1.0	slash	0.803019
2	M	B	N	M	N	B	A	A	A	8	4	shapes	N	6	False	89	(-8.4644172987893693, 4.2888981109245279)	(5.4527165542578597, 6.8687657784133123)	(-7.6960424348366034, -1.4380655819343673)	(-1.1958770218825023, 6.0958138549003724)	1.0	slash	0.972659
3	N	A	B	M	N	A	B	M	A	8	5	shapes	A	6	True	89	(5.2320011854000352, 1.8332318170354966)	(4.5488713672606043, -6.8263553776786541)	(8.1122878180641642, -4.6616587918869641)	(0.81322101446596129, 0.83030884504504421)	1.0	z	2.1663
4	M	B	M	B	N	N	A	A	A	8	7	shapes	A	6	True	89	(-8.1974637685981904, -6.2357660013444507)	(5.9887897146988216, 8.6374429794920928)	(2.1384356973788723, -3.5896279907028505)	(-4.1478127258337807, 4.856889816822159)	1.0	z	1.0558
5	M	A	N	M					N	4	2	shapes	N	6	True	89	(-0.038750714939595809, 4.1411248551290587)	(-1.7048050560238357, -6.949150817572427)	(5.5462593428101474, 0.61352600734286611)	(0.20809230694624148, -1.035523778438292)	1.0	z	0.527304
6	M	B	M	N					N	4	3	shapes	N	6	True	89	(-8.5706388102904221, 8.4445251240772627)	(-5.001565135385948, -6.551631095955381)	(2.1951093489117373, 6.3022485674235309)	(6.2244071000029315, -2.3314309320567927)	1.0	z	0.715201
7	M	A	B	M					M	4	0	shapes	M	6	True	89	(-0.25923303522819019, 7.3070218689459985)	(0.62827587832602561, -6.2720545221027724)	(-3.705861312020466, -3.5568195492691927)	(8.1620595606217776, 6.301292726662636)	1.0	slash	0.926751
8	N	A	B	A	M	B	N	M	M	8	0	shapes	N	6	False	89	(7.8413562135032961, 7.7117658384258618)	(-1.6288327846098527, 5.8019658462759569)	(4.0232276278447898, -0.38705503309991585)	(-5.5708640107330814, 1.3652813537565596)	1.0	z	1.03838
9	M	A	N	M	N	A	B	B	A	8	5	shapes	A	6	True	89	(4.8305922218817177, 7.0985852575555288)	(-1.4135544710581787, 3.5548679292865426)	(-1.9752787334933197, -7.1792353613726902)	(1.0727224005531877, -4.0037195595775694)	1.0	z	0.709813
10	M	B	N	A					N	4	2	shapes	N	6	True	89	(-7.4633375416676984, 3.2685717960845242)	(-5.148809531779925, -0.035521390811965148)	(4.9040651705536664, -1.1332804607333706)	(0.76260700422916194, 4.2423338731055367)	1.0	slash	1.07367
11	N	B	N	M					M	4	2	shapes	N	6	False	89	(-0.74146569637113657, -5.4446832603999979)	(2.2780208505061914, 6.2974616781772745)	(6.6259103608201233, -7.5189380339122094)	(-5.0678468175610494, 7.3331986608772191)	1.0	slash	0.703337
12	N	A	A	B					A	4	2	shapes	A	6	True	89	(6.4981660152954959, -7.3165322455183972)	(6.3524381812164918, 2.7982301161464012)	(-4.4329707074089928, 7.8412359026002143)	(-7.9088173513881195, -3.6882139347569707)	1.0	z	0.6288
13	M	A	B	M					B	4	1	shapes	A	6	False	89	(1.6197133880423884, 1.369393087833668)	(3.6690620648725503, -5.0287784425734543)	(-8.7378117247261926, 5.6114249293281695)	(-8.2788700425267265, -7.4949818875527985)	1.0	slash	1.84068
14	M	B	M	N					A	4	2	shapes	M	6	False	89	(5.1028924326884102, -6.2713775484272558)	(3.3679485883147215, 4.2970450149171828)	(-8.0015102193898304, -3.3781974635074601)	(-1.9200508992606053, 1.5436874855503948)	1.0	slash	0.914264
15	M	B	B	A	M	A	N	N	N	8	3	shapes	A	6	False	89	(-2.674141391850636, -0.66912481162662552)	(-6.9309994410600986, 2.4029448923465679)	(7.1692253731655367, -2.9280797437447612)	(-1.4616274165469516, -6.6069362026634044)	1.0	slash	1.36593
16	N	A	A	B	B	M	M	N	M	8	6	shapes	M	6	True	89	(-5.609333366916692, 7.1717200235189864)	(-3.198811467708345, -8.0166620119138958)	(5.1983664672523737, 2.0102419472396846)	(-0.39611007234347717, -2.908004053976792)	1.0	z	0.673443
17	N	B	M	M					A	4	2	shapes	M	6	False	89	(-8.6492242677199744, 1.2266522469217875)	(3.6550374013378839, 0.060978798763946074)	(-6.2468017803483793, -2.3420550502522861)	(3.7445092988772455, -4.6344356012100016)	1.0	slash	0.517224
18	M	B	M	A	B	A	N	N	B	8	6	shapes	N	6	False	89	(-2.7864231641476263, 1.5922811339670346)	(1.3870950040809831, 5.6286988253097565)	(6.6103656928860861, 2.2238280055456734)	(-0.37042295613364118, -1.9545742155763781)	1.0	slash	0.538803
19	N	A	M	N					N	4	1	shapes	A	6	False	89	(-5.305501375442141, 3.1366399932563578)	(5.4204131084304255, 6.9180749973525462)	(3.4460030167063742, -2.25603424952374)	(-8.3798836328935877, -5.8755379003133168)	1.0	slash	0.707923
20	M	B	B	A	A	N	M	N	N	8	5	shapes	N	6	True	89	(-5.3717088398976909, 7.8784410431356982)	(3.3193915850245368, 5.4217935875044603)	(-4.8165947574406109, -4.7644461755027372)	(-8.2735112965403435, 2.4839886616571718)	1.0	z	1.2319
21	N	B	M	B	M	A	N	A	B	8	3	shapes	B	6	True	89	(-2.3693976442614026, -4.191253608073211)	(1.1205261345531543, 3.3597730611882426)	(-6.0909893512242927, 4.8530739666045708)	(7.7461457901377209, 3.5619112908023993)	1.0	z	0.877322
22	M	B	A	B	N	A	M	N	N	8	7	shapes	N	6	True	89	(-4.0906895976827959, 5.343392076620967)	(-6.5881813188939482, 1.4449191423361558)	(4.1980918662692019, -3.787945876119772)	(7.2689419704886227, -7.0392679318333826)	1.0	z	0.678967
23	N	B	B	N	M	M	A	A	M	8	7	shapes	A	6	False	89	(6.1378496384583574, 2.1473146121147426)	(-0.034072092530184506, 2.2747122799304691)	(-3.7413471321028338, -0.44163922377133247)	(1.4368165796841073, 6.3733028163841041)	1.0	slash	0.627044
24	M	A	N	B	M	N	B	A	A	8	1	shapes	A	6	True	89	(-5.6849659269282302, -5.6035990013074617)	(-0.18780246399784239, -2.9576682359133555)	(2.6637652658143214, 5.9011137903428335)	(-1.7521021493364515, 3.9099757676146574)	1.0	z	1.03464
25	M	A	B	M					N	4	2	shapes	B	6	False	89	(5.1470851759016902, 3.8412917673628737)	(-2.6394667524141306, -6.050785790250651)	(1.7034575333934505, -5.25449162291509)	(-7.8332058164046492, 0.15494789971113576)	1.0	slash	0.51645
26	N	B	A	N					A	4	2	shapes	A	6	True	89	(7.004475931624194, -6.8947827289103358)	(4.0115508601694909, 0.82391613474874781)	(-0.26912704506289131, -4.6159344149137898)	(-0.81815759364224494, 7.5426382022756968)	1.0	z	0.81408
27	N	A	M	B	N	A	M	B	B	8	0	shapes	N	6	False	89	(0.36839946030905502, 8.4003987547851899)	(4.1739808730735302, -7.9484590834572399)	(3.3517004809492192, 3.0986302701331603)	(0.25886742120161266, -6.0336635820472626)	1.0	slash	0.75965
28	N	A	A	B					M	4	1	shapes	A	6	False	89	(-7.5092191586518506, -1.9421926898176389)	(-4.5250709599367482, 1.6483291326129166)	(7.1386809879001216, 1.7118462728518296)	(7.8300102368246414, -3.7746647886856755)	1.0	slash	0.601287
29	N	B	A	A					N	4	0	shapes	N	6	True	89	(5.0088863478014947, -2.5357114358705122)	(-7.4277946513535742, 1.6648612388234056)	(8.6098048251875028, 6.9654703398468616)	(-7.3099908573983035, -2.5559657119414183)	1.0	slash	1.33898
30	M	B	M	N					B	4	1	shapes	B	6	True	89	(7.9038237993187153, -3.180177684358342)	(5.0216300540723289, 3.4395826783859427)	(-1.3656497942897783, -7.4097123793057653)	(-6.3234986748258013, 7.1007239040089818)	1.0	z	1.44059
31	N	A	N	B	M	B	A	M	B	8	2	shapes	N	6	False	89	(3.853422467150537, 5.2908460241109108)	(6.0850859636704051, -8.2156311932967849)	(0.45983708747928986, -7.4639163011347254)	(-3.0048638374838612, 4.7679355934353129)	1.0	slash	0.764215
32	N	B	A	M	M	B	N	A	B	8	0	shapes	N	6	False	89	(-0.11309269694123891, 4.5540091353846179)	(6.2269010395464228, 3.9322297402324171)	(5.9002260461507152, -6.6520907663522379)	(-0.24387004593592643, 0.53297553648433471)	1.0	slash	0.535828
1	M	B	M	B	N	A	N	A	N	8	6	shapes	N	7	True	89	(3.0935987860193599, -5.3789611797122401)	(8.6237851967009966, 6.5166081667759492)	(2.0462880289846659, 8.1420194359307594)	(-8.1444602384755775, -2.8130739644665264)	1.0	z	0.68319
2	M	B	B	N					N	4	0	shapes	M	7	False	89	(-5.4098513192379389, 6.1170013133444261)	(7.1258730099867691, -6.8148341756188628)	(7.0213806672429495, 3.4673638941001936)	(-7.8514002512584566, -3.0124965654416043)	1.0	slash	0.557183
3	M	B	B	N					B	4	3	shapes	N	7	False	89	(6.8969607557852921, 1.6743780308678566)	(-5.7879776762627726, 1.9695604839198193)	(6.0421658135114384, -3.1420299779123813)	(-0.82662347173972073, -2.5089696035793061)	1.0	slash	0.574988
4	M	B	N	B	A	A	M	N	A	8	3	shapes	B	7	False	89	(-2.0112387111292556, -5.6450648786241846)	(4.1327870921803633, 5.1105583750622205)	(-5.9696967962240191, -7.538251093159424)	(-4.2685021678117474, 2.2180694316854499)	1.0	slash	1.14454
5	M	B	N	B					M	4	2	shapes	N	7	False	89	(3.9922695711698335, -4.0272138902288761)	(-5.5089621689387211, 5.644443631288997)	(4.9606999869002379, 3.1345637048458865)	(-4.6252986823110849, -3.8745697786319493)	1.0	z	0.797729
6	M	B	B	A					B	4	2	shapes	B	7	True	89	(-7.447262725701739, -0.35512573685692317)	(2.2955547236307208, 1.0540830435706763)	(4.3901206990693353, -6.4519653524611549)	(-4.8632861325472874, 4.8949041613996123)	1.0	z	0.887534
7	M	A	N	A					A	4	3	shapes	A	7	True	89	(7.8296693921617901, -7.2987306709845265)	(-2.4891501730369487, 4.8113729067958353)	(0.27203211272073879, 8.6928509388887747)	(-6.1132235855128272, -2.4272778466251239)	1.0	z	0.741334
8	N	A	B	B					N	4	2	shapes	B	7	False	89	(4.2838869610000287, 8.5836684393032563)	(5.085508356049111, -1.5936058966507236)	(-7.2521674730480701, -3.7718126731374912)	(-1.7626550875474303, 8.3024638215954916)	1.0	slash	0.463186
9	M	A	M	N					N	4	3	shapes	N	7	True	89	(-7.5969496250139752, 5.445661535069398)	(0.94869530641335942, -0.50560739168553326)	(3.0808677394589399, 3.2987038578823249)	(-6.9967560458304892, -5.7680835970545363)	1.0	z	1.14881
10	N	A	A	M	B	N	B	M	M	8	2	shapes	A	7	False	89	(0.59019782795865794, 6.152481995837169)	(1.580072429231139, -4.6572584976069304)	(-3.7521151003613413, -5.0709218774022178)	(-7.5025559359739775, 3.1678076129398427)	1.0	slash	0.516366
11	M	A	B	A					N	4	3	shapes	A	7	False	89	(-2.3995459813264572, -3.7168831608644037)	(3.3244259639311906, -6.1754533481211382)	(-7.1622230559331257, 4.1393256262470342)	(0.84008366529404732, 8.3089553072873414)	1.0	slash	1.84806
12	N	A	M	N					A	4	2	shapes	M	7	False	89	(-7.1299846021917253, -0.50627301114559309)	(0.72170495568481918, -1.997790452452147)	(0.064249326408571505, 3.0531297121353802)	(-3.4871481453596811, 6.8659951863971269)	1.0	slash	0.535659
13	M	A	A	N	B	M	N	B	M	8	0	shapes	M	7	True	89	(7.6126618349277777, 3.1698152833513671)	(1.3612029029687545, -6.7721800544359327)	(-6.3020304515205074, 6.7617511379473854)	(-8.3813934128364931, -5.8842959337318668)	1.0	z	0.937405
14	N	A	M	B					B	4	3	shapes	B	7	True	89	(-1.292354421620356, -6.9008022435430085)	(2.8696970749580899, -6.2289466627711754)	(2.0586154272771449, 6.5516061539085619)	(-5.6687396443689559, 7.7052996395881017)	1.0	z	0.720843
15	M	B	M	A					N	4	1	shapes	B	7	False	89	(-3.0011531847559292, 1.4132000050423841)	(7.1369018086848648, -1.2874566219551324)	(-6.6530109387959424, -6.3896071395152649)	(6.1525322643471121, 5.2153685773316347)	1.0	slash	0.508633
16	M	B	B	M	N	N	A	A	N	8	6	shapes	A	7	False	89	(-7.1186815971810695, 5.2874097919269207)	(8.6530177317244927, 5.5055922366684911)	(-6.3774594457440328, -4.0284543622309705)	(1.9734509996565386, -8.5505081915773804)	1.0	slash	0.802312
17	N	B	B	N					N	4	3	shapes	N	7	True	89	(-0.74071587759124391, -7.8526054622858368)	(5.4805792879204613, -0.68885184044140146)	(-8.2325708440229306, 7.2121344352658117)	(3.8860098397501428, 4.9834607137118301)	1.0	z	0.779808
18	M	B	N	B	M	N	A	A	M	8	0	shapes	M	7	True	89	(4.9643094812943591, 5.6013372078320529)	(-4.2883864551923523, -0.82882006168795996)	(-7.7488458088474745, 5.4410591404843149)	(-0.62709509468586688, 3.2531238629493267)	1.0	z	0.74759
19	M	A	B	A	N	N	B	M	B	8	3	shapes	A	7	False	89	(-7.4477472036248376, -1.8343338825745095)	(-7.7357362479264431, -8.1076107380215543)	(7.8953563471430179, -8.3889878421042532)	(-0.13921405049289071, 4.8774648881741758)	1.0	z	0.659249
20	N	B	B	A	N	A	M	M	N	8	7	shapes	M	7	False	89	(2.332682158157656, 3.1170659556788927)	(-5.7029572555303183, 4.5358726657100394)	(-1.0260989538383756, -8.0715060782864594)	(7.7267032127975241, -7.8364900339568972)	1.0	slash	1.08244
21	N	B	B	N	M	M	A	A	N	8	0	shapes	N	7	True	89	(-1.702084749461096, -6.4996047544790505)	(3.8303760486745819, 5.3828762801010885)	(2.2979891136951185, -0.75548623160622341)	(8.5056168825957066, 7.6056363586844675)	1.0	z	0.724551
22	N	B	M	N					M	4	2	shapes	M	7	True	89	(8.474188419463772, -6.7784790344325687)	(-5.6563806922176116, -3.5333542500564015)	(-3.5900789768651791, 5.7497676176092902)	(3.8059211170505627, 8.7155152351094713)	1.0	z	0.598181
23	N	B	M	A	M	A	B	N	M	8	4	shapes	M	7	True	89	(2.9276810924917385, 7.6880484353720036)	(-4.2850373639296375, -2.4982767771264092)	(-1.6567213955530704, -8.5480597306633808)	(1.1106060428822619, -0.14885462936285876)	1.0	z	0.635863
24	N	A	N	B	M	M	B	A	B	8	6	shapes	B	7	True	89	(3.4732299506724793, 4.6513532256230103)	(-4.523006578063943, -8.1887738486147352)	(-7.4188670602894424, 6.49073048560758)	(0.88625439023336838, 8.05124441322641)	1.0	slash	0.687596
25	N	B	B	M					N	4	0	shapes	N	7	True	89	(0.97376534760972078, 3.0304537825187516)	(-4.5748534199611806, 6.2302580709479081)	(-6.9623394904971159, -0.093926393187786061)	(0.15350301445001868, -7.0491984561667254)	1.0	z	1.52222
26	M	A	N	B	B	M	A	N	A	8	1	shapes	A	7	True	89	(-6.9592768693714762, -0.3608378954943241)	(-2.4156774964781702, 6.234358359257083)	(-0.43883483288548497, -3.2769709880383049)	(6.5161853201754774, -2.6818990600792496)	1.0	slash	1.34086
27	M	B	A	A					M	4	1	shapes	B	7	False	89	(-1.1691042403225866, 4.1317912911827186)	(5.3695508537815524, 5.2250209615523175)	(3.8542409888978444, -5.9477207778449346)	(-5.9955946725158462, -7.0811195316719928)	1.0	slash	0.98431
28	N	B	B	A	N	A	M	M	B	8	2	shapes	B	7	True	89	(7.4700948892790144, -8.0729978183801308)	(-5.5073672912940896, 7.6297451430576793)	(5.1734635062920642, 1.9155233276790575)	(2.1708094628736276, 4.7392011006722843)	1.0	z	0.693922
29	N	B	B	A	N	M	M	A	B	8	7	shapes	A	7	False	89	(-7.9120199999032392, 7.3767698550666125)	(8.5865643893232964, 2.7411772493953137)	(2.0807706806740534, 2.3068676696649497)	(2.0591601170738301, -2.6863592128906326)	1.0	z	7.29344
30	M	A	M	A	N	B	B	N	A	8	0	shapes	M	7	False	89	(5.0552235651808921, -2.1364827840329585)	(6.9773021378117868, 5.8242490879873525)	(-3.3689514061272225, -0.067377733236570592)	(-3.1192776129760702, 8.4694156173124391)	1.0	slash	0.710629
31	M	B	M	B					M	4	2	shapes	M	7	True	89	(7.6557408583563991, -3.9532135981159229)	(-6.6988410138868542, -2.6069031739696857)	(-2.8796232315014949, 3.7773054408233353)	(0.86401023495409213, 8.1063022703313408)	1.0	z	0.714303
32	N	A	M	A	B	B	M	N	B	8	6	shapes	M	7	False	89	(1.6094940693552324, 3.5413595823388189)	(4.5781503919630726, 6.2827346279100844)	(4.9255130999316759, -0.45020814655781827)	(-5.1276658891559901, 3.8306543433324283)	1.0	slash	0.635978
1	N	A	M	M	B	B	N	A	B	8	3	shapes	M	8	False	89	(8.409135655926292, 3.3795690251538471)	(-1.8584136223490457, 5.0401846446335856)	(2.002462594610904, 2.7940426164449974)	(7.047936597616463, -5.7807263889891107)	1.0	slash	0.807733
2	M	A	M	B					A	4	3	shapes	B	8	False	89	(-2.0459486552668746, 1.2417130893268915)	(2.2920275077231729, -4.9003110290244489)	(7.3038968621502072, 0.57314043896771771)	(-7.6168066373797148, -3.8668341204483649)	1.0	z	0.637421
3	M	B	A	N	A	N	B	M	M	8	0	shapes	M	8	True	89	(8.2137396199259136, 1.9991166613654432)	(-1.8484073988062102, -3.1656189743517187)	(7.2577812386703613, -2.5602293499588775)	(-1.5581740743970443, 8.4389037574405386)	1.0	z	1.20687
4	M	A	A	M	N	B	N	B	N	8	6	shapes	N	8	True	89	(-2.1090844324004578, -0.25263336496337274)	(8.3710367720355485, -7.4918479016928732)	(7.7477658430870733, 4.572232991652724)	(-5.3880725244174927, -3.197937893652421)	1.0	z	0.86663
5	N	B	B	M					B	4	2	shapes	B	8	True	89	(-8.3380041456575036, -0.46665804885466144)	(7.6254004286319166, -0.57778184439705349)	(2.0829491951749688, 8.1620890744953876)	(-0.90764905463752399, 1.7837383826028805)	1.0	z	0.866091
6	M	A	N	B					N	4	0	shapes	M	8	False	89	(-3.7092098766069865, 3.7384641996370966)	(0.35658221076224805, 5.4394654411657779)	(-2.7103354509553048, -6.4688798263859582)	(6.6071315865861298, -7.418484811575305)	1.0	z	1.48782
7	N	A	N	A	M	B	M	B	B	8	5	shapes	B	8	True	89	(-7.385684763220544, 8.5372659382765441)	(-2.7521910204060225, 5.3467668055352533)	(-5.4356858492168527, -3.2549137007336544)	(7.7213830224966529, -0.90855956109253722)	1.0	slash	10.7534
8	M	A	B	M					B	4	1	shapes	A	8	False	89	(-4.5740193419031518, 6.24681175850389)	(-3.5675664793718305, -8.470811107419177)	(1.3157595664093229, 5.4255711302005416)	(1.21862831325965, -6.3643540108893983)	1.0	slash	0.578121
9	M	A	M	N	B	N	A	B	A	8	7	shapes	B	8	False	89	(-7.8388771856083661, 2.3413494363886933)	(2.8817341206806208, 7.6607019930373284)	(8.4042581214516865, -3.2251247707136663)	(6.9141748255195754, 8.3414713103471527)	1.0	z	0.635622
10	M	A	N	B	M	N	A	B	N	8	5	shapes	N	8	True	89	(7.3013079295886776, 0.52988075860156236)	(4.9946560833979401, 8.1921255601013563)	(-1.345119223418985, -5.9539615111129898)	(-3.3003896587117412, -1.2045634090568651)	1.0	z	1.56918
11	M	A	B	A	N	B	M	N	M	8	6	shapes	M	8	True	89	(6.9238342247109479, 0.91101581995941672)	(0.82420806152447845, -6.0118290762941804)	(3.4881634205436427, -2.4034724465203281)	(-3.1994596249200375, 4.1277505764551119)	1.0	z	0.944676
12	M	A	A	N	M	N	B	B	N	8	6	shapes	B	8	False	89	(-7.2139711597746841, -0.75880519482576325)	(6.7893832725180392, -4.9852216760054286)	(1.7408799384540075, 6.5831068667451227)	(-7.1118640805300801, -5.3361209307085602)	1.0	slash	0.726508
13	N	B	N	M	M	A	A	B	N	8	6	shapes	A	8	False	89	(3.1614408759759645, -0.62936777957864365)	(6.8007853124392259, -8.2150245433261677)	(-8.6689972188743631, 6.9985154255474971)	(2.7199787919234186, 5.9827904236745546)	1.0	slash	0.888251
14	M	B	M	A					A	4	3	shapes	A	8	True	89	(5.8579464981064699, 5.0600642566607554)	(-3.2350130818670459, 0.59795566776143971)	(-1.24405296631776, -4.7111213720640741)	(2.2521666325941236, -1.8828898850558122)	1.0	z	0.443711
15	M	B	N	B					M	4	3	shapes	B	8	False	89	(5.7735246835563103, -1.4433085356299751)	(-0.94261651319659112, 6.4382680822706604)	(2.8635151620650436, 8.1291741783386193)	(-8.0640911754118161, -7.5733069353871265)	1.0	slash	4.35379
16	N	A	M	B					M	4	2	shapes	M	8	True	89	(1.1286367747743551, 7.643188850973992)	(3.3158480003121635, -3.377755761084364)	(-5.7730765469479985, 1.526480341469048)	(-2.3889958788036463, -3.0737990493791205)	1.0	z	1.42932
17	N	A	B	B					B	4	1	shapes	A	8	False	89	(7.4206207745567987, 2.3880403032206488)	(-8.6158138935113886, 6.4510939124374964)	(-4.8744940394756906, -2.7690815120383263)	(3.3681741196197539, -3.9149375305964753)	1.0	z	0.824825
18	M	B	N	N					B	4	1	shapes	B	8	True	89	(2.0735830587293691, -1.5567649032974265)	(-3.1288929065651345, 2.7400262261279913)	(0.52387151392843556, 6.6565501405803769)	(-7.9256375851139458, -1.6318406144750375)	1.0	z	1.02252
19	M	A	B	A	M	B	N	N	M	8	6	shapes	N	8	False	89	(1.943828824677432, 0.72888404020139852)	(5.4498772593505063, -6.0778319589889396)	(-6.4327982226422611, -0.91731139955975394)	(5.8325235423641129, 2.9930775528031983)	1.0	z	2.028
20	N	A	M	N	B	M	A	B	M	8	4	shapes	B	8	False	89	(-7.9005974458730108, -1.7784799374434659)	(-2.7601435588641046, -6.3135898661933263)	(1.9448899747417983, -8.6608694698919209)	(8.0794483221226194, -4.4610598557508201)	1.0	slash	0.57983
21	M	A	N	A	M	N	B	B	M	8	4	shapes	M	8	True	89	(1.5078987277654967, -8.6314882792791821)	(-0.96290857550809328, 3.6224378252670952)	(-6.8623700563778947, 2.0444674885557976)	(4.9481648858967162, 2.8471871592857969)	1.0	z	1.10945
22	N	B	A	N	M	B	A	M	B	8	5	shapes	B	8	True	89	(-8.0752641157896434, 7.9814717006373428)	(0.6421168728080584, 5.3128885845000724)	(-0.11981317326081964, -6.8229120659699785)	(7.5470119510254392, -6.4859229098902578)	1.0	slash	0.986812
23	N	B	A	N					N	4	0	shapes	N	8	True	89	(2.6196351509312183, 2.1502163469243172)	(-0.30974740699536163, 5.0680246583986559)	(3.7806977494493186, -4.9684887291479409)	(-4.599776146202883, -6.9731211475311596)	1.0	z	0.528496
24	N	A	B	A	N	B	M	M	A	8	1	shapes	A	8	True	89	(2.5543678393161944, -4.088403723661771)	(-5.316676880495792, 8.4393672011799623)	(7.4449434319571175, 7.7359413273468292)	(-7.3740258931687501, -5.5499414099297866)	1.0	z	1.07635
25	N	B	N	B					N	4	3	shapes	B	8	False	89	(-6.3671513977065413, 0.048951269640344464)	(2.9333752208248622, -5.2662405116283537)	(4.6378169631568191, 7.5187181129483278)	(-3.245735462644201, -8.4721042993243323)	1.0	slash	0.82045
26	N	A	N	A					A	4	0	shapes	N	8	False	89	(-4.6688081005594011, -3.2141242120598319)	(1.2383987846487301, 0.77115272512370758)	(-6.0141205521756342, 6.327954150621073)	(7.782115940283699, -0.26480323957168039)	1.0	slash	0.895473
27	N	A	B	N					M	4	2	shapes	B	8	False	89	(-6.75994832722174, 0.29266751228646726)	(6.7869930280696771, -7.9585426404766428)	(-4.9303288378142458, -3.5743329259172336)	(3.8200990449240404, 6.7990262647273774)	1.0	slash	0.871168
28	N	A	A	M	B	N	M	B	M	8	7	shapes	B	8	False	89	(-4.8432798123055667, -5.5659890337126097)	(-8.6997876034752366, 6.4070170878397708)	(2.5164894938419362, -1.6349060976946372)	(7.3053844390973808, -1.5681774523698175)	1.0	slash	0.732538
29	N	B	B	N					B	4	2	shapes	B	8	True	89	(2.7282361563501105, -2.9895224868933843)	(7.9263837461044808, 3.193249474455417)	(-3.0259499915010482, 5.0888051201419806)	(-4.6373884701861163, -6.246574275130774)	1.0	z	0.956448
30	N	A	N	B					N	4	0	shapes	N	8	True	89	(4.7480341751290229, -7.7731219113123968)	(-1.7481576781924977, 6.9523127754439447)	(6.1564257685844179, 7.7906713553964728)	(-3.0491587349531653, -3.6838570643108195)	1.0	z	0.800116
31	N	B	M	N	B	A	A	M	B	8	2	shapes	M	8	False	89	(-2.9379848691902719, 4.9094445286417088)	(-8.2406656812775214, -2.9688681667542047)	(8.0783951096307156, -8.6675527339657688)	(-2.7394791030828793, 0.9026121702346277)	1.0	z	1.34784
32	N	A	A	B					N	4	0	shapes	N	8	True	89	(-7.420224787303308, -1.2527897526318803)	(6.766401379785707, -3.0753925248023481)	(-8.1330213125548081, 8.3276469619843745)	(1.5366058266696339, 7.9469431981047158)	1.0	z	1.3433
