TrialNumber	stim0	stim1	stim2	stim3	stim4	stim5	stim6	stim7	stim.probe	ttl.stims	corr.num	trial.type	stim.corr	block	match	Subject	stim.pos0	stim.pos1	stim.pos2	stim.pos3	ran	resp	RT
1	M	A	A	N					A	4	2	shapes	A	Practice	True	91	(-2.0617153036540108, 7.8937170240675449)	(3.8142172450579466, -6.2942809472682812)	(5.9959139224976337, 2.4768657286883702)	(-4.6175348209888751, -1.6424383924188977)	1.0	slash	2.48248
2	N	B	A	M	M	B	N	A	B	8	1	shapes	B	Practice	True	91	(-2.9431845791373403, -8.4794816949085448)	(-4.3653593451922106, 6.6642966901363199)	(7.4455381388464659, 2.1746074348201105)	(1.7810165768351354, -7.2275343643830068)	1.0	z	1.46613
3	N	B	A	M					B	4	1	shapes	B	Practice	True	91	(8.034062723327196, 5.4397107623472998)	(0.94591533626089053, -0.84544239128355692)	(-5.4486266732730257, 6.3153223333302773)	(-7.7317583860668417, -7.4011213401723239)	1.0	slash	2.71953
4	M	A	M	B	N	A	N	B	A	8	2	shapes	M	Practice	False	91	(-0.39017158425605025, -8.1079282519365954)	(8.6728820612857618, 6.0919772361503401)	(-4.1561753897145595, 5.0248084308532643)	(2.5681696800042495, -2.5044979935162877)	1.0	slash	2.64506
5	M	A	M	B					N	4	3	shapes	B	Practice	False	91	(5.5573401868780934, 8.4601564356850254)	(5.7722112443670586, -4.1417213992050534)	(-1.4469500305290071, 3.4106346102903782)	(-1.317771108117789, -6.6534015112884655)	1.0	slash	1.67672
6	M	A	A	B					M	4	2	shapes	A	Practice	False	91	(8.315647374768826, -2.0824962635460489)	(3.6990126129907441, 2.8131069954086154)	(-8.2685646126632406, 4.3661114863340647)	(-0.41666525794847153, -0.394043793480785)	1.0	slash	1.53615
7	M	A	B	B	N	N	A	M	N	8	2	shapes	B	Practice	False	91	(-0.20190437314272813, -1.5481437665840225)	(6.315486632372858, -1.3597015511240711)	(-6.5600329169866125, -6.0504906525440791)	(2.4412362858890297, -7.3906023019770011)	1.0	z	2.65743
8	N	A	M	B	N	M	A	B	N	8	0	shapes	N	Practice	True	91	(-8.5276157650225795, 8.4246780412236255)	(3.2837457442720606, 7.4255409480584831)	(-4.937779932774335, -2.1593724926666482)	(-7.4250712246276844, 2.4104959289424173)	1.0	slash	1.59502
1	N	B	N	M	M	A	A	B	A	8	6	shapes	A	0	True	91	(5.5220624126595776, -0.84048804069922145)	(2.2527607912832277, 2.7221907825588119)	(1.5050891787800253, -8.7457641377297044)	(-5.2074691271542211, -3.8620560385209686)	1.0	slash	1.70759
2	M	A	A	N	M	N	B	B	M	8	5	shapes	N	0	False	91	(7.2357999354437172, 4.4785769482139628)	(-3.314779478375006, 3.7954359077709103)	(-7.1593796580462818, 2.3479947083093293)	(4.8590255870871726, -0.077632876090829583)	1.0	z	1.523
3	N	A	N	B	A	M	M	B	B	8	1	shapes	A	0	False	91	(7.9617908279637213, -0.51972121736175225)	(-6.674346382541577, 2.7575047549263392)	(-0.41221501783445724, -6.7318889306353853)	(1.6940966467316283, 1.5148847095040647)	1.0	z	1.74068
4	M	B	A	M					B	4	1	shapes	B	0	True	91	(-3.3304705119535498, 8.5317176129996639)	(0.99184278564856854, -2.323366106234972)	(-3.4905324215261473, -0.19318373628480678)	(3.405545716235082, 1.4118993581954129)	1.0	z	1.64991
5	N	A	A	N					A	4	2	shapes	A	0	True	91	(4.322672312992708, 0.73606193812439535)	(-3.8014302056291225, 2.4750407171694278)	(-8.3163219439294522, -0.28227012132757245)	(1.8589960954382683, -8.3335405366396085)	1.0	z	1.2268
6	N	A	A	B					A	4	2	shapes	A	0	True	91	(3.39184295434133, 1.6713353167505822)	(-5.111071727194501, 0.93857536579280421)	(6.1933427323370811, -4.9349113853913655)	(-1.2875280980521939, -3.182010313753004)	1.0	z	1.51936
7	M	B	B	A	N	N	M	A	N	8	6	shapes	M	0	False	91	(-6.3220506079099046, -0.11333243443613306)	(4.8282556298392993, 3.8039637140252491)	(-2.6835534183661673, -8.1050272992384151)	(0.17572155947287094, -4.6708155659010195)	1.0	slash	2.43479
8	N	A	M	A	M	N	B	B	B	8	7	shapes	B	0	True	91	(-1.4585933468135179, 1.2670557029489729)	(-5.6957965554296655, -6.1394692574750298)	(0.82969345413609474, -4.7755743185143587)	(-2.6751512149400156, 7.5178693380116464)	1.0	z	2.07652
9	N	A	M	A	M	N	B	B	M	8	4	shapes	M	0	True	91	(2.3115552065492064, 5.1389987576397989)	(0.23814200272746433, -0.9028109221588565)	(4.3855902945633893, -3.159991867420989)	(7.1201163692468779, 0.81475387841888391)	1.0	slash	1.65601
10	N	B	M	M					N	4	3	shapes	M	0	False	91	(3.6622919243934398, -5.4325690867615881)	(-1.0838632769007104, -8.2776314820273331)	(-5.2799747936782158, 8.1445256301234394)	(3.3425221469651145, 4.2326898283029184)	1.0	slash	1.33967
11	N	A	A	M					N	4	0	shapes	N	0	True	91	(-6.333939345274497, -4.5749882400000885)	(-3.6746169279590237, 1.6988664296937745)	(7.6850125860734266, -1.5439669708949104)	(0.28264864453754157, 7.4391569175624817)	1.0	z	1.19838
12	N	A	A	N					N	4	3	shapes	N	0	True	91	(5.6268036516165392, -3.2593727701909856)	(-1.1075698160612406, -0.093072925323630429)	(6.0374237505294772, 3.6960005702254826)	(-1.6695794700549955, 4.9465352209831579)	1.0	z	1.70703
13	N	B	A	A					A	4	1	shapes	B	0	False	91	(-6.4960866837114279, -3.978181136582263)	(6.4867858523186239, 7.7677721301199512)	(7.3879298897410699, -4.2678439883423263)	(-1.9534341282791505, 8.6683948756399616)	1.0	slash	1.16647
14	N	A	A	N					B	4	3	shapes	N	0	False	91	(-0.22632124489629923, 8.2843096189839507)	(4.4553105322002491, 1.4840401847290909)	(4.5245409792890907, -7.3348443905980343)	(-7.0972705319688636, -3.7448842569182048)	1.0	slash	1.44819
15	N	B	B	N	A	M	M	A	N	8	4	shapes	A	0	False	91	(0.64682133202415137, -3.1842122634262244)	(-8.3100215543779061, -7.1950940985818113)	(5.125532179804928, -1.4521067073422795)	(-0.41947788160902988, 5.8759471189732295)	1.0	slash	1.60388
16	M	B	N	B	N	A	A	M	N	8	7	shapes	M	0	False	91	(6.2751964943355834, -2.9619174792723229)	(-6.1411392043144746, 4.2414084980540157)	(1.764646045167515, 4.6837378742526212)	(3.4466469759993892, -6.9003782649681478)	1.0	slash	1.22315
17	N	B	N	M	A	A	M	B	B	8	1	shapes	B	0	True	91	(-6.6004375154199888, 8.1349599103917001)	(-8.5162567044446309, -4.6898143252469708)	(-7.5154374338810479, 3.0396588371303466)	(5.3627386616423056, 3.6855066595257302)	1.0	z	1.25503
18	N	B	A	B					B	4	0	shapes	N	0	False	91	(8.4541923756170405, -5.6186903740580707)	(-7.3416368792380879, 5.3580180666616712)	(4.8383817422630848, 0.81477750905728463)	(-3.6693067289173618, -6.3711851925587766)	1.0	slash	1.10256
19	N	B	M	N					B	4	2	shapes	M	0	False	91	(7.8037067066363974, -4.0575420459750884)	(-4.7940535948909107, 2.5247051433987995)	(-5.3871627683304126, -8.7457508803410597)	(0.86507654156542912, 1.4339620874979957)	1.0	slash	1.01942
20	N	B	B	M					M	4	0	shapes	N	0	False	91	(-3.3434122481710338, 0.31271040663366101)	(1.3696417608250755, 5.3618265516147563)	(2.0231489456717568, -0.21292469451699247)	(-8.3229221571913392, -4.6787676234863884)	1.0	slash	1.06582
21	N	B	B	A	M	M	N	A	M	8	5	shapes	M	0	True	91	(-1.721665137062721, -7.3256686999522191)	(-1.291408806442738, -0.028597991864248939)	(8.4653269124203163, 1.8713865498743889)	(2.5845695779360049, 6.0581672255722552)	1.0	z	1.09736
22	N	B	B	M					N	4	0	shapes	N	0	True	91	(-3.6613713886524941, -7.9420969713732115)	(1.4406189195917793, 4.8369756920846463)	(4.1255815650676482, -3.0938684834743686)	(-5.6128354145631789, 2.0654221050101782)	1.0	z	1.13519
23	M	A	B	A					M	4	3	shapes	A	0	False	91	(6.1178126545499829, -6.884511235510046)	(0.63467912824872919, 8.6921789041422883)	(-8.0438064804964959, 7.9281377423246333)	(-0.88853894460658456, -7.07674748984304)	1.0	slash	1.21951
24	N	B	A	A	B	M	M	N	A	8	4	shapes	B	0	False	91	(-4.1964905054962731, 5.6891911279333431)	(4.1553439769882985, -5.3395481011947368)	(-1.9897847761045355, 0.62467942782883057)	(8.6922601112246447, 6.3704273907690236)	1.0	z	1.18236
25	M	B	B	A	N	N	A	M	N	8	5	shapes	N	0	True	91	(-6.2873897996427139, 3.8271411814875318)	(-5.0685920361326797, -6.3770136049886759)	(-0.6531818075606175, 0.14800208147244476)	(1.9724977015435297, -6.3798130161892708)	1.0	z	1.54179
26	N	A	N	A	M	B	M	B	N	8	4	shapes	M	0	False	91	(-3.7621187046462863, 5.2521155180462262)	(0.13683275276309459, 0.054124040206534829)	(7.1672806011483505, 2.3917008294964077)	(-2.5503075409934217, -3.4045869846448005)	1.0	slash	2.37147
27	M	B	B	A	M	N	A	N	N	8	5	shapes	N	0	True	91	(2.099109474262983, 1.3512155648819153)	(-6.5995529173064487, 7.280249844944958)	(-7.5682407717447484, -0.57275883141307382)	(1.0162402935668169, -7.3315265245650671)	1.0	slash	1.49502
28	N	A	B	N					A	4	0	shapes	N	0	False	91	(-6.445237547589965, -6.2174725576431182)	(3.8382062115673161, 1.5178331485666128)	(2.3227100942405112, -7.0455781749257405)	(-1.5066159902867797, 0.67887395440685161)	1.0	slash	1.08668
29	M	B	N	B					M	4	0	shapes	M	0	True	91	(5.5017315637521733, -0.88843131819279897)	(-6.0360371394453187, -2.1462979091067993)	(-8.4588367500036341, 2.845407053918878)	(3.7948998102850364, 8.0086203872794499)	1.0	z	1.21628
30	N	B	N	B					B	4	1	shapes	B	0	True	91	(-8.6434719102367428, -5.5941795469743685)	(-5.412242372259068, 6.4959787541165692)	(8.5219200310627379, -3.3938326351268344)	(6.9990876667282222, 8.4158855819395058)	1.0	z	1.61958
31	M	B	N	B	M	A	A	N	M	8	4	shapes	M	0	True	91	(6.2089869465620016, -7.5815947338028522)	(-2.2120863624145484, 3.5557528449686959)	(3.4621007185236845, 3.7254607129959538)	(-7.9761886037012317, -3.1997939016635986)	1.0	slash	1.83114
32	M	A	M	A	B	B	N	N	M	8	3	shapes	A	0	False	91	(-0.42743412597164188, 0.7195792472177871)	(6.6131956107637304, -8.1679909360770147)	(1.2007123939423732, -4.4502906613090953)	(-5.4767816697046792, 1.2610038622926698)	1.0	slash	1.62113
1	M	B	B	N					B	4	1	shapes	B	1	True	91	(-3.3443118535998542, -5.5147136493397513)	(4.9052681761652615, 0.52123348733288566)	(-3.9708569822238085, 2.3017207132254747)	(7.5481439481552002, -7.9779164146554979)	1.0	z	1.38031
2	M	B	B	N	A	N	M	A	N	8	5	shapes	N	1	True	91	(-6.1092020808887195, 2.9285087406083914)	(7.9113697537147658, -2.418795890382877)	(1.6121604966328711, -0.49745899295189311)	(-6.3029930008662145, -5.0182522499880493)	1.0	slash	2.21824
3	M	B	B	M					M	4	3	shapes	M	1	True	91	(-2.9956525932059854, 2.3188376359200848)	(-8.1688523264310522, -3.1181980643869238)	(1.8006552283717614, -3.107288209297705)	(5.954210584855975, 1.3642941539465792)	1.0	z	1.35678
4	M	A	B	B					B	4	1	shapes	A	1	False	91	(1.3832771260524908, -2.9911083664460234)	(-7.5120215667578005, 4.8634105370109229)	(0.42421311211125889, 2.2316110586278484)	(-2.3117670569077333, -0.98525995625630003)	1.0	slash	1.3194
5	M	B	A	N	A	B	N	M	M	8	0	shapes	M	1	True	91	(-1.5252942419395987, -0.054915717831979904)	(-8.1754469998896599, 1.9080238185351757)	(7.4698473101834715, 5.4477138614700955)	(8.0438827544296139, -8.48844292548862)	1.0	slash	1.24308
6	M	B	N	N	A	M	A	B	B	8	2	shapes	N	1	False	91	(-2.3524435441570697, -2.6158875694664978)	(-4.1447346404459502, 7.4700200691599186)	(-3.8212756353354287, -8.165402872786883)	(-4.3133013344107747, 2.4959761832177474)	1.0	slash	1.8205
7	M	B	N	M					B	4	3	shapes	M	1	False	91	(0.41325812005352169, -8.6673877335063345)	(5.1698286773120383, 3.1014864137692619)	(-5.144966077929606, -5.2361754791886987)	(-7.4498111640096942, 7.6819378542680603)	1.0	z	1.22612
8	M	B	N	A	A	M	B	N	A	8	6	shapes	B	1	False	91	(-0.16802455526765492, 5.6259846378993394)	(5.2575398226139214, 4.8410695021111607)	(3.6505309973605939, -4.3681734486735664)	(-3.0295689846860467, -3.3752535839875648)	1.0	slash	1.19385
9	N	A	A	B	B	M	M	N	N	8	4	shapes	B	1	False	91	(7.8069973503459167, -4.7336745394989075)	(5.4299844849139554, 2.3186630571402969)	(-7.1144096166349042, 3.7031444739578845)	(0.28760927468819553, -2.5722289057400376)	1.0	slash	1.35134
10	N	B	B	A					B	4	2	shapes	B	1	True	91	(-3.1416373927347445, -8.2411829617772092)	(1.7959346031168053, -6.7577401717175434)	(-1.0813468773495503, 3.0950766998185397)	(2.5902634076527349, 8.0682552297380141)	1.0	z	1.139
11	M	B	A	M	B	A	N	N	M	8	5	shapes	A	1	False	91	(1.3844017095488201, -3.5927140180869195)	(7.1218926137764704, 7.0548478019992835)	(-0.41605952605900853, 3.4468523106887936)	(-4.9938350032438983, -4.1845691598510992)	1.0	slash	1.30433
12	N	A	B	M	N	B	A	M	B	8	5	shapes	B	1	True	91	(-8.3186391559353741, -3.7856787469040167)	(-8.5046727258838128, 3.2580916740802675)	(-2.7002331923327789, -3.6496316255751395)	(3.1630763319720572, 1.0927467640419923)	1.0	slash	1.53631
13	N	B	M	M	N	B	A	A	A	8	3	shapes	M	1	False	91	(1.9663419802042128, -7.1287023292969636)	(7.2392716765849006, 5.8604053784732368)	(0.34671546244736717, 5.3621402913482008)	(-7.9339288647178385, 6.0048779801420267)	1.0	z	3.19388
14	N	A	M	N	A	M	B	B	A	8	4	shapes	A	1	True	91	(4.4866812024819485, 8.0708443478136616)	(-4.8454004060198708, 5.7055721925264642)	(0.071950804511326183, -4.0870582614268125)	(3.890907553231699, 1.8746812539126996)	1.0	z	1.90325
15	M	B	N	A					M	4	0	shapes	M	1	True	91	(2.7979390399755424, -8.1236486199954125)	(5.2715013248693303, 8.5101285225204215)	(-7.3078622677867875, 6.7303852102130559)	(-3.7333592640676763, -4.8257180478103336)	1.0	z	1.36503
16	M	B	M	A	A	B	N	N	N	8	5	shapes	B	1	False	91	(-8.0338793316326065, -5.1544017248992624)	(3.5509172101793567, 1.9689882499725559)	(-2.8188047218111674, 1.6216296869680651)	(8.4417203363979709, 8.5044434255533901)	1.0	slash	1.78158
17	N	B	M	M					M	4	2	shapes	M	1	True	91	(2.5033706707411962, 0.52213144667791411)	(-1.4729503496257763, 8.7037953082779147)	(-1.2081659077908116, -7.3784927415174852)	(4.6562210933577894, -4.9653993115769612)	1.0	z	1.26007
18	N	B	N	B	A	M	A	M	N	8	2	shapes	N	1	True	91	(-7.9248278798944263, -6.7095071758275999)	(-4.902001826730384, 2.1058872733074683)	(-7.8374631287602279, 7.3565484706000994)	(7.4092341571516478, -5.2654023919742263)	1.0	z	1.09971
19	N	A	B	A					A	4	0	shapes	N	1	False	91	(3.6286883986325975, 8.1889347373424002)	(-0.028004453741132806, 4.0772919755181025)	(-6.0195998238876651, -7.7802525129185707)	(2.6880287297568035, -7.5539359351362547)	1.0	slash	1.31341
20	N	B	N	M	B	M	A	A	A	8	3	shapes	M	1	False	91	(-1.5259478628383789, 3.2647096261760176)	(5.8308589081216731, 2.4317145600282899)	(5.2436767044306691, -8.2152320952826994)	(6.5030613959996906, -2.0553072537378876)	1.0	z	3.32689
21	N	A	M	M					N	4	1	shapes	A	1	False	91	(1.7316979167892974, 2.5520072483080671)	(-5.3360472272307558, 6.2254633526250629)	(0.50817413106624976, -3.5986486355811529)	(-6.9757900488182578, -6.0569777148196984)	1.0	slash	1.1104
22	N	A	A	B	N	M	B	M	N	8	4	shapes	N	1	True	91	(-2.4715489060081204, 5.4816387034407796)	(-2.948586272888245, 0.56062856080512979)	(3.3500294840915092, -3.3981341441993429)	(5.6236604053368442, 0.79291467307359653)	1.0	slash	1.24403
23	M	B	A	B					B	4	0	shapes	M	1	False	91	(-4.4879697740366673, 6.7879033406510008)	(-7.943419146221828, -3.7243669026705328)	(1.6624066708982337, 7.5102551074570343)	(3.4118649295665833, -0.54565864975598011)	1.0	slash	0.92362
24	M	B	M	B					A	4	1	shapes	B	1	False	91	(-8.3805626077912425, 3.7861109968346707)	(-4.2807822599809695, -7.3110381744458302)	(7.9870521353513304, 3.6140140438933024)	(7.6732773329042487, -8.7345476842302379)	1.0	z	1.80531
25	N	B	B	N					M	4	1	shapes	B	1	False	91	(-0.72526628600301279, 0.46282244930716487)	(3.2042848914865445, -5.1697693529633657)	(-2.5246371638102838, -7.9695191752637271)	(1.6908484393961771, 3.851711108819547)	1.0	slash	1.14194
26	M	A	N	M	N	B	A	B	A	8	5	shapes	B	1	False	91	(-0.057256475401272766, 1.7961176489968178)	(-6.4772170146089563, -3.4411318090916749)	(-2.374025729678876, 6.6023029883558344)	(4.1980312653194609, 3.7661673895478422)	1.0	slash	1.27091
27	N	B	M	B					B	4	3	shapes	B	1	True	91	(3.388437333798386, 1.6580050257391434)	(-4.2867720417942188, 6.5779229887767805)	(2.1250681009605312, -6.0010634058103864)	(-3.3724411844174353, -0.040811084334935188)	1.0	slash	2.23422
28	N	B	M	N					M	4	2	shapes	M	1	True	91	(-7.1590120941268944, 3.5335602177424956)	(1.137248175941048, 2.0404474644117911)	(-8.0751690938869292, -8.7230107103451502)	(7.4470945462855553, -5.9321208547621316)	1.0	z	1.03568
29	N	A	A	N					A	4	2	shapes	A	1	True	91	(-1.6469502537793907, 5.9714784847370836)	(1.660865450351384, 3.0574098638649367)	(7.362478929974813, -0.34688982429676862)	(-5.8170410486582886, -7.3792612949211547)	1.0	slash	1.49529
30	M	B	B	A	A	N	N	M	N	8	5	shapes	N	1	True	91	(0.46015027335582381, 1.8431193569863087)	(-2.0886698932614509, -8.1242051998426792)	(-7.9234597257725934, 1.1783834907186606)	(4.0456860721555756, -7.7960876033622375)	1.0	slash	1.46488
31	M	B	N	B	N	M	A	A	B	8	3	shapes	B	1	True	91	(-4.632486106837832, -3.31982767692993)	(6.2322181154939731, 5.1128744981115091)	(-1.2717215359861251, -8.4055507804025922)	(1.1384050149577014, 5.4515124430779931)	1.0	slash	1.54474
32	M	A	M	N					M	4	3	shapes	N	1	False	91	(-6.4041870311945228, 6.0952457332605583)	(3.521207169243775, 0.82244672905229876)	(7.3348741069870407, -7.8481538006517324)	(-7.86802588528119, -0.51712059331989835)	1.0	slash	1.15802
1	N	A	M	N	M	A	B	B	N	8	6	shapes	B	2	False	91	(-2.4607759717254085, -2.2942283980503166)	(3.5168350429229012, 1.7761670131393821)	(8.6948645680128962, -0.97781029087456073)	(8.3192540953063308, 3.2505603955943076)	1.0	slash	1.13165
2	M	B	M	N					M	4	0	shapes	M	2	True	91	(-0.4834534523694991, -5.3534936480147772)	(-0.5626164947516461, 3.5222483370585884)	(7.4246729563052547, 5.1880732841229538)	(6.3003835925945957, -3.5260469245030155)	1.0	z	1.13938
3	M	A	M	N	N	A	B	B	B	8	0	shapes	M	2	False	91	(-8.5925735154618543, -1.2470006269945051)	(-2.9192492349914385, 1.2630805866694903)	(8.34158282999514, -6.2957058811106767)	(1.2721693946350179, -1.9264258605828566)	1.0	slash	1.05301
4	N	A	A	N					M	4	3	shapes	N	2	False	91	(-7.9264672010924686, 4.1852673233067073)	(-7.9981244493615398, -5.7070303004813931)	(1.5156283855462256, 0.39300324045778723)	(5.3400577091600141, -2.6040698846948453)	1.0	slash	1.31571
5	M	B	M	B					N	4	3	shapes	B	2	False	91	(-1.1802933758847916, -4.73973899319342)	(-8.1270493322542929, 5.1241431528261678)	(7.2069291820728818, 1.4588496839916303)	(7.1694981193411209, -7.3278847462414411)	1.0	slash	0.984382
6	N	A	N	A	M	M	B	B	A	8	1	shapes	A	2	True	91	(-5.0180247631687562, -1.6600047569772336)	(5.8313285584351391, 8.3161139047924699)	(8.2911160547037177, -4.1857204816509137)	(-6.0659337359212415, 4.6866758764958778)	1.0	z	1.31984
7	M	B	A	M	B	N	A	N	N	8	1	shapes	B	2	False	91	(-7.698216920404878, -7.6073419619236633)	(-6.1938505020087291, 5.9407724128562975)	(-1.7511515136760725, 5.0663432103636943)	(2.8562729651517937, -7.7612808922981102)	1.0	slash	1.71751
8	M	A	B	M	B	N	N	A	M	8	0	shapes	M	2	True	91	(3.4664539269749017, -0.77398236768545559)	(-7.0829123962761997, -4.054590398179017)	(-1.7756827460808307, 3.5343201910460262)	(5.9708830514941802, 2.4201774100572599)	1.0	slash	1.3052
9	M	A	B	B	N	N	M	A	A	8	7	shapes	A	2	True	91	(-8.2936839978381727, 1.2613653607818591)	(0.56302614425196928, -6.8970374326822164)	(-0.72176955236488993, 5.6659209322968103)	(-1.6298594263440389, -1.8981842115881644)	1.0	slash	1.26373
10	M	B	A	A					M	4	3	shapes	A	2	False	91	(7.2014374245026218, 2.1798028620986507)	(-8.7290952749873174, 3.1188541906744245)	(-0.84375514880199631, -2.1606612419511766)	(6.5994030524915068, -6.3070097353149048)	1.0	slash	1.14633
11	M	B	B	M					B	4	0	shapes	M	2	False	91	(-3.9890800121162133, -2.8786648500607983)	(3.119419471768472, 0.047104295700489018)	(-3.0977349854956415, 2.8188915951841764)	(7.0305653251180278, -4.8324651667206862)	1.0	slash	1.08
12	M	A	B	M	A	N	B	N	A	8	1	shapes	A	2	True	91	(-1.4825897538136896, -0.3566382811666049)	(3.924670847539522, 1.2180868290844753)	(-2.4338440877723926, 7.9484409096870046)	(4.2697282136049388, -7.016978195285879)	1.0	slash	1.30945
13	M	B	B	A	M	A	N	N	N	8	1	shapes	B	2	False	91	(6.3651847961469024, -7.5405545777961862)	(4.0771846794264412, 5.222163452995412)	(2.0804992323771643, -7.5442410001055586)	(-4.1644872751736735, 1.9664674391075678)	1.0	slash	1.05323
14	M	B	N	N	M	B	A	A	A	8	6	shapes	A	2	True	91	(-2.6114768225284228, -1.674316553119426)	(-3.2721761229998831, 3.3372672768178084)	(4.9441723676800144, 1.6335060624051696)	(-3.1442118581779992, 7.7432465696670505)	1.0	z	1.47093
15	N	A	B	N					N	4	0	shapes	N	2	True	91	(-1.0629779681268587, -3.627987590871415)	(3.9927065259939205, -5.7341778239387668)	(5.188854180041309, 2.2684645606507168)	(-2.5314628900500615, 0.81320829416676865)	1.0	z	0.938393
16	N	B	M	A					A	4	3	shapes	A	2	True	91	(8.2458727704852635, 5.547350345629777)	(-0.098952491453642821, -5.1473867656780516)	(-0.30016795254104522, 6.3517338810311532)	(5.6726252837061608, -1.7688512271851113)	1.0	z	1.28773
17	N	A	A	N					A	4	2	shapes	A	2	True	91	(4.6836030074242707, -8.3133886329350553)	(-1.3593937853906297, 8.0879410186358633)	(-4.8740000651097315, -8.1829186127592717)	(8.7152126580534812, 5.012185681442844)	1.0	z	1.36568
18	N	A	M	M	N	A	B	B	M	8	3	shapes	M	2	True	91	(-5.8545894607441635, -6.7939303290841435)	(-0.88652075473392244, 1.3111254698276493)	(6.8291518062729732, 8.6044058880329359)	(-0.55632000642595614, -7.1681459746987812)	1.0	slash	1.15325
19	M	A	B	M	B	N	A	N	B	8	1	shapes	A	2	False	91	(-2.7420010545923512, -7.0011524268507035)	(2.4231463479279203, 2.3549856000082183)	(2.5939897783627828, 8.0812580202135997)	(-8.2556548857226542, 1.0008101443342508)	1.0	slash	1.44695
20	N	B	N	B	A	A	M	M	M	8	0	shapes	N	2	False	91	(-8.6267807387745599, -0.41957521672405562)	(-1.3390045775064152, -0.2951749284339833)	(5.734475257787409, -2.8025304258807262)	(-5.1502158895238956, 7.3124964418247593)	1.0	z	1.25846
21	N	A	B	N					A	4	1	shapes	A	2	True	91	(-4.8969307518962104, -1.4971594063330489)	(-2.2431473999845331, 3.4121701143000998)	(3.1822142853682251, -6.5531393322513498)	(6.027208239320025, 1.8264828561617161)	1.0	z	1.23174
22	N	B	M	B	A	M	N	A	M	8	5	shapes	M	2	True	91	(4.2446925974239154, -6.9715436143719121)	(-1.7830620327226363, 4.7183349370301837)	(5.5511350511008981, 5.1197543470192581)	(7.9632486720378104, -1.2190495334901064)	1.0	slash	1.12138
23	N	B	N	B					N	4	1	shapes	B	2	False	91	(0.69085912686246509, 8.1641405291449622)	(1.4711283910115878, -3.062143467656993)	(-2.7777908510428526, -6.4209004947948243)	(-7.6525669666620146, 8.578657186137697)	1.0	slash	1.0435
24	N	B	A	B					B	4	1	shapes	B	2	True	91	(5.586489740636063, 5.3016681597499726)	(-0.70787856867804244, 2.7255771416201462)	(-0.40468471697646535, -6.685782145691066)	(3.0443996309188286, -3.3065101346570591)	1.0	z	1.19693
25	N	A	B	A	B	M	N	M	N	8	1	shapes	A	2	False	91	(6.2709163123209013, 5.0179818061753299)	(-0.36146965501205663, 5.9647279538887457)	(-8.4065386134123585, 1.5394333274495153)	(4.0184792197048314, -5.6808077081023711)	1.0	slash	1.08854
26	N	B	N	M					M	4	3	shapes	M	2	True	91	(-6.0762361745905418, -2.8749084094412707)	(4.1647632829951142, -3.0138524044730266)	(-5.2829689892084311, 1.5716550143758212)	(4.1938125098553503, 2.2541267824801707)	1.0	z	1.46436
27	M	A	B	M					B	4	0	shapes	M	2	False	91	(-5.9509482947086134, 0.99569507716788763)	(6.3895145939842237, 2.5278764086706556)	(5.7673732519664753, -3.0113825656729825)	(-6.4465288992210166, -6.6248521009058647)	1.0	slash	1.22194
28	M	A	N	B					A	4	0	shapes	M	2	False	91	(-7.1631582525845499, 1.8273261755193282)	(7.5124702898256075, 2.4255085441900004)	(-2.8990392166222465, -5.9892451942924465)	(3.387802976413969, -1.6464461157827044)	1.0	slash	0.9234
29	N	A	N	B	A	M	B	M	N	8	6	shapes	B	2	False	91	(-0.086536862867328423, -1.8088897605508611)	(4.4269449306890802, 0.24590500329877152)	(-2.5567289860869042, -7.2738881690621238)	(-4.8549802021866793, 7.7430611629433841)	1.0	slash	1.26307
30	N	B	N	B					N	4	0	shapes	N	2	True	91	(7.1095472340249799, 4.414107393300835)	(-6.0575207629649128, -2.3786031152608231)	(6.8031199528631294, -4.8569281391489962)	(-2.1876096835720684, 1.8292301953610846)	1.0	z	1.09273
31	N	B	A	M					N	4	1	shapes	B	2	False	91	(-7.1710053775883962, -7.965837911454023)	(2.0566562871813954, 4.847383969402518)	(1.0218196830078057, -4.3805356645140829)	(-3.1969422775497458, 5.8692250601636431)	1.0	slash	1.04446
32	N	B	B	M	M	N	A	A	B	8	1	shapes	B	2	True	91	(7.7083506665192481, 8.4625619361649278)	(3.2663178149142933, -2.3963341515710459)	(8.5961015368056088, -5.6212631454759805)	(6.1006199800260443, 3.9870631107954839)	1.0	slash	1.66215
1	M	B	M	N	A	A	B	N	N	8	0	shapes	M	3	False	91	(-1.1434808408481869, -2.7530088572748568)	(-2.9801086650357504, 7.1495683216181583)	(6.7677807165257331, -5.5384786791079481)	(0.21254572926568116, -6.785328175257515)	1.0	slash	1.06966
2	M	B	A	N	N	B	M	A	B	8	5	shapes	B	3	True	91	(-3.8737644871158619, -5.1529059388045795)	(-6.9368024394773533, -8.2931315113126338)	(0.32791317659459551, -2.6498955844699994)	(-1.6601721350693923, 4.6522269397958045)	1.0	z	1.71726
3	N	B	N	B	A	M	M	A	A	8	7	shapes	A	3	True	91	(2.3950774910070454, -7.9619938032866955)	(-0.92506162907518608, 2.7663250447736925)	(-5.2145683863977244, -6.0824395205076733)	(8.3207337398377668, -8.7161011522231604)	1.0	z	1.16283
4	N	B	M	B	N	A	A	M	M	8	3	shapes	B	3	False	91	(-2.9116464808089448, 3.3939901044897063)	(-7.482646737636049, 0.57066695525907818)	(8.5409750448406747, -0.52808888632284656)	(7.4821967456711889, 8.1406840544838595)	1.0	z	1.60589
5	N	A	A	N					A	4	2	shapes	A	3	True	91	(5.7093407804909049, -5.8616288093600808)	(-8.7121323732278899, -5.5072183835072614)	(-1.5496985361752813, 1.690580160149274)	(0.2220149226992838, 7.042144072433695)	1.0	z	0.949624
6	M	B	A	M					A	4	2	shapes	A	3	True	91	(4.9851071233869337, -1.8753843491300266)	(-1.5054629716471304, 0.16547536422002196)	(1.0773729758691175, 6.7806029728198389)	(-6.908247452321894, -5.2920604524489017)	1.0	z	1.20161
7	M	A	M	N					B	4	0	shapes	M	3	False	91	(1.0657474320691094, -4.6119150925707828)	(-4.4407605646437656, -7.7036941467065398)	(4.7404662095934018, 5.7568151344923919)	(-1.7242027801951414, 7.5744166162638003)	1.0	slash	1.29927
8	M	B	N	M					N	4	2	shapes	N	3	True	91	(1.2621176727231891, -5.3650633212591909)	(-2.4859431221535786, -0.21456293679936778)	(5.5779339435327007, 4.5243869219656254)	(-7.0009374177471626, 1.5447174706459279)	1.0	z	1.13674
9	M	A	N	B					B	4	1	shapes	A	3	False	91	(4.8735804945329306, -0.57989054995007194)	(0.74002159675694124, 7.421148952270233)	(-4.3045802448382178, -2.7096429172863248)	(-5.1769470391482422, 6.5967109876702335)	1.0	z	0.936615
10	M	B	N	M					M	4	0	shapes	M	3	True	91	(-6.9705176948241174, -3.212113882753064)	(-3.411495448920248, 1.3300945838834579)	(2.2578660758753006, -0.28799919607517488)	(8.3884769295742316, 8.3042736847866934)	1.0	z	0.880278
11	M	B	B	A					A	4	1	shapes	B	3	False	91	(7.9455260724851655, -7.3147962841939993)	(-0.16734272396038996, 2.435572578808209)	(7.0376633687966521, 4.8389978871422841)	(-6.4591934498637293, -6.7278254967978199)	1.0	slash	1.35394
12	M	A	B	A	M	N	N	B	N	8	6	shapes	N	3	True	91	(3.900231912330856, 6.0286493885459844)	(2.3822130688571068, -1.1687875684516493)	(2.2283144402984369, -6.9894401145198914)	(-7.6912196395761958, 0.86233514177939163)	1.0	slash	1.3095
13	N	A	B	N	B	A	M	M	M	8	6	shapes	M	3	True	91	(-0.85213566293129972, -8.4054837193653942)	(-7.804049935025354, 6.338281674778834)	(2.1061989930394827, -0.74129401565570419)	(7.1297918272091927, 8.6923341446484592)	1.0	slash	1.19491
14	N	A	A	M	B	B	M	N	B	8	4	shapes	B	3	True	91	(-7.1555885908460244, -1.3417330719918183)	(8.4472486449701627, 0.46320457163076867)	(-3.6986402885273595, 4.4971090347937004)	(6.4180724534209066, -4.031145704160334)	1.0	slash	1.37457
15	N	B	N	A					A	4	2	shapes	N	3	False	91	(-8.6240505205389937, -0.97150885163592449)	(5.6464799760638691, 1.1311819606220812)	(-0.24660488895520771, 2.5314769897742302)	(8.7298600099529864, -6.8394605362232479)	1.0	slash	1.1183
16	M	A	N	M	N	B	B	A	N	8	7	shapes	A	3	False	91	(-0.65060243570085419, -0.60583554763536007)	(3.7611427582903953, -8.048749103112609)	(-5.7546881052194507, -1.7802755412932996)	(-5.9176615296318804, 4.7011452812781815)	1.0	slash	1.21197
17	M	A	A	M					N	4	1	shapes	A	3	False	91	(1.6220792848601278, -0.71282442718738004)	(-7.3638443662888458, -0.63286604075390152)	(-1.8859665828177476, 4.3846511469220673)	(8.297719419455003, 8.3728253488006743)	1.0	slash	1.3638
18	M	B	N	M	A	A	B	N	M	8	5	shapes	A	3	False	91	(-5.3460680442008908, 5.9573732570449494)	(-5.2882683782558395, -8.0660726267460578)	(3.8905329680520726, -7.9756100153974305)	(5.649095722510566, 4.7451598141175051)	1.0	slash	1.07907
19	M	B	A	M					A	4	2	shapes	A	3	True	91	(-7.0018767938237865, 6.233711678968616)	(0.40929317292800604, -4.1480352929587889)	(-7.7081430769932204, -8.1837582115849941)	(0.14269399804161687, 3.7995030805174235)	1.0	z	1.28044
20	M	A	A	N	N	B	M	B	N	8	6	shapes	M	3	False	91	(6.1551411313237097, 5.9862394866623045)	(-0.32930867962001464, -3.0917165562893869)	(4.0188630134918437, 0.43842599287130035)	(-4.2354436230550627, 1.5366985073456352)	1.0	slash	1.27439
21	N	B	B	A	N	M	A	M	N	8	5	shapes	M	3	False	91	(5.7075145429602134, -4.1138905514196429)	(-5.7312525291162597, 5.5813348964015557)	(-0.596658789557452, 6.0609068967396205)	(-3.0867372372176982, -7.8648067692158499)	1.0	slash	1.35203
22	N	B	M	N					N	4	3	shapes	N	3	True	91	(4.1676289769506436, 1.8163001778625532)	(-6.9480580917094361, -7.8534345669354213)	(7.8470165631546536, -2.3926902955176494)	(-5.2658257197835372, 4.132309865118291)	1.0	z	1.08363
23	M	B	M	N	B	A	N	A	M	8	0	shapes	M	3	True	91	(-3.0311955231829639, -4.7364769801448032)	(7.3969665262715054, 7.9580583605296091)	(1.769999519587433, 4.5051518815193905)	(4.9057421632241986, -5.0146919898606184)	1.0	slash	1.48519
24	N	B	A	B	A	M	N	M	N	8	6	shapes	N	3	True	91	(3.0598904251955705, -4.4237293207485244)	(-3.0374848217648314, -8.1373482100251753)	(-5.9435186458872638, 1.0928697585229017)	(-7.2173746875704241, -6.3598166564710947)	1.0	z	1.69486
25	N	A	B	M					N	4	3	shapes	M	3	False	91	(3.5711799914805624, -1.8612493127329213)	(-5.4700625812080101, -4.2726928656883247)	(0.62283902015403925, 5.2355405278774771)	(-7.9166680443899571, 4.7929706411075799)	1.0	slash	1.26241
26	M	A	M	N	A	B	B	N	A	8	1	shapes	A	3	True	91	(-8.2690592863083587, 4.5158753675213053)	(8.5194239900907895, 4.155220537518332)	(2.5482130363498889, 7.7661030143932663)	(0.4116387302569855, -4.6173619482733006)	1.0	z	1.42012
27	N	A	N	B	B	M	M	A	M	8	4	shapes	B	3	False	91	(-4.5161405268542492, 1.6956303721001635)	(1.5453016031270774, -1.3348765318832951)	(0.33642463748691398, 5.4779986401645502)	(4.6656540270293636, -7.1471796125469833)	1.0	slash	1.37166
28	N	B	B	M					N	4	3	shapes	M	3	False	91	(7.8865672133914764, -0.8109835900430955)	(5.9523525434864819, 2.6941940303058818)	(-7.6389498032695613, -6.0950332934088109)	(-0.23474192593792509, 4.7095362330124857)	1.0	z	1.01936
29	M	B	M	A					M	4	1	shapes	B	3	False	91	(7.2882152729628515, -2.7312675629600554)	(-3.6145026650918206, -6.5252041634260944)	(8.3511000643056903, 2.0144966468685599)	(-0.42566943970834537, 8.6905930122776489)	1.0	slash	1.18498
30	M	B	B	A					A	4	3	shapes	A	3	True	91	(-8.2297030293646198, -7.2284791856133612)	(4.5875483665295498, -2.9626265553382574)	(6.5882130334967517, 3.9761097850559306)	(-3.9470077214569175, 3.8024807185486882)	1.0	z	1.1347
31	N	B	M	B					M	4	2	shapes	M	3	True	91	(-2.3391269324891688, 4.7203435904890245)	(4.8058348963131987, -4.4879920498697095)	(7.9316804620723289, 6.4083733309693152)	(-6.5144981461092035, -0.21553578666743434)	1.0	z	1.0861
32	N	A	B	A	N	M	B	M	N	8	7	shapes	M	3	False	91	(1.6978715502224588, -7.0395779350814705)	(-6.4979324712904543, -7.0933381109363287)	(-8.204471990769532, 0.8550708531986384)	(-2.081908581578606, 6.1860897585839769)	1.0	slash	1.13778
1	N	B	M	M	N	A	B	A	A	8	7	shapes	A	4	True	91	(4.8326999966353732, -1.0566277965776223)	(-2.9884508795571207, 5.9466036698625278)	(-8.6934450347383692, -0.38061929838128883)	(-1.6421327983878271, -0.02282256378308567)	1.0	z	0.998747
2	M	B	M	N					N	4	2	shapes	M	4	False	91	(-2.1121930848172887, 5.7641028907934011)	(4.1791323478247193, -5.4508794444129691)	(-2.4068742243853301, -4.3962725266151317)	(8.6114885471225158, 6.389556798636125)	1.0	z	2.26896
3	M	B	A	B	A	M	N	N	M	8	0	shapes	M	4	True	91	(1.0452255209156665, -0.12411557136599782)	(1.1334166752647334, -5.3869471325609517)	(-2.1798018268985455, -8.2895641412076468)	(-2.220930526517515, 4.5994070257406534)	1.0	slash	1.08865
4	N	B	B	N	A	A	M	M	M	8	4	shapes	A	4	False	91	(-7.1912981662168374, -2.2497287151458911)	(3.9919194133290397, 4.3523141898365854)	(-1.544258858767531, -4.7499236102393914)	(-0.43420092112970288, 6.5320527870586638)	1.0	slash	1.19631
5	M	B	N	N					M	4	1	shapes	B	4	False	91	(8.1075461331612892, 7.3125385944106682)	(-0.74688249127109607, -8.0449833153697661)	(2.6544760758828065, -2.0065756951700875)	(-5.8510205746207209, 4.991907230865797)	1.0	slash	1.31187
6	M	A	A	N					B	4	0	shapes	M	4	False	91	(-7.5637068241028782, -1.2241540831004114)	(7.293040205791403, -1.1283025416267707)	(-3.3166540347433751, 2.411803684000251)	(7.3163044713075536, 4.2858100117953803)	1.0	slash	1.3954
7	N	B	A	B	M	N	M	A	B	8	7	shapes	A	4	False	91	(0.63478232169853577, -0.61650144119304606)	(-3.7487344981004105, 8.4801260418504576)	(-7.9861856599829606, -1.3396775147731317)	(3.870084212582551, 8.1551337580856362)	1.0	slash	1.26537
8	N	B	N	A					N	4	2	shapes	N	4	True	91	(6.9871138929933458, 7.1181772573964981)	(-4.4916240076863634, -1.666327516592971)	(-1.2674834503360994, 1.3140843337124153)	(3.1510180910162671, -1.2168490211898453)	1.0	z	0.814593
9	N	A	B	M	B	M	N	A	N	8	3	shapes	M	4	False	91	(0.027446311681590174, -2.1905163087480481)	(7.8654287408225301, -5.8046973469161927)	(-3.3123040470936811, -6.3345855977479086)	(-1.2031699126012416, 3.8039144607121074)	1.0	z	3.91824
10	N	B	M	M					M	4	1	shapes	B	4	False	91	(-4.8695232696598332, 4.6092441866120577)	(-7.1751499906115921, -0.71160771297509129)	(5.3754074706108117, 8.4030766750872061)	(0.9126414775694105, -3.5759503662785486)	1.0	slash	1.1037
11	N	B	A	B					M	4	0	shapes	N	4	False	91	(-0.16873848630807053, 8.5581461692823559)	(-2.0336014007228567, -3.1544037356301882)	(3.8705878611855837, -6.3295555676031938)	(2.1728161740650158, 5.2119655760803507)	1.0	z	1.17333
12	N	B	A	B	A	M	N	M	A	8	2	shapes	A	4	True	91	(-3.8114249487357226, -7.1469176661042351)	(-6.5316683778230722, -2.3272404468717554)	(7.6741561668153366, 0.31223993163472485)	(-6.8090948376959384, 2.0544911171976796)	1.0	slash	1.429
13	M	A	B	M					M	4	0	shapes	M	4	True	91	(7.1537189270761417, 5.2183526988162825)	(-2.6662120454064038, 3.7193053118944217)	(-4.1078982644867059, -3.2784164216412073)	(2.2077759939352273, -0.65891696256193022)	1.0	z	1.20058
14	N	B	M	N	A	A	M	B	M	8	2	shapes	M	4	True	91	(7.5320147353192546, 3.4983159083331792)	(7.7698427954401268, 8.7230999526688144)	(-1.1304403352399, -6.0195833347191572)	(-6.3274313698422127, -8.2280231834192641)	1.0	slash	1.32434
15	M	B	N	N					N	4	1	shapes	B	4	False	91	(-3.9459114478070658, -3.2610493618408993)	(2.5528635317662083, 8.0501475853318389)	(-6.2478325648149244, 0.18886740236677468)	(5.8551339269036404, -4.2056947889620924)	1.0	slash	1.07783
16	M	A	N	N					N	4	3	shapes	N	4	True	91	(-4.5127574696377302, -8.2819915545683696)	(3.0958088349720185, -8.3040478761292746)	(-4.2986433353450355, 5.174092471376035)	(5.0543652166367394, 3.2123663810954302)	1.0	z	2.04751
17	M	A	A	B	M	N	N	B	A	8	2	shapes	A	4	True	91	(6.7839274200800137, -0.29561430435395941)	(3.9873251360764908, -8.1513662620242311)	(0.42067086329817727, 0.50870883789511723)	(-7.5167090184594603, 5.6299690149788173)	1.0	z	1.5671
18	M	B	M	B					A	4	3	shapes	B	4	False	91	(-0.4031375110088522, -4.826577862180411)	(-7.5175421538515099, 3.7585205716873347)	(4.4528425908665081, -2.1977262719282029)	(8.3557640706863019, 8.5675309544894027)	1.0	z	1.06465
19	N	A	N	B					A	4	1	shapes	A	4	True	91	(6.5513796754882598, -3.2625696762204033)	(-2.3081297396681384, 4.3328845722597951)	(-4.1340972026086833, -2.9017767837771427)	(1.706256785697132, 6.8377512748184781)	1.0	z	1.03816
20	M	B	B	M					M	4	3	shapes	M	4	True	91	(4.7801954554645363, -1.2695536992108547)	(-5.5433666779592432, -3.0532357540117987)	(3.3285243639352853, 6.6181208600819108)	(-8.1735193059401006, 3.3515994205744715)	1.0	slash	1.42582
21	N	A	B	M					A	4	1	shapes	A	4	True	91	(5.6829479280184714, 7.6210032530936367)	(-0.21681041425425462, -3.3614080471862247)	(8.0203530605231812, -7.4106321092455198)	(-0.50789207509853007, 3.6374859003936137)	1.0	z	0.877479
22	M	B	B	N	N	A	M	A	M	8	0	shapes	M	4	True	91	(-2.9702310741522835, -5.0676345032832213)	(-7.6080760450757232, 3.4680758660846767)	(-1.9682903913693668, 7.0046052423721257)	(3.6781140556317116, -0.013255856033582702)	1.0	slash	1.55516
23	N	A	B	N					A	4	1	shapes	A	4	True	91	(8.6785088657394667, 3.3544650557029598)	(-1.0904960520745179, 5.0263282443815811)	(2.8701812827568514, -7.1384695766419624)	(-4.0025324797755042, -6.2336005983999936)	1.0	z	1.0068
24	N	B	A	A					A	4	2	shapes	A	4	True	91	(8.1717735937178801, 6.6479762124054389)	(-5.9008012737869757, 3.0532931177251665)	(1.7709734452544925, -3.8944667749853421)	(-2.3579362586695023, -4.0165502851960149)	1.0	z	1.16846
25	N	B	N	B					A	4	0	shapes	N	4	False	91	(3.5091265226316253, 2.2480120172120692)	(7.5616470499917341, -1.573518004940083)	(-0.77185710977792077, -5.4520819671087688)	(-5.4279991548950619, 1.0204982909856817)	1.0	slash	1.06162
26	M	A	B	A	M	N	B	N	B	8	2	shapes	B	4	True	91	(6.9620237753760659, -8.1362925230563619)	(2.974332139420321, 5.1014549683798585)	(-5.1503458538697213, -6.9016418268887598)	(-1.763282939647139, 4.2392809124595203)	1.0	slash	1.0858
27	M	B	M	B	A	N	N	A	M	8	1	shapes	B	4	False	91	(2.9086795936971033, -7.1832159346466735)	(-6.0285318534312617, -8.20042781829153)	(7.314725191983257, -0.22404863123062491)	(0.099747102022559986, 2.659921664356542)	1.0	slash	1.0893
28	N	A	A	B	N	M	B	M	B	8	0	shapes	N	4	False	91	(7.5850240185946198, 4.069481425274402)	(1.6221135802151885, -7.7266795782548217)	(3.4303136804043941, 4.6662257856762661)	(3.0816644409522809, -3.3845484728895148)	1.0	slash	1.09292
29	N	A	A	N	B	M	B	M	A	8	7	shapes	M	4	False	91	(2.070405457031038, 7.2951426868295925)	(7.312214262800719, 1.7170452675613692)	(-7.6102397708980671, 5.7144616582393013)	(1.8526384578529953, -2.0238765002161676)	1.0	slash	1.08459
30	M	A	M	N	A	B	B	N	B	8	3	shapes	N	4	False	91	(8.1947549244589268, 3.9324505206264675)	(3.1287049140350121, -1.2490916103218028)	(-5.2197304490536105, -1.9743883877158082)	(-1.4714158040550904, -5.2244778834338561)	1.0	z	1.82412
31	M	A	N	N	A	B	M	B	A	8	4	shapes	A	4	True	91	(-5.9284298280046235, -3.0350372102199188)	(2.5333593290056413, 7.6062002380494604)	(-2.6191638980314567, 6.9787927801604059)	(6.0906558602226877, 1.2206725369067755)	1.0	z	1.62181
32	M	B	N	A	M	A	B	N	M	8	3	shapes	A	4	False	91	(-1.7497256678344666, -1.6041776665632099)	(8.2177817237691073, -5.9165485282002237)	(2.7786634793735008, 6.9559734134093922)	(4.2652305439608185, -1.5973554032915711)	1.0	slash	1.93933
1	N	A	B	B	N	M	A	M	B	8	3	shapes	B	5	True	91	(-8.6628503663094705, -7.7911000923563671)	(3.7072278294009706, 1.7733114243199424)	(5.2684375651096182, -6.0706806743887807)	(-7.0930270509774598, 0.52304499532581872)	1.0	z	1.92097
2	N	A	B	B	N	A	M	M	B	8	2	shapes	B	5	True	91	(2.0922812492124105, -3.0134143513675102)	(5.1022052835968061, 4.9252768781236238)	(-3.1973704107160099, -4.9843186284602758)	(5.2518990221811386, -6.0873778456248662)	1.0	slash	1.71056
3	N	B	N	M					B	4	0	shapes	N	5	False	91	(-3.6418237707080703, 4.4601894681829695)	(0.26949477928270049, 1.8177350204585014)	(-3.6187448229789405, -4.3934509300248461)	(3.1459296525073448, -6.2153840640774636)	1.0	slash	0.913989
4	N	B	B	N					N	4	1	shapes	B	5	False	91	(7.5191587207676136, -4.0697532826725364)	(-6.777547246630018, -8.6508672908199262)	(2.1182743276266187, 5.338291917018168)	(-5.6697627995785407, 3.1230808121979141)	1.0	slash	1.04579
5	M	B	N	A					B	4	1	shapes	B	5	True	91	(-4.6121402294790883, 7.1439357566878332)	(-6.3693761471608834, -7.8832231017569088)	(6.8916066389949897, -1.6439992340088718)	(2.1497424984815154, 3.0233487547612228)	1.0	z	1.04733
6	M	A	N	N	B	B	A	M	M	8	6	shapes	A	5	False	91	(-0.34625844016078311, 3.1621299262260933)	(4.9535292125368642, -1.8740770241940332)	(-7.3079687320928217, 8.3120627602819397)	(-7.7636903130660286, -5.5786142409924464)	1.0	slash	1.19464
7	N	B	M	M					N	4	0	shapes	N	5	True	91	(0.29533143388170124, 8.2431946955966069)	(2.0742956245918478, -4.0487042234676611)	(-4.9313052131490913, 1.5223689117952368)	(-1.6067359954369138, -7.9885818414515875)	1.0	z	1.17469
8	M	A	N	M	B	N	A	B	N	8	3	shapes	M	5	False	91	(2.6335145677489411, -5.295347627511422)	(3.3470827424481797, -0.28616315311274931)	(-0.55186591955484587, 1.0661718264227122)	(0.86069068919500147, 5.301494702463426)	1.0	slash	1.07213
9	M	B	N	A	N	B	M	A	M	8	2	shapes	N	5	False	91	(2.1916397678561008, 3.4570145467100524)	(-6.0183276858474581, -8.4980665021165063)	(4.0840025457435072, -4.5653209033226521)	(7.8654577232595848, 1.7620217259294026)	1.0	slash	1.08382
10	M	B	B	N					A	4	2	shapes	B	5	False	91	(2.3093848205309833, 5.4982049082680522)	(2.6867534987527488, -1.6118580705759378)	(-6.2379064221909424, -1.4956882224634436)	(-0.76947458016131165, 0.66653120669278998)	1.0	z	1.5734
11	M	B	M	N	A	A	N	B	B	8	3	shapes	N	5	False	91	(-8.3687624288347635, 4.6443081990948674)	(7.6631561119886982, 8.351846132988566)	(3.2822190549399011, -1.2180825761807377)	(-6.5886191599139901, -6.8590578758755285)	1.0	slash	1.08504
12	M	A	M	A					B	4	3	shapes	A	5	False	91	(7.4317103965993461, -5.8811306477222498)	(-1.8950674988701275, -2.0504586921942716)	(3.9210414856368985, 7.6994484954557301)	(-7.1152260085423151, 5.5605216507829578)	1.0	z	1.73265
13	N	B	M	N	A	A	B	M	M	8	2	shapes	M	5	True	91	(5.6478070889021073, 7.8557954721666725)	(-2.3469013436193285, -4.9584084450483008)	(7.9477557575127307, -1.6381879744430314)	(-5.8800878913012813, 3.9593553605422347)	1.0	slash	1.36823
14	M	A	N	N	A	M	B	B	M	8	7	shapes	B	5	False	91	(-0.87766332578256812, -4.816097601590859)	(3.4729153932393295, 3.5489291558430178)	(-1.8628410679212113, 7.897284209638066)	(-8.4494604459343616, 8.0893133048974697)	1.0	z	1.87188
15	N	A	M	N	A	M	B	B	A	8	4	shapes	A	5	True	91	(-2.7914195130701431, 8.0384273525910217)	(-2.6157495582159225, -0.68385217839755441)	(4.0393755711562012, 4.3649425588768747)	(-5.2990343670792051, -6.7338139314122047)	1.0	slash	1.54955
16	N	B	M	B	A	N	M	A	A	8	1	shapes	B	5	False	91	(2.5177857715100735, -2.9225305088942797)	(-1.3925463133134866, -4.2032518852624055)	(8.3838759427649734, -1.0179655584286511)	(1.2060277283213665, 8.4950516608020408)	1.0	z	2.2611
17	N	A	N	B	B	M	A	M	N	8	2	shapes	N	5	True	91	(-5.8552538523154194, 1.6315057498787873)	(2.1822631609300416, 3.1524955821709213)	(0.13501043314012939, -8.4252605901997999)	(6.8373257640121459, -5.8944083212014799)	1.0	z	1.50058
18	M	A	M	B	A	N	N	B	N	8	3	shapes	B	5	False	91	(4.5913108665583007, 8.0167584714260798)	(6.8046207930273965, -3.4794096180998002)	(0.79309690181946202, -3.555653879631933)	(-7.6101303924936907, 2.7664789555072744)	1.0	z	1.0582
19	M	A	N	N	B	M	A	B	M	8	0	shapes	M	5	True	91	(7.3045100095240763, -4.0005854064637125)	(4.0243812219605619, -7.2749386459389056)	(-6.5425277024967343, 3.6974625837804265)	(-0.34829428217354952, -3.1218106937694019)	1.0	z	2.0278
20	N	A	B	B					A	4	1	shapes	A	5	True	91	(7.3414431870478865, 3.3452170551866871)	(-4.0008249636839439, 1.8786158783679863)	(-6.7639231001128675, -4.6167146275029998)	(1.3639150431967977, -0.23492805986630216)	1.0	z	0.903293
21	N	A	M	M	B	B	N	A	M	8	3	shapes	M	5	True	91	(-5.5562395000454465, -6.217642612927941)	(7.7904433151858257, -0.83496533008666951)	(6.3783659889179649, 5.3553661339565863)	(1.5757987529096269, -7.1498280363298701)	1.0	z	1.15694
22	M	A	M	N					N	4	3	shapes	N	5	True	91	(3.9014934495867823, 2.0588206316297857)	(-7.9379613140963814, 0.68159627047082516)	(-4.161067555534788, -3.6884676870703448)	(1.7532058355732136, -1.7096344747427032)	1.0	slash	1.52069
23	M	B	A	B					B	4	3	shapes	B	5	True	91	(-4.9839388493269325, 4.781387726304791)	(0.84586702765425592, 6.7326245019463968)	(2.1497253753531638, -2.7051502923030952)	(-2.7144785695980067, -8.7249103349184551)	1.0	z	1.13022
24	M	B	N	A					M	4	2	shapes	N	5	False	91	(1.7397601858566869, -0.20184740658539724)	(-3.6302664034252796, -0.27759182952138062)	(-5.6296880246554739, 3.6108053490566316)	(6.3750191779900582, 6.0121818034766967)	1.0	z	0.985983
25	M	B	A	B					M	4	3	shapes	B	5	False	91	(0.86787598824181167, -1.4671745496530448)	(4.6857654164894083, 1.0557297452413454)	(-2.6496699802195733, -5.0780618541745888)	(-8.3904324535176027, 8.7071330039776491)	1.0	slash	1.91088
26	N	A	M	B	A	M	B	N	A	8	2	shapes	M	5	False	91	(-3.6156508683468376, -2.6012439195889199)	(2.2892254740398581, -4.9542926253591766)	(5.3078206925620162, -0.97127300508472558)	(-2.1394443005827153, 7.6935555343527646)	1.0	slash	1.71908
27	M	A	N	M					M	4	3	shapes	M	5	True	91	(-6.2072933870317701, 0.3311404657568886)	(-1.9162752770917084, -0.72669987404121095)	(3.0235608745171216, -0.21934548527638853)	(7.044258965656562, 5.7184665720632886)	1.0	z	1.29263
28	M	B	A	M	B	A	N	N	B	8	4	shapes	B	5	True	91	(7.8152324097213821, -7.3192540748368256)	(-5.140271710625866, 5.0614070352608849)	(-2.7866791544942568, 1.5110025940058147)	(-2.5862516452992912, -4.1649858413463372)	1.0	slash	2.52243
29	M	B	B	N					M	4	0	shapes	M	5	True	91	(1.1031456505207178, -0.80048100012552403)	(-1.8078413799416646, 7.9211494328921077)	(-6.8910965636834511, -7.9188644989874568)	(3.9228383664015496, 4.5218202766136315)	1.0	slash	1.52355
30	N	B	A	M					B	4	3	shapes	M	5	False	91	(-1.2779794411027625, 1.5240516135144286)	(7.2620626779339545, 0.96768863978935116)	(-6.4712081416655236, -7.4137510211744058)	(4.8675463263392107, -4.9132554608533079)	1.0	slash	1.6694
31	M	A	B	A					A	4	3	shapes	A	5	True	91	(6.363924550138492, 0.15513362999359792)	(-5.9556318832611321, -8.5199843454636106)	(-2.5755424992001119, 8.6586864061688686)	(4.1117153167215577, -8.1891360015482828)	1.0	z	1.44031
32	M	B	A	M					A	4	1	shapes	B	5	False	91	(6.9973596628746897, 8.2188071578395636)	(5.8391330468535418, -5.4171507894323181)	(-7.7167337425235134, 6.4577808036235886)	(-5.7934434388161371, -4.1112422528128558)	1.0	z	1.27445
1	N	B	A	N	M	M	A	B	N	8	6	shapes	A	6	False	91	(3.4419880951588429, 1.0411472969374564)	(-7.3689416335782454, 8.5568279787863553)	(1.1917939023323676, -8.3686849491538382)	(-0.93444339016137157, 7.0570688581471579)	1.0	slash	1.46829
2	N	A	B	B					M	4	2	shapes	B	6	False	91	(-6.1470101379118827, -3.4647792308481442)	(-4.2164017756078076, 2.220362519978794)	(0.86080339252604787, -6.0710589541683486)	(7.6299869388375328, 3.2742420135415973)	1.0	slash	1.23774
3	N	B	N	M					M	4	3	shapes	M	6	True	91	(-7.5121316940771425, 4.9838960026880965)	(2.386974149323299, -5.7426857608438633)	(3.6597629691117799, 7.2092317923188265)	(-0.52766704272794307, -0.64468227352871388)	1.0	z	1.01725
4	N	B	B	A	N	A	M	M	M	8	6	shapes	M	6	True	91	(-1.3522373513768784, 5.383857919413753)	(-3.913861450729784, -6.3065369087238494)	(-0.5842226725495987, 1.120303504725376)	(7.51710417050732, 8.2238109178357313)	1.0	slash	1.63314
5	N	B	N	A	A	B	M	M	N	8	3	shapes	A	6	False	91	(-3.0541286336573572, 7.3895921952476478)	(-7.878543963977898, 7.6945141304414406)	(7.1587717593345097, 7.6427571029998695)	(2.1113793374042249, 0.33476444599857658)	1.0	slash	1.10868
6	M	A	A	B	N	B	M	N	M	8	0	shapes	M	6	True	91	(-0.35617636965523758, 6.4467447805619837)	(2.6724855988547471, -8.2956995392742119)	(0.45097127273023574, 1.7980916709086667)	(-6.7428457282177536, 5.3366168917457451)	1.0	z	1.13642
7	N	B	M	A					A	4	0	shapes	N	6	False	91	(-7.5487228975909764, -1.9428862990214331)	(1.5308520283446789, 5.1480282106572286)	(6.4645971938145586, -3.1681282413056806)	(-5.3708151787021983, 3.354066213461353)	1.0	slash	1.12786
8	M	B	N	N					M	4	0	shapes	M	6	True	91	(-4.8834786210721592, 0.03651115902688673)	(-5.9964133425599808, -5.355340153975785)	(3.5752920349240735, 7.1484438543560493)	(4.0437927809773822, -8.7273614993183415)	1.0	slash	1.12148
9	N	A	N	B					N	4	2	shapes	N	6	True	91	(-0.47623763867484392, -2.4772630800730102)	(-2.5006574164504878, 2.8907080026845495)	(4.3278106688563298, -3.1244161390608909)	(7.0996744865495476, 8.149908905911758)	1.0	z	1.2354
10	M	B	A	M					M	4	3	shapes	M	6	True	91	(-1.0808945429919241, -8.5373170411498975)	(1.7134308854554572, -4.181428421267233)	(-3.3660361355160351, 0.31464074216369298)	(6.8035154704230543, 4.2070287762606959)	1.0	z	1.13479
11	N	B	A	A	M	N	M	B	M	8	4	shapes	M	6	True	91	(7.8040279179232179, -1.0634120196001708)	(-2.2370843555661555, 1.7126030837894124)	(5.9103874246617192, 4.141697610028757)	(-3.0041894497023875, 5.9319805765489342)	1.0	z	1.49652
12	N	A	M	N	M	B	B	A	A	8	7	shapes	A	6	True	91	(-5.7267813554070282, 0.45267525255515118)	(-3.582970589657192, 8.4179808124134183)	(3.8666428477716686, -7.8787388412254487)	(2.5975459333430315, 0.16064491141194281)	1.0	z	1.40149
13	N	B	M	B					N	4	1	shapes	B	6	False	91	(-2.7131371671490117, -0.8424404424809433)	(6.9124922818576895, -6.8049737607811478)	(3.1611041548604959, 7.164120069686204)	(-8.7273132885506612, 4.2871195786984462)	1.0	slash	1.02756
14	N	A	N	M					M	4	3	shapes	M	6	True	91	(6.8679085171034728, -2.2140725382923527)	(-1.4703895357036911, -3.7708723667993844)	(5.6126658236024198, 8.2832972131916875)	(-4.6881296000313659, 0.062116688034370426)	1.0	z	0.833043
15	N	B	A	A	M	B	N	M	B	8	5	shapes	B	6	True	91	(7.5323480798735361, 5.9626574486813126)	(-8.1808571850719893, -6.9031882156362272)	(-7.5484667681712061, 0.20536228574164639)	(7.5903118120274939, -4.3696364057879418)	1.0	z	1.37281
16	M	A	A	M					B	4	2	shapes	A	6	False	91	(1.8231248140486951, 8.3442987273916529)	(2.380912946596565, -7.059715667257854)	(-3.3557572039214092, 2.8765320564381884)	(-8.4695766998691333, -4.5852547598539806)	1.0	slash	1.46055
17	M	B	B	A					N	4	2	shapes	B	6	False	91	(0.50470937767130408, 0.89005133292180894)	(-3.7656411658040794, -1.3756077444091019)	(5.0407584531876175, -4.799330945410242)	(-0.39423918831703908, 5.3979228625884232)	1.0	slash	1.25808
18	N	B	A	B					B	4	3	shapes	B	6	True	91	(-4.9790949065073757, 6.1118993249415876)	(-1.0446874001227613, -1.8458171232480414)	(3.4673320450631469, -8.6526686321655788)	(2.8465341144235108, 4.8540751036128462)	1.0	z	1.16777
19	M	A	N	M	A	N	B	B	B	8	0	shapes	M	6	False	91	(-3.9360377587770472, -0.17837401272206499)	(-8.6538006651108184, -4.560052069591686)	(3.3570287878648912, 4.6072369590463129)	(7.3622673646661063, 3.2696848842607942)	1.0	slash	1.29125
20	N	A	N	M	A	M	B	B	B	8	4	shapes	A	6	False	91	(-7.7775762328494737, -5.1880211830422738)	(-1.7662266424118398, -6.7074270943781249)	(7.5590426882663095, -0.72542746029377625)	(7.1654934872713802, -5.2184380733524645)	1.0	slash	1.07481
21	N	B	N	A					N	4	0	shapes	N	6	True	91	(3.2328991498642985, 5.7292428083236739)	(8.291905211661188, -2.0181109121306591)	(-8.7276604359672749, -8.3271136158295178)	(-7.1160874451461655, 1.9947511437841605)	1.0	slash	1.00662
22	M	A	N	A					N	4	1	shapes	A	6	False	91	(6.0049493517340942, -6.128514231163491)	(0.84604697875969492, 5.3843739580639802)	(-5.7312586678861779, -1.4865013479664473)	(-5.9878274220697296, 7.397740704896357)	1.0	slash	0.918341
23	M	A	M	B	B	A	N	N	M	8	6	shapes	N	6	False	91	(1.82901598189639, -3.9063705391774644)	(-6.4583862540893033, -7.2999965860074383)	(-2.7960742798653557, 6.4273689159403773)	(5.7014410415828394, -5.4634961506295223)	1.0	slash	1.31591
24	N	B	M	A					B	4	1	shapes	B	6	True	91	(-3.4314941178301721, -1.1270142119492812)	(1.5262224256897454, 4.1853763409355835)	(8.3518813365028741, -0.97755500217330482)	(-3.6983497750650667, 7.3140660626584371)	1.0	z	1.21913
25	M	B	N	B	A	N	M	A	N	8	2	shapes	N	6	True	91	(-7.5083476844063171, -0.62945009695300236)	(2.6899158200953259, -8.7296912696599325)	(2.4677403964386233, -4.6870210755064949)	(-1.8611272755298502, 7.4680721020976115)	1.0	slash	1.23505
26	N	A	B	B	A	N	M	M	A	8	4	shapes	A	6	True	91	(-6.6383744119942474, 5.0461359062228226)	(-5.5039266531732061, -3.7161530157159248)	(-8.2877674799845131, -0.14735913398907385)	(0.53427739128773588, 7.1726394572577856)	1.0	z	0.854644
27	M	A	A	M	N	N	B	B	A	8	1	shapes	A	6	True	91	(-6.818253101193898, 8.2686471201300726)	(7.8015638482844842, 7.9607035138386557)	(-4.1960632210186191, -3.7973346252060995)	(-2.3840258212785219, -7.7012026410384067)	1.0	z	1.16235
28	M	A	B	M	B	A	N	N	N	8	0	shapes	M	6	False	91	(-5.3179424775790203, -5.7306657471207325)	(2.8514368237202738, 6.0738059660393127)	(2.8276580425793849, 0.3762279826887891)	(-8.4109296027687588, 7.2048383328671548)	1.0	slash	1.11
29	N	A	B	M	M	B	N	A	A	8	6	shapes	N	6	False	91	(-7.9923939907184263, -5.3409745138396367)	(-7.2351910530089611, 3.7177968652854876)	(0.3866714668625324, 2.7230633567295666)	(-4.4825380965370725, -1.7721467770108887)	1.0	slash	0.859674
30	M	B	A	M					A	4	1	shapes	B	6	False	91	(-2.8528407436496979, -6.2965395809373188)	(2.2641880568422188, 5.8446646601659058)	(-3.1112304725727498, 8.2540243673160489)	(8.3144203092597166, -2.1739219347263807)	1.0	slash	1.61734
31	M	B	A	N	B	A	N	M	B	8	5	shapes	A	6	False	91	(6.8622496880191477, 0.44535696309472605)	(-6.3051479304679336, -5.7283635694345758)	(-8.7135436515640219, 4.6257157252222143)	(-4.3657535231423701, 2.2712069761407694)	1.0	slash	1.37885
32	M	A	M	N					N	4	0	shapes	M	6	False	91	(8.5674706696867879, -0.11529901091240191)	(-5.9961435551015283, 5.2964658069492252)	(-5.0976023924879721, -1.4167474139985821)	(1.2612946669828027, 3.5210880614087099)	1.0	z	2.68828
1	N	B	A	B					A	4	2	shapes	A	7	True	91	(4.5875845738323058, 1.0013923111611103)	(3.9917761275080323, -4.7069561559265978)	(-2.4487027408013828, 3.7917765502933101)	(-0.83575913528564882, -3.8823108341975106)	1.0	z	0.852405
2	M	B	A	B					B	4	2	shapes	A	7	False	91	(4.6055163025677714, -5.961899782212579)	(-6.5480720508823804, 0.089966158447108313)	(5.4441155293829535, 6.6330494917466236)	(-2.5527451168616109, -6.2789323773780392)	1.0	slash	2.77077
3	N	B	N	A					N	4	2	shapes	N	7	True	91	(3.4622633633499404, 5.1134448034171349)	(-0.88792007511265414, -2.0841960265742401)	(-3.4000559439980815, 8.3258976885694729)	(2.9590780016636771, -4.7877483247277199)	1.0	z	0.817233
4	M	A	M	N					B	4	3	shapes	N	7	False	91	(-1.5174044496758929, -6.9750343581943648)	(-3.0375217860781643, 5.3869344160452215)	(1.0003184620118795, -0.14648037583253171)	(5.5225532854136183, 5.3227028482670686)	1.0	slash	1.18486
5	M	A	A	N					M	4	0	shapes	M	7	True	91	(-7.6908304513966481, -0.19295103637203326)	(1.4925693969920548, -1.0560080895681008)	(5.1697279657993587, 0.93754052034161894)	(-3.0031843604833304, 5.203333731863399)	1.0	z	0.926335
6	M	A	N	B	B	N	M	A	N	8	2	shapes	N	7	True	91	(0.1192816766676561, -6.0610216038632148)	(-0.29011297359302901, 4.6935960009364308)	(-6.6595202796639148, 3.0437772223744854)	(6.1602425194593362, 7.615055749939291)	1.0	z	1.18416
7	M	A	B	B					B	4	3	shapes	B	7	True	91	(-3.2833557983736776, 3.2694086535186599)	(2.9483937645217573, 6.0389684335581997)	(-5.4275752310048784, -8.4133566104831932)	(2.7192257096453769, -7.693420612420983)	1.0	z	0.869535
8	M	B	A	M	N	N	B	A	A	8	1	shapes	B	7	False	91	(4.6695864081622638, 6.8489353097310453)	(-5.2364573032276684, 6.8095642218193984)	(4.2915511059548646, -7.0505818683848709)	(7.0758632517096238, 1.1804405364649)	1.0	z	0.95272
9	N	B	B	A					N	4	0	shapes	N	7	True	91	(1.141324117266123, -0.62319046966081615)	(-2.5566184002724217, 5.3497616613340444)	(8.7286504982202509, 6.8706595915916839)	(-2.0815079751411707, -5.935415695795097)	1.0	z	0.877006
10	M	A	B	M					N	4	1	shapes	A	7	False	91	(0.83633649289784984, 7.2808332620659613)	(-1.8325606365331337, -4.5084713557462432)	(6.5982570377519139, -6.025822392561329)	(-7.9611752662661308, 7.0325176277387005)	1.0	slash	0.94474
11	N	A	B	M	A	M	N	B	A	8	4	shapes	A	7	True	91	(8.5504470952323324, 6.4330692020529483)	(-2.7018014872518066, 8.0976038966424824)	(1.1776266701092126, -0.62690026873153926)	(7.3184386732091049, -6.6659811926543036)	1.0	z	0.878269
12	N	A	A	M	M	B	N	B	A	8	4	shapes	M	7	False	91	(-1.3199671390889121, -5.0882394792636125)	(8.31834181868415, 6.5328041331665485)	(-6.3298876583017485, -4.0357462810268947)	(6.0438904197983234, -1.8798230242894665)	1.0	slash	1.01744
13	N	B	N	A					A	4	0	shapes	N	7	False	91	(-2.3329532801927364, 2.8507687537332504)	(5.9586209879462952, -3.918728353505311)	(8.1999215114955462, 5.2206687791101363)	(-3.8267376736810874, -6.908490276940535)	1.0	slash	0.879612
14	M	B	N	N	B	M	A	A	A	8	7	shapes	A	7	True	91	(-0.4966890871745484, -2.0804004937939826)	(-4.0834407992447099, 0.95023589003650599)	(-2.7076929600146817, -7.8546994156252357)	(3.9236781074075378, -5.6386542358908853)	1.0	slash	1.15725
15	N	A	A	M	B	M	N	B	N	8	4	shapes	B	7	False	91	(6.9720162689933964, -0.56955101570831701)	(-5.0989175595621532, 5.7685836069847838)	(0.68926947553130091, 5.2220450762976061)	(-6.7235434438663635, -0.16053608791370166)	1.0	slash	0.913059
16	M	B	N	B					N	4	2	shapes	N	7	True	91	(6.9254450383700199, 4.2819284266042601)	(-2.593812433934608, 5.2177934596606566)	(3.3532240991095179, -0.57109932405244734)	(-2.9075456397312216, -0.79932624626823134)	1.0	z	0.910306
17	N	B	M	M	A	A	N	B	A	8	3	shapes	M	7	False	91	(-4.5087119984860058, 4.316666116154865)	(-5.1318659832352829, -1.6043133795768103)	(1.0541026252271699, 1.2365312088062232)	(-7.8515959780161033, -4.8860592369766351)	1.0	slash	1.04216
18	N	A	N	M	M	A	B	B	A	8	5	shapes	A	7	True	91	(2.1030637741848199, 1.3176620226659104)	(-6.0622470007255611, -7.1369995242167406)	(2.0678303750970564, 7.1114569530141036)	(-2.5236331611404941, -2.7490326417020112)	1.0	slash	0.979738
19	M	B	M	N	A	N	B	A	N	8	0	shapes	M	7	False	91	(-3.7092618299577236, 0.17641413122142779)	(8.660857754383894, -5.2275255797699094)	(4.1854757580095505, 2.9343949857355369)	(-7.0199559310875426, 5.2503912844807505)	1.0	slash	1.39736
20	N	B	M	N	A	A	B	M	A	8	5	shapes	A	7	True	91	(-4.8191980874210394, 2.7829339176489061)	(6.7837684579992459, -3.3152985410136271)	(4.3723687451214914, 1.2709586689358865)	(-4.0070250973408834, -7.439492805358098)	1.0	z	1.38498
21	M	A	A	B					A	4	2	shapes	A	7	True	91	(-6.383232192541695, 0.61548860377213011)	(-8.6360817066307458, -6.0433581271685686)	(7.1604215885994318, 7.8907673727032517)	(6.5898017303656253, -7.1737816228517248)	1.0	z	1.03053
22	M	B	M	B	N	A	N	A	M	8	2	shapes	M	7	True	91	(-0.75993170878500749, -6.877655392216302)	(4.3145895115746153, -1.1370902008512127)	(-0.6054171248106357, 2.5728186455772786)	(8.6324957626642131, -2.579986781101459)	1.0	slash	0.893854
23	M	B	N	M					N	4	2	shapes	N	7	True	91	(-8.2348926575900805, 1.7747508228744895)	(-3.0134694554145369, -6.891181144183089)	(7.2693299719578093, -5.4747134051690702)	(6.2893010255194124, 6.8270258907907699)	1.0	z	0.989827
24	M	B	A	A	B	N	N	M	B	8	0	shapes	M	7	False	91	(7.5368944342979063, -0.80171224229210392)	(-4.2605340687289388, -2.4393035536400998)	(2.9224885788943631, 6.2326511645449383)	(-5.233612636158286, 5.6056738311888328)	1.0	slash	0.821373
25	N	A	M	B	B	M	N	A	A	8	2	shapes	M	7	False	91	(0.3684853701808688, 5.0868605338154982)	(-7.9501208059026354, -6.0613739978733925)	(5.0189985682873228, -3.0433494298695827)	(1.3691104990710077, 0.64656802000844138)	1.0	slash	1.59326
26	M	B	N	M	N	A	B	A	B	8	1	shapes	B	7	True	91	(4.0881303675044567, 8.3414206253742904)	(-2.6767251207105192, -8.1298117538843773)	(-7.3307165276562287, 4.5700755431474125)	(-3.1802974705595783, 3.5020139243175716)	1.0	z	1.19864
27	M	A	N	M					B	4	0	shapes	M	7	False	91	(-4.8720774502271134, 2.0085689939932276)	(5.3399969368742628, -6.7620474567243098)	(-6.1479265959187854, -4.7855008868636535)	(0.95266290284779309, 1.6424645047195927)	1.0	slash	0.942288
28	M	A	N	B	B	M	N	A	A	8	4	shapes	B	7	False	91	(4.0739915842420569, -5.8105454289974059)	(-7.9650058227291618, -6.0302607808296838)	(0.92911814755176536, 8.7296822806407555)	(-3.5549024521010084, -8.6050194058629295)	1.0	z	1.51
29	M	A	A	B					A	4	0	shapes	M	7	False	91	(1.605442459624232, 0.19692329512407092)	(-6.9744362174857422, 4.4507827959394124)	(-5.4456391057834885, -6.1546814207921621)	(6.505462862524757, -2.1504871918951558)	1.0	slash	0.76963
30	N	B	M	A	M	B	A	N	N	8	7	shapes	N	7	True	91	(-6.025959411841864, 3.3786455948446665)	(-7.3331589992058142, 8.6473753334453534)	(0.17213057870240078, -1.3087393827877492)	(0.60636664458297496, -7.7630059278696955)	1.0	slash	0.909491
31	N	B	M	B					B	4	0	shapes	N	7	False	91	(5.5078707967782137, -6.1765555578071405)	(4.4354562600477774, 4.4371262265649136)	(-8.5233279163034137, 8.10537852823321)	(-4.8785375062648706, -6.8581597498592872)	1.0	slash	1.76878
32	M	B	B	M					A	4	0	shapes	M	7	False	91	(8.065904473990237, -7.6906824130632145)	(5.2808665407451443, 5.0640490977998116)	(-7.786756197418935, -5.3287217544300436)	(-7.6908079720059384, 0.90563173944034681)	1.0	slash	1.46433
1	M	A	B	M	N	B	N	A	A	8	0	shapes	M	8	False	91	(-0.46340800136255744, -1.8566251654542087)	(5.575435853336586, -7.8517345437398642)	(4.2691294275046943, 6.0235338617944372)	(3.4034906832560718, 1.9614351793813238)	1.0	slash	0.94209
2	M	B	A	M					B	4	3	shapes	M	8	False	91	(7.5101354963628673, 6.0750693262470143)	(-7.7712237736101528, -0.98944918465137199)	(8.0976494366401433, -2.3889756944931602)	(-4.8035458374404474, 2.1829343835734729)	1.0	slash	1.04337
3	N	B	A	A	M	B	N	M	N	8	1	shapes	B	8	False	91	(-5.8427177390876608, 5.0971868736561436)	(6.6211075896657832, 1.2704991866774833)	(1.6596632606194852, 1.0246702769089477)	(-2.7113601489800061, -5.3687689506160829)	1.0	slash	1.28541
4	N	A	A	M	N	M	B	B	B	8	1	shapes	A	8	False	91	(2.5168769547022158, 6.278990620951614)	(-8.3631277590608519, -5.9986910293000424)	(-0.89140369294562305, -2.5117741994812146)	(8.6902748732181934, 5.1337165403892691)	1.0	z	1.16893
5	N	B	B	M					B	4	1	shapes	B	8	True	91	(-3.0173408625873561, -5.5842411221027923)	(6.4454540081278413, 4.957444465840755)	(6.4529188696765765, -4.0698550962166617)	(-8.2533165865965987, 2.733251749665575)	1.0	z	1.13658
6	N	A	B	M	B	N	A	M	M	8	1	shapes	A	8	False	91	(-2.3862051568481171, -7.9284887599062497)	(-3.1515094536859767, 7.5330406845279434)	(3.7213849120069469, 5.2710655073127324)	(-0.30639849958582488, 1.9971895770355541)	1.0	slash	1.00019
7	N	A	N	A					B	4	1	shapes	A	8	False	91	(-7.2773573025141509, 4.5372184274856657)	(6.7936980174588513, 4.9330610926073444)	(-3.1012666516009491, -4.1986705194536906)	(2.7806274993169993, -7.8197322585389255)	1.0	z	0.921732
8	M	A	B	A	N	N	B	M	M	8	5	shapes	N	8	False	91	(5.4135054907083813, -4.8184607646615776)	(3.5895052792482964, -8.663370635495486)	(1.538533506039176, 3.0918709703321863)	(5.5449577612839747, 6.2806833121351548)	1.0	slash	1.88543
9	M	B	M	N					A	4	1	shapes	B	8	False	91	(0.53113142029766003, 8.1811868232199387)	(-6.913045742532173, 4.0713120898715722)	(5.00692781586819, -6.1640266088301541)	(-2.8689790311421106, -3.0804285052741847)	1.0	z	0.935059
10	N	A	N	M	M	A	B	B	A	8	1	shapes	A	8	True	91	(5.0807050694076636, -7.5864197744327102)	(5.4190452348092926, -3.4241421715352764)	(-2.9494321121815243, -4.1928890524996145)	(7.7729426120877321, 4.4202864618231139)	1.0	slash	1.19864
11	M	A	A	B	N	M	N	B	A	8	1	shapes	A	8	True	91	(-1.8219740276379683, 7.9559609767143336)	(-5.8732525644096549, 8.2867531194890525)	(-1.8251337509795338, -6.9089837483074446)	(6.762439316413797, -6.2905708822108952)	1.0	z	1.06819
12	N	B	N	B					B	4	1	shapes	B	8	True	91	(7.6427440327208132, 3.7396979444178182)	(-8.7252026019162479, -8.6448104015754836)	(-7.9061543013033369, 2.8431483959962236)	(2.3281022127626816, -4.415196247786227)	1.0	z	1.01576
13	N	A	M	A	M	B	N	B	N	8	1	shapes	A	8	False	91	(7.8931427973940309, 8.1083187306376736)	(7.9700529224193311, -6.2378803636517706)	(-4.8587278745524589, 1.1167528751571396)	(2.6529362951394564, -6.1455067705894173)	1.0	slash	0.857532
14	M	B	B	M	A	N	A	N	M	8	3	shapes	M	8	True	91	(3.2535895310398608, 7.4142896541654508)	(-2.9646622004919694, -6.2519895951161253)	(-4.8501717955637336, -1.1702538944113794)	(8.5963586418688571, -5.5596164832665043)	1.0	z	1.00325
15	M	A	N	B	N	B	A	M	B	8	3	shapes	B	8	True	91	(-3.8806351668118495, -6.9745334020861662)	(8.6698424692077225, 2.5609759255486217)	(-1.0750905800489665, 1.6809816053637121)	(-7.0494514867769977, -2.8762134153494898)	1.0	z	2.09263
16	M	A	N	M					M	4	3	shapes	M	8	True	91	(-6.2473558808049665, 1.6021637210767583)	(3.5934299836540387, -3.2251149852443213)	(-4.3185228902277526, -8.6788721772964426)	(3.1864907622153353, 3.2586901767510668)	1.0	z	1.09237
17	M	B	B	A					B	4	1	shapes	B	8	True	91	(3.0496616055903445, -6.6043267131696224)	(-4.3676083426687722, 3.7578995122751095)	(1.9635113406638904, 5.3022627691352362)	(-5.574718211275882, -4.748960225127651)	1.0	z	1.06804
18	M	B	N	N	B	M	A	A	N	8	2	shapes	N	8	True	91	(-3.244580720374473, -8.6188114124918886)	(8.6128829234120197, 4.2845307723575861)	(3.0146920268556556, 7.7047430895716822)	(-3.4557052781684137, 8.5679331663927556)	1.0	z	0.985505
19	M	A	B	A					M	4	0	shapes	M	8	True	91	(-0.025594087030778923, -7.4392200380137785)	(6.6364851593446019, 0.39831251228997644)	(-2.6869093858773097, 5.8009123356589729)	(4.3608695333905771, -7.59278689200515)	1.0	z	0.935257
20	M	A	M	B	A	N	B	N	B	8	3	shapes	B	8	True	91	(-0.8251948649339278, -2.5585722257166799)	(-5.0241761891183243, -6.8933908469163576)	(5.6164809469834012, 8.5520477224517109)	(4.4578650173337131, -6.0578513212475151)	1.0	slash	1.57702
21	M	A	B	B	A	M	N	N	B	8	1	shapes	A	8	False	91	(-0.95056928703284616, -2.0706487953520227)	(1.7798990445398282, -5.3856196156667036)	(-7.002145983083893, -7.5634356469083714)	(-3.5435378189003774, 7.7945215222321593)	1.0	z	1.14193
22	M	B	N	M					A	4	2	shapes	N	8	False	91	(-6.5814294100520012, 0.5246299978336495)	(7.9354747972051634, -3.9278634831669725)	(1.1853781856663463, 2.2732561380592244)	(-2.4866521865591187, -2.3099977822510498)	1.0	z	1.71616
23	N	A	A	B					M	4	3	shapes	B	8	False	91	(6.1780520414312594, 4.6357895761094028)	(-3.1358992591541659, 5.1632901106047342)	(0.16461906014096073, -5.4843764810103526)	(-4.670117610623552, -5.3424705927730347)	1.0	slash	1.00781
24	M	B	B	A					M	4	3	shapes	A	8	False	91	(-1.1438133162674013, 2.711474828622265)	(-2.7731675039119503, -0.9874272633330019)	(8.5671629366579793, -6.5215105918877168)	(5.381869686796934, 7.4631888001976989)	1.0	slash	1.40741
25	M	B	A	B					M	4	0	shapes	M	8	True	91	(0.57519685681367072, 1.2809943991549027)	(-5.5159105952263552, -5.313619863297034)	(1.4633791442413155, -6.4490884341761525)	(-6.7918229445637976, 8.7270072955998224)	1.0	z	1.02507
26	N	B	A	B					B	4	1	shapes	B	8	True	91	(4.1605000978625135, -5.8066127805915393)	(-1.3270477507373997, -3.0248237772160058)	(4.7076326044030239, 0.26268520093171333)	(-6.0648844649446012, 0.14505347724735884)	1.0	z	1.23865
27	M	B	A	N	N	A	B	M	N	8	2	shapes	A	8	False	91	(-2.5551950679810345, 7.192038788708798)	(-0.21913199898841995, -1.3575990770319084)	(6.3552247881419142, -4.7577256201171432)	(-3.2002033637470984, 1.7147302150543489)	1.0	slash	1.14615
28	N	B	N	M					M	4	1	shapes	B	8	False	91	(2.0858988379418886, -6.7297233094680458)	(-1.211698839586302, -4.224028709598743)	(2.2407779914329389, 4.7186237218630414)	(-1.0483889379013362, 2.3898472139518887)	1.0	slash	0.887995
29	M	B	B	N					M	4	0	shapes	M	8	True	91	(-3.2132025677825773, -6.2368547377179331)	(-7.7326309168691498, 0.40936881395971092)	(5.6825579418047827, 7.8183696350673664)	(5.1802258131242382, -6.692994405716842)	1.0	z	1.4975
30	N	A	B	A	N	M	B	M	M	8	7	shapes	M	8	True	91	(-6.7071322908213959, 6.9257604221179268)	(1.0477410953595445, -1.7415445935270251)	(3.0993747803549336, -6.3277886525430809)	(4.8355696716583161, 5.6848270187112284)	1.0	z	1.41516
31	M	B	B	M					M	4	1	shapes	B	8	False	91	(3.5587572675345136, 3.6755010600888394)	(1.9114450697873338, -3.5390333519997919)	(-2.118372393072919, -3.8387232621575151)	(-0.13748981674405059, 1.3629829676959311)	1.0	slash	1.00625
32	N	A	M	M	N	A	B	B	M	8	3	shapes	M	8	True	91	(1.3505302237761967, 0.45402132638702319)	(4.843413510394436, 2.8463769507628367)	(5.7236073661813638, -4.8318662440781841)	(-6.4630115977973137, -7.2218769553288853)	1.0	z	2.25043
