TrialNumber	stim0	stim1	stim2	stim3	stim4	stim5	stim6	stim7	stim.probe	ttl.stims	corr.num	trial.type	stim.corr	block	match	Subject	stim.pos0	stim.pos1	stim.pos2	stim.pos3	ran	resp	RT
1	M	A	A	M	N	N	B	B	B	8	3	shapes	M	Practice	False	93	(2.1246314037905574, -2.3304757131059199)	(-0.2506867864592337, 5.7172986674108088)	(6.4859692068905499, -0.83500260498142964)	(-7.6382685208465029, -6.7716449096847331)	1.0	slash	5.58176
2	M	B	A	M					A	4	2	shapes	A	Practice	True	93	(-8.5357228066746078, -2.0049051434022198)	(4.5648752461838527, -8.2652044749841096)	(-2.6114330425172447, 6.1481353380354875)	(5.5029107755856117, 1.6704759763389827)	1.0	z	2.08903
3	N	A	M	B					A	4	1	shapes	A	Practice	True	93	(-0.65112034222419091, -3.5514606515307028)	(1.2036179832052039, 2.2956326562916836)	(-3.1129441131227056, 5.6285578219947343)	(6.0762431281970475, -1.7977863177138182)	1.0	z	2.94501
4	M	A	B	M	B	N	A	N	A	8	1	shapes	A	Practice	True	93	(-0.26413426499755133, 5.9820633719655127)	(8.2697366597138924, -0.28792431403404528)	(-0.5348482878383809, -2.7504102603618454)	(-6.9503062877123067, 6.7990842776378404)	1.0	z	2.62424
5	M	A	M	A	N	N	B	B	M	8	2	shapes	M	Practice	True	93	(-6.2924859567744207, -0.36069651815995485)	(-2.0514964356431156, 4.4101222349327003)	(-6.2943874509839075, -6.2336609716827684)	(2.194613921621805, -2.9274100554300659)	1.0	z	4.52085
6	M	A	N	A					A	4	0	shapes	M	Practice	False	93	(4.4494627917101646, 4.8527281241370801)	(0.020880658954769871, -4.8761543923276118)	(-7.6803915196041661, 5.1539039102448161)	(-7.0746994525940501, -0.41035433435421176)	1.0	slash	1.34496
7	N	A	M	A					B	4	0	shapes	N	Practice	False	93	(-1.4596652801116239, -5.1161707105655712)	(-0.074507192627946139, 1.5548674115879528)	(7.0275619981442095, -4.5673273275236657)	(7.2364974106933158, 4.5910625265428067)	1.0	slash	2.03858
8	N	B	A	N	M	B	M	A	N	8	6	shapes	M	Practice	False	93	(-4.9868315538947847, 7.3221509735175481)	(-0.11889128652617487, 7.0125745076462938)	(4.6721824909297247, -5.6752803724534662)	(7.2097633022426439, 5.8120116024849313)	1.0	slash	4.07712
1	M	A	N	M					A	4	1	shapes	A	0	True	93	(1.0236773209901848, -7.6485556426589998)	(2.2492634300203189, 7.7156540463425927)	(-8.6816562544175557, 6.1048653405280948)	(-8.5926861678548399, -0.23472074260964959)	1.0	z	1.19253
2	N	B	N	B					N	4	1	shapes	B	0	False	93	(6.6536003697326347, -0.4408045740551696)	(-1.3230281102284733, 8.3550993212808606)	(5.0181431594214345, 5.6696829865837035)	(-1.587793713825949, -6.2825776701606824)	1.0	slash	0.859871
3	M	B	B	A					B	4	2	shapes	B	0	True	93	(5.8492257089350161, 4.4357947428712237)	(-4.4866790153856737, 5.3530889851418415)	(5.1907464342506238, -3.2025977731459516)	(-6.7893303370854579, -7.2914020555559249)	1.0	z	0.913762
4	N	A	A	M	N	M	B	B	B	8	6	shapes	B	0	True	93	(-7.3092779778739816, 0.37452410935089198)	(-0.046287463723226452, -8.2437847055404543)	(1.3766299025752105, 1.5948566997915794)	(1.001714504298862, 5.73090040174311)	1.0	z	0.815004
5	M	B	B	M					A	4	0	shapes	M	0	False	93	(-8.3210674838173517, 0.56961314396054519)	(-3.9500270663663501, -7.3183336487953659)	(1.7535562901709731, 0.58973566783207154)	(6.8406666474735527, -0.17580528977942755)	1.0	slash	0.710975
6	M	A	B	A					M	4	3	shapes	A	0	False	93	(-6.5559279622489832, 8.1507840913915892)	(1.764690432320581, 0.71454300792847647)	(-2.6336923387367799, -7.5131678749113853)	(2.8843535655109918, -6.4438221820572696)	1.0	slash	0.698772
7	M	A	N	A					A	4	1	shapes	A	0	True	93	(-8.154388151354933, -5.4157255591437332)	(-6.0849378434427575, 5.5273484784914118)	(5.57381699283372, -1.5671841126475146)	(6.0927839695256871, 3.4061023897033529)	1.0	z	0.640185
8	N	B	N	A	A	B	M	M	N	8	6	shapes	M	0	False	93	(1.4590050263070609, 1.4430961996991289)	(6.4420022536197354, 0.67681206745059797)	(-8.500370764249304, 8.2300216057486466)	(-7.1233256180901128, -2.6532898414654351)	1.0	z	1.606
9	M	B	N	B					N	4	1	shapes	B	0	False	93	(1.1506417078539659, 1.0111925057931366)	(2.1551359313781369, -5.9883033561781165)	(-4.1262086886094016, -6.6233366788267318)	(-7.7155049728820178, 4.7039233808672023)	1.0	slash	0.863767
10	M	A	N	B	M	N	A	B	A	8	0	shapes	M	0	False	93	(-6.129576924074863, -6.6106163353788965)	(7.447678037329581, -0.36197822746660613)	(5.6083008166290185, 6.1003892438529839)	(-4.1413868970801335, 5.5823807514489463)	1.0	slash	0.831046
11	M	A	N	N					N	4	3	shapes	N	0	True	93	(-5.7187844109772099, -8.4335931583156469)	(4.3086325731734494, -2.2754871099484495)	(-1.6724753927155183, 2.4169615867286325)	(5.8949693153183222, 2.0373237595108886)	1.0	z	0.673047
12	N	A	B	N					N	4	3	shapes	N	0	True	93	(-1.3465942722115569, -1.5104747004212289)	(6.1216817769350591, -4.6666441767060016)	(-7.908712379176011, 2.0664259899777555)	(8.4884148874308494, 1.4512985704836368)	1.0	z	0.884766
13	N	B	N	A	B	M	A	M	A	8	3	shapes	A	0	True	93	(-2.7718043974138613, 4.1373335167275087)	(5.0762648249028075, 7.7013610757240123)	(-4.023945336864621, -0.73854066414762265)	(-5.1489062041746712, -5.8833306769826823)	1.0	z	1.70441
14	M	B	B	N	A	M	A	N	B	8	5	shapes	M	0	False	93	(-0.030008026585297998, -1.4523797788042385)	(-8.2416328326892199, 8.6935388186629083)	(-6.6271152314834199, 2.695695491877828)	(6.5826481463336339, 8.2660909956960111)	1.0	slash	0.687939
15	M	B	B	M	N	A	N	A	N	8	7	shapes	A	0	False	93	(-3.9987296538242099, -5.5972631227816985)	(2.8746681907435381, 7.7661637385402642)	(7.6855594333494182, 0.86518301695181421)	(-6.8310720447730366, 4.8130031386463124)	1.0	slash	0.96343
16	M	B	N	M	N	A	A	B	N	8	2	shapes	N	0	True	93	(-3.5556288115036399, -7.8303674397280245)	(-3.7356076509622831, 7.1803135051651754)	(5.3095848020266967, -0.7745576405756287)	(-8.4872150112559481, -1.6061964014248948)	1.0	z	0.839266
17	N	B	A	A	N	B	M	M	N	8	2	shapes	A	0	False	93	(4.6107898244664938, -5.8872878440342706)	(3.9865881612977034, 2.561185675766243)	(-1.6647949461283691, 0.088571825377474767)	(-3.1142571990901535, -4.9907017856853848)	1.0	slash	2.03739
18	N	B	N	A	M	B	M	A	M	8	1	shapes	B	0	False	93	(2.0866712403776102, -7.2602964519971929)	(-4.5819936290487888, -5.5882292536667162)	(-1.1487812770728265, 7.7619521090745494)	(-0.38493168662129307, -2.3753776194591989)	1.0	slash	0.970517
19	M	A	N	M	B	B	N	A	B	8	6	shapes	N	0	False	93	(-8.317744642197006, 2.8024511436316555)	(-0.59911884660927051, -0.046915918740841889)	(-7.4636486878268622, -6.6759883796275812)	(-4.1733953867669342, 7.8229068010737635)	1.0	slash	1.50206
20	M	B	M	B					M	4	0	shapes	M	0	True	93	(2.5095176819663383, 5.6578177519764044)	(7.2557591876543484, -3.4757024895624573)	(-6.6221411896203932, -6.2181574070942354)	(-8.1823766959254165, 0.4923472934003339)	1.0	z	0.859179
21	M	A	B	A					A	4	1	shapes	A	0	True	93	(2.2455445570714012, 0.48665989304272195)	(-4.7012385181162424, 1.1404719164126611)	(-5.342971185337106, -5.763732253520562)	(6.2083434599478977, -4.1953465539842805)	1.0	z	0.729208
22	N	A	A	M	M	N	B	B	N	8	0	shapes	N	0	True	93	(0.82025408107976006, 0.56650269151224997)	(-5.5910273034222291, 2.5533673434128765)	(4.2986675207437166, 6.750941979422084)	(-3.6377977719155954, -3.016176377080642)	1.0	z	0.876921
23	M	B	A	B					N	4	3	shapes	B	0	False	93	(-3.1871962541631422, 6.4782997086158574)	(3.8233462110369736, 4.2535799488402333)	(1.8045494295799482, -7.3707145374847549)	(-8.5301626873173113, -7.7697787633174729)	1.0	slash	0.8166
24	N	A	A	N	B	B	M	M	M	8	4	shapes	B	0	False	93	(4.4437248250897117, 8.4965422181307453)	(-7.5802453467703597, -6.1109411302405094)	(-2.25645285803673, 7.6026817319407485)	(0.78255076132051471, 2.2815017208873414)	1.0	z	0.930262
25	N	A	B	B					A	4	1	shapes	A	0	True	93	(-1.9996399502097875, 1.7485909116394804)	(-0.33630709360764044, -5.074740380085168)	(7.1290570802466569, -5.2532259859036419)	(6.5417201783527918, 6.5966786741822698)	1.0	z	0.938011
26	M	B	B	A					M	4	2	shapes	B	0	False	93	(6.5645138253172632, 5.949637873951124)	(-7.682033114577937, -3.8510325141249622)	(-4.118703081167979, 8.6752458500226375)	(3.289898543016859, -0.17614319819416302)	1.0	slash	0.767604
27	M	B	A	B	N	N	M	A	A	8	2	shapes	A	0	True	93	(1.7874685020698298, -3.8862469577710597)	(0.1835242902158889, 2.6839306413611688)	(-6.4922412173532553, 7.9609965959869982)	(5.5412376060374839, 2.1053433515875213)	1.0	z	0.939024
28	M	A	N	A					N	4	3	shapes	A	0	False	93	(3.9574234109078343, 8.3081438283536322)	(-4.2373665439690056, -2.6447365018984996)	(3.024380793951936, -3.235869373664344)	(-2.3061063635695307, 5.128941417258325)	1.0	slash	0.800703
29	N	A	A	B	M	M	N	B	N	8	0	shapes	N	0	True	93	(2.5021518766995374, 8.2238531893327149)	(5.8267689638514835, 1.8520990937533561)	(-2.0250132386873458, 5.3833462414021334)	(-6.9139453902046748, 2.4516631190625997)	1.0	z	0.806503
30	M	B	A	M					B	4	0	shapes	M	0	False	93	(-0.32465480077280873, 0.82553040231776897)	(7.8575476555718424, -7.3485476936969647)	(7.0713267074335082, 1.4198178985796748)	(-8.1339919204693363, -4.2274736975402032)	1.0	slash	0.84753
31	N	B	N	B	M	M	A	A	A	8	7	shapes	A	0	True	93	(-7.6387411952627993, -5.5367654015312882)	(-8.4544739508689304, 1.9639422434158984)	(1.9508967582777963, -8.746359356829954)	(4.8388977189997089, 2.6854723730078938)	1.0	z	1.31581
32	N	B	B	N	A	M	M	A	A	8	7	shapes	A	0	True	93	(5.5883231347743791, -7.3056675260340471)	(7.5927215926472478, -0.16815250309496932)	(-3.1943624741410765, 1.8460978617089623)	(-7.723498992599124, -3.7725724777787359)	1.0	z	0.657435
1	M	A	M	N					B	4	3	shapes	N	1	False	93	(-8.5032250046850404, 0.05305836778067885)	(7.5467395633855681, -3.8094753559802133)	(-7.2118244704338732, -6.1538641828745337)	(7.7529396873281655, 3.8476505940152954)	1.0	slash	0.513211
2	M	A	A	M	B	B	N	N	N	8	3	shapes	M	1	False	93	(-4.4030439540334552, -6.8290257943312298)	(-0.88517073510300559, -3.8317537679580731)	(7.2238285583443176, -7.2192007769077495)	(-1.7709914305796381, 1.1779197857519641)	1.0	z	0.990874
3	N	B	A	M					A	4	2	shapes	A	1	True	93	(-2.391057854650569, 5.4975991481375655)	(-5.3753771002750437, -2.6849234922650336)	(4.5265537049996905, -0.54364456390504401)	(8.6094420937809204, 7.0812138420270472)	1.0	z	1.07439
4	N	B	M	B					N	4	3	shapes	B	1	False	93	(-0.92450551127135494, 1.7238536181799144)	(1.7875798035565538, -3.9720899584357614)	(2.5416832730923922, 5.4941244979694908)	(-7.1795518551671735, -2.0959485009401346)	1.0	slash	0.669769
5	N	A	A	N	B	M	B	M	A	8	1	shapes	A	1	True	93	(6.5368602853565481, -0.074649334906879972)	(-0.16306328908902401, -2.4007313840370497)	(-6.5624693198239905, 0.72787769059319629)	(8.5270159983924998, 7.4160313244358065)	1.0	z	1.12637
6	N	B	A	A	M	M	N	B	B	8	7	shapes	B	1	True	93	(-7.2152126018815848, -2.3957893861198221)	(4.3540799701183062, 2.0779487867288839)	(7.9810779053436356, -3.7196039002877104)	(0.86587817733689576, -2.3701206663072876)	1.0	z	0.633429
7	N	B	N	A	B	A	M	M	M	8	5	shapes	A	1	False	93	(-2.3872130269256289, -6.6479888529666784)	(-3.2842559852289366, 2.8675751610135052)	(6.5708040744512672, 3.8730484826721892)	(6.2267667112846468, -2.0593633645461651)	1.0	slash	0.674856
8	N	A	A	B					A	4	0	shapes	N	1	False	93	(-1.2344817345504122, 3.6196512399403034)	(2.9516470139095912, 4.2088801321687477)	(7.6042474231133532, -1.4361307369867005)	(-5.1805089955942076, -8.1304793722555679)	1.0	slash	0.638152
9	M	A	A	M	N	B	B	N	N	8	1	shapes	A	1	False	93	(1.1366661522368791, 7.5549305477113187)	(-0.48296177043467559, -8.2512091554768983)	(0.52871257578725483, 3.5286641613766196)	(4.9747757618765007, -1.1840385785801777)	1.0	z	1.01226
10	N	A	B	N					A	4	1	shapes	A	1	True	93	(-6.0010372817093067, -4.2123701493043297)	(1.4789937712482253, -8.7071243165021208)	(5.5425173040981797, 8.4065488686501872)	(-6.855678506172687, 3.2854028609522299)	1.0	z	1.00993
11	M	A	A	M	N	N	B	B	B	8	6	shapes	B	1	True	93	(6.478267567686169, -7.7877865042643393)	(7.3104782725121673, -3.8392101577375897)	(2.0263009031285293, 5.1242156166536024)	(-0.079094616765933878, -0.91096720580914337)	1.0	z	0.613925
12	N	B	M	M	A	N	A	B	A	8	4	shapes	A	1	True	93	(-7.4810168201042169, -5.211535371566681)	(4.1321257676073539, 7.5854649297425816)	(4.5279451020365276, 3.0417319771595661)	(-7.3775783504382417, 7.0036237291614611)	1.0	z	0.72318
13	M	A	A	N	M	N	B	B	M	8	4	shapes	M	1	True	93	(-8.1504521760860129, -6.0285566519803258)	(-0.45667411060377106, 5.7413880187180535)	(-7.8751821937156832, 4.2286770674410796)	(3.2199797401857282, 1.4772554852445605)	1.0	z	0.814896
14	N	A	B	N					B	4	1	shapes	A	1	False	93	(-0.79172828739580581, 2.516019978824291)	(-0.90567557631399875, -4.5505637247643138)	(6.1946842622358176, 0.24157418380437434)	(3.9283682546055623, -7.0750944914372065)	1.0	z	0.878552
15	M	B	N	B	A	A	M	N	N	8	6	shapes	M	1	False	93	(6.8474141663966179, -0.55050754946219804)	(4.9852459338786925, 6.5667370572956774)	(-6.9194215056883728, 7.6369427535208843)	(0.025159131636584675, 8.4126022850487168)	1.0	z	0.788202
16	M	A	B	A					A	4	1	shapes	A	1	True	93	(0.24651038036633821, 5.6750638621042651)	(-2.7045487246019286, 2.0637597796932443)	(1.7070403158649068, -2.6316088700024807)	(-4.8984660441246506, -4.8060352819276577)	1.0	z	0.663266
17	M	B	B	N	A	A	N	M	N	8	2	shapes	B	1	False	93	(-2.3737977736770155, -7.5501131946985183)	(7.4833357008247638, -0.592663785254544)	(-6.4871149800980339, -3.1150829915586042)	(-8.0317106904372277, 4.1065215653709792)	1.0	slash	1.19946
18	M	B	M	A					N	4	0	shapes	M	1	False	93	(5.4343277783482407, 5.2706562050406305)	(1.8657849588026139, -5.2977474955805146)	(-4.536244705174254, -1.1963878176071789)	(-1.5087529657236942, 6.2466783121098786)	1.0	z	0.841138
19	M	A	N	N					A	4	0	shapes	M	1	False	93	(3.5623931838298688, 1.6919339012873333)	(-7.1866677651318476, -4.0372156424293033)	(-3.1596332658782682, 0.23196239343204006)	(8.4376540018535415, -4.8738170782114967)	1.0	slash	0.658796
20	M	A	N	A					N	4	2	shapes	N	1	True	93	(-3.6612036889851822, 3.5442931420844932)	(3.1476574954304777, -6.5289430293752737)	(0.62741447711464637, 0.48082973578823029)	(-7.422585315902734, -2.4215725432952073)	1.0	z	0.920355
21	N	B	A	M					A	4	2	shapes	A	1	True	93	(-4.5961052885473368, 5.086345855667803)	(-6.0494174844042785, -4.3109975551287523)	(7.5445664959677607, 7.2918229342986649)	(7.7130118202408866, -0.4524778899781019)	1.0	z	0.642113
22	N	B	N	A	M	B	A	M	A	8	0	shapes	N	1	False	93	(-1.8259268947256668, -6.1789688906796147)	(-4.6952642083573073, 1.8575863445481087)	(7.7352961861714427, 4.2311724945093268)	(1.8465216373696123, 6.5797983277927479)	1.0	slash	0.645722
23	M	B	M	B					B	4	1	shapes	B	1	True	93	(1.5095247101136664, 3.3329786382503581)	(-6.2951953286004905, 1.6702762134788713)	(4.8789044576418625, -5.6288179270100418)	(-2.052769524069487, -0.50652562201502249)	1.0	z	1.00738
24	N	B	A	N					B	4	1	shapes	B	1	True	93	(8.0315835286360802, -8.4093358714758732)	(7.4531997394950089, 4.3693889265276411)	(-7.3058394368531996, 3.5891909405936868)	(-8.6042238851232042, -4.4627449106077703)	1.0	z	0.710106
25	N	A	A	B	B	N	M	M	A	8	6	shapes	M	1	False	93	(-4.3398300374673804, -7.1367323372621305)	(-0.47128500122089179, 7.9922808057819914)	(-7.8676697310004124, 7.9084564723661224)	(5.8243694108959119, -3.7297060186534026)	1.0	slash	0.796066
26	M	B	A	N					A	4	1	shapes	B	1	False	93	(0.17796068563647971, -3.7809695841089566)	(-5.6883701246837415, -7.1722643109109621)	(-3.0018228699348022, 5.180315151140265)	(6.0008426178293579, 2.7593998576802967)	1.0	z	0.776015
27	M	B	B	A					M	4	0	shapes	M	1	True	93	(1.6658269064190367, -3.3593605763233203)	(-7.6943019835419557, 2.8089955708286318)	(1.4459938148571911, 4.9971431280879699)	(-5.1957259054153244, -8.6198079853080749)	1.0	slash	1.28853
28	M	A	N	A					M	4	2	shapes	N	1	False	93	(4.6083320481864458, 8.012779314465746)	(-8.670717098254979, 7.8992633095983926)	(-1.1507776070672486, -1.1995943860731106)	(4.2596899665970316, -3.1688086034213834)	1.0	slash	1.61812
29	N	B	M	A	M	N	B	A	M	8	7	shapes	A	1	False	93	(1.9717153684596571, 1.7654914527356169)	(0.17994623011703581, -3.3658502259999885)	(-4.8609994557927454, 4.7678606595134294)	(4.8631582440954872, 5.5766831007288022)	1.0	z	1.18753
30	N	B	A	B	N	A	M	M	M	8	7	shapes	M	1	True	93	(-3.266990813617122, -5.584768542896331)	(0.0073980191052740452, -2.2556149153948875)	(0.9537363600907991, 4.9071414084211877)	(5.9887197031164412, -1.9704376905175511)	1.0	z	0.962632
31	N	B	M	A	B	A	N	M	M	8	2	shapes	M	1	True	93	(-5.8690653333810836, 7.3495697568285472)	(-1.8694910835171168, 0.10215878518143739)	(-5.8236155039485968, -1.0240549804211181)	(3.8034130277640656, 0.47610377557946926)	1.0	slash	1.67895
32	N	A	N	B	B	M	A	M	A	8	6	shapes	A	1	True	93	(-2.0280503795603009, 7.1130602371809495)	(-4.9218981281388698, 0.3257225056523616)	(3.9801633519569517, -5.9803002697938341)	(-6.9290046060866413, -8.5843705466411286)	1.0	z	1.09997
1	N	A	A	B					A	4	0	shapes	N	2	False	93	(7.6712928881734577, -7.7811196551773634)	(-0.87870109311981714, -7.3959061857062203)	(3.2131917020941909, 5.8264902755700927)	(-7.9794796793534308, 0.84698703834026645)	1.0	slash	0.683195
2	N	A	N	A					B	4	1	shapes	A	2	False	93	(-3.2524862926236446, 4.3224281240096847)	(1.2125382216721796, -8.2406854204651889)	(6.7364219779164305, 4.3152513901902729)	(-2.7223952899247799, -3.0325043142974435)	1.0	z	1.82547
3	M	B	M	N					M	4	3	shapes	N	2	False	93	(5.5283166262967516, 6.2419125073610591)	(8.0593295695142082, -0.3978767138137016)	(-5.4835791203864401, -1.6503367182079094)	(-4.6742110685799405, 3.8310598923767198)	1.0	z	1.29515
4	M	A	B	B	M	N	N	A	N	8	5	shapes	N	2	True	93	(0.57160490035968259, 5.1900000266806909)	(-4.3095912252600455, -5.6357366402330289)	(1.7329139651809289, -7.4997285230808872)	(8.6309056709041023, 6.1969789845525991)	1.0	z	1.6171
5	M	A	A	N	B	M	N	B	M	8	0	shapes	M	2	True	93	(2.6432123733691135, 6.7647960400656757)	(3.182199032247139, -3.1953640777527843)	(7.5876346811207753, -7.2870376835647122)	(-2.6650692370226272, -6.3024020989066001)	1.0	slash	3.56512
6	N	B	M	M	N	A	B	A	M	8	2	shapes	M	2	True	93	(-6.2409837047055081, -2.3815857910160823)	(4.5086865776405922, -5.7623404799837328)	(6.5420813338720727, 7.3046473930497875)	(0.84226332602383103, 3.7710889605364422)	1.0	z	0.755266
7	N	A	N	A	M	M	B	B	B	8	7	shapes	B	2	True	93	(-1.5086426099042001, -7.5420058936862002)	(-2.4502352183251066, 7.2996935556869182)	(4.9592324418491511, 3.2147989791473872)	(-0.42931706565112471, -1.2396798008407224)	1.0	z	0.789368
8	M	A	N	M					M	4	0	shapes	M	2	True	93	(-3.0315682104386275, -0.32280340211558212)	(4.4002207439244501, 0.7589647364958676)	(-3.528525840814412, 8.4391976042099088)	(0.95382707630824548, -3.0681225715802816)	1.0	z	1.08878
9	N	A	M	M					M	4	1	shapes	A	2	False	93	(5.9033886248509599, -5.8168324041030068)	(-0.049312212051916049, -6.1031152535358402)	(-8.6167178558096857, 6.671941159439994)	(0.69669073601860987, 3.2764824308171416)	1.0	slash	1.10448
10	N	B	M	N	A	A	M	B	B	8	0	shapes	N	2	False	93	(5.7017936002021763, 1.3965047100338577)	(2.1454843175265115, 8.2276401024218337)	(-5.7930153879183894, 4.5219762751034498)	(-3.6196431585290334, 0.51703838479884823)	1.0	slash	0.784025
11	N	A	N	B					M	4	1	shapes	A	2	False	93	(-7.7499885472696617, 8.0206772891490559)	(-7.2343890189072697, -4.2490387883912515)	(2.0520834878498473, -0.81428420504762311)	(6.6150836225378917, 2.9854955468247564)	1.0	slash	0.845716
12	M	A	A	M					A	4	2	shapes	A	2	True	93	(-3.3210686037054487, -3.3370841394132817)	(-2.0560289309306565, 2.8775618200994195)	(1.2923885025465154, -2.7736372157458753)	(4.5096231294200937, 8.4262677735013725)	1.0	slash	1.03534
13	N	B	N	M					A	4	2	shapes	N	2	False	93	(8.3009387822605909, 1.3513252615156759)	(-2.83233460657131, -4.5157903253629907)	(-2.0463306793172293, 2.7324590302084975)	(3.4156405602294431, -2.1285359625664242)	1.0	slash	1.12735
14	N	B	B	N					B	4	1	shapes	B	2	True	93	(1.5684417567425886, -4.2723859696514968)	(3.098754858069503, 2.4694459862671554)	(-6.4778935376776055, 5.8705999075240634)	(-3.047580798452354, -0.64034245448884164)	1.0	slash	0.664522
15	M	B	B	A					B	4	2	shapes	B	2	True	93	(-5.2186404228430705, -4.7993047901358317)	(1.6411587539296555, 1.964894927249226)	(-2.0179053051566846, 4.6080314719552398)	(3.7689445898343941, -6.161958060036997)	1.0	z	1.11068
16	M	B	N	B					B	4	3	shapes	B	2	True	93	(7.8378806407199058, -0.78980386908292921)	(-6.2644340811254065, -4.0923338063643264)	(4.1723288609404605, 7.2784817830168542)	(-6.667690054532506, 0.10277483438735047)	1.0	z	0.80204
17	M	A	N	B	N	A	M	B	A	8	2	shapes	N	2	False	93	(-1.7154512794193115, -7.0666547118132561)	(-6.855038836181671, 4.1398450696204634)	(4.640246820439808, -7.4474859590078442)	(5.6283230223829239, 7.5108808555049968)	1.0	slash	1.26103
18	M	A	A	N	M	B	N	B	A	8	4	shapes	M	2	False	93	(-2.8066623202319603, -5.5169328612924255)	(-5.0099426344035907, 3.9439119089656689)	(0.76498413960667833, 1.477703456984754)	(4.9486858293278644, 0.011903338310448319)	1.0	slash	2.62427
19	N	A	M	N	M	B	B	A	M	8	3	shapes	N	2	False	93	(-5.5868190514780878, -8.6304711557821943)	(-6.6509216914914369, -4.5334857986379138)	(6.5590004628720031, 6.8084727087943939)	(-6.1914667359785316, 6.2251253560897872)	1.0	z	2.04718
20	M	A	A	B	M	B	N	N	A	8	2	shapes	A	2	True	93	(7.8287843958674941, -2.0287905097997552)	(3.3756195634004431, 7.1890401900814211)	(-4.4506527707722805, -1.1750290963845904)	(-0.5348429284809999, -2.8238850263084352)	1.0	z	1.52221
21	N	B	M	B	M	N	A	A	N	8	3	shapes	B	2	False	93	(3.9521000744593984, 3.9916536797824715)	(1.6446279855454211, -3.4062149582139751)	(-6.7526504102605394, 1.1554444281445075)	(-0.77047164831336623, 7.2971637905669837)	1.0	slash	1.87043
22	N	B	B	N	A	M	M	A	B	8	0	shapes	N	2	False	93	(-2.0925522487336661, -7.6479675270989844)	(8.4372922661087699, -8.168559685532971)	(8.5505996351443443, -4.1421226912409468)	(2.1752059289130372, 5.9122851848468674)	1.0	slash	1.30126
23	N	A	A	B	N	B	M	M	A	8	2	shapes	A	2	True	93	(-7.5206333156745755, -3.2027917896546461)	(5.7395088392318261, 3.9558258779463671)	(-1.9063577463362398, -4.5446364474448862)	(6.692718657858677, -4.8793367105746279)	1.0	z	4.2864
24	N	B	N	M					N	4	2	shapes	N	2	True	93	(-3.2550570588240753, 8.1310747527394547)	(4.5743442881031875, 0.76697116390913145)	(-6.3866031917484918, -8.6475283072393552)	(6.4618621364880973, -3.0702365476823505)	1.0	z	0.590391
25	N	A	M	M	B	B	N	A	M	8	3	shapes	M	2	True	93	(-4.9400040344915128, -6.7907570843527587)	(6.9827730707550781, 3.7731031865033149)	(-5.2131315157331111, -1.9939655639502849)	(-6.4274617655083226, 4.3045747277806736)	1.0	z	0.902102
26	M	A	N	N	A	B	M	B	M	8	7	shapes	B	2	False	93	(-7.2217710780734699, -5.9722527031588761)	(-3.2499896059241191, -4.2252829724630629)	(2.6970546253290699, 4.4128414064032722)	(2.4054312539519458, -4.5577730746861604)	1.0	slash	0.837883
27	N	A	A	N					A	4	1	shapes	A	2	True	93	(3.2060544753274929, 5.7869743644333393)	(-8.2843188324398884, 1.5845705918006008)	(0.16730376504771272, -8.5317481752425923)	(-1.4379700001115125, -0.5798143847703976)	1.0	z	0.841163
28	N	A	M	B	N	A	B	M	A	8	7	shapes	M	2	False	93	(-8.2960732425568082, -2.5629590407410827)	(-4.6772177672326363, 7.7707227020801568)	(4.5623569418724994, -1.4952555974025863)	(6.3623298169789244, 3.9478728404340053)	1.0	slash	0.726934
29	N	A	A	N					B	4	0	shapes	N	2	False	93	(1.5502428482487964, 5.3953076584840982)	(-6.723768318506866, -3.571831379536043)	(0.99906572504781366, -8.5573978989320469)	(-8.0855629205212782, 4.3355568797968189)	1.0	slash	0.720438
30	M	A	M	B	N	N	A	B	B	8	7	shapes	B	2	True	93	(4.5210363855939164, 0.064846748435847701)	(5.9249473978798051, -4.3580266270765122)	(-1.8358307705198609, 1.4361984182128094)	(4.436090401156056, 8.316688027080108)	1.0	z	1.07825
31	N	B	M	A					B	4	2	shapes	M	2	False	93	(2.4965911584084122, 6.2679867330959169)	(-7.6348674911154459, -0.48135672392254669)	(4.5209653020953695, -2.2096601239154667)	(-2.4263624712229461, 3.8679590106830055)	1.0	slash	0.687672
32	M	A	A	B					A	4	1	shapes	A	2	True	93	(-5.2846719508609068, -4.8615168101380011)	(7.0682731144970479, 6.8320592167313308)	(3.4142944520896918, -0.035303966702093348)	(-3.1165552565818651, 7.2275535739864356)	1.0	z	0.671399
1	M	B	A	N					M	4	0	shapes	M	3	True	93	(3.0939053213333541, -5.5426095977079317)	(-4.1829650933109903, -2.8483715850399385)	(7.5273604702083965, 2.0572600624495507)	(-2.3717332394445485, 6.0004185406653203)	1.0	z	0.779399
2	N	B	B	A	N	A	M	M	N	8	7	shapes	M	3	False	93	(8.3104455258521774, -5.0260561742804262)	(1.1772889418170696, 8.6545794318439597)	(6.5058814730171068, -1.3962479276259963)	(-1.1650045417738237, -1.5298050526352913)	1.0	z	1.14114
3	M	A	N	B					A	4	1	shapes	A	3	True	93	(4.1668462683012244, 6.4378035688902262)	(-5.4264909531546177, -0.061003208505702844)	(7.5912009837741081, -7.4048430533230665)	(-4.6051554559141987, 6.1329226820575027)	1.0	z	0.754587
4	M	B	A	B					A	4	2	shapes	A	3	True	93	(7.7661765904928117, -5.5283229140121328)	(-0.23795089394004165, 6.3262029956366703)	(-5.3217606934845954, -0.58115846288340123)	(6.5475262840204493, 1.8354928838500264)	1.0	z	0.821953
5	M	A	A	M	N	B	B	N	M	8	0	shapes	M	3	True	93	(6.9905419397029895, 7.6361052725663683)	(-1.8636895395224933, -4.7128909918833033)	(1.6153915318666119, -0.73323288333092407)	(3.2132076642381193, 3.3620901053600623)	1.0	z	1.06193
6	M	B	B	M					M	4	0	shapes	M	3	True	93	(3.7676137056252212, -1.781997816475335)	(-0.13434325286599957, 5.3552941507439034)	(-6.6975021610756489, -0.0037171048536634999)	(4.4187216988666354, 4.7647002178181364)	1.0	slash	1.5636
7	N	A	A	N					A	4	0	shapes	N	3	False	93	(-7.9879883510203173, 2.4445133060096769)	(8.7244170053850461, 1.1916228521293544)	(-0.77717506793037039, -3.7736683922478544)	(2.4964370229905199, -6.2106549708710457)	1.0	slash	1.03718
8	M	B	B	N					A	4	0	shapes	M	3	False	93	(-1.3580152775294652, 3.3499193816590367)	(0.050735258291785712, 8.7305865010992392)	(-3.7522396098911717, -4.6118436743363906)	(8.550352392076757, -6.4412521662618847)	1.0	slash	0.69633
9	M	A	B	B	A	N	N	M	B	8	3	shapes	B	3	True	93	(8.067928538873673, -5.7654692499846014)	(7.1929590107412587, 4.7771667026967339)	(-2.4231349127022304, -4.2366366833953455)	(-8.6751557720152022, -5.0852438773384012)	1.0	z	1.09059
10	M	B	B	N					B	4	2	shapes	B	3	True	93	(-2.6583896596231096, 3.9360426988083645)	(-8.049075467540094, -3.0291817258211013)	(8.3287715102598945, 3.4749390765794015)	(3.8973068189943145, -2.3530100752022172)	1.0	z	0.70562
11	M	A	N	B	M	B	N	A	N	8	1	shapes	A	3	False	93	(-0.53283332751642298, -6.746581821386652)	(1.8768101267472037, -0.56691371911787947)	(-3.2474687943408886, 4.7217413389862184)	(-0.75889619387600327, 7.9177785506440195)	1.0	slash	1.87429
12	N	B	A	M	B	A	N	M	A	8	2	shapes	A	3	True	93	(-5.2643537454470621, 7.880650922926268)	(8.0317990583534211, -8.5879592256869763)	(-2.7055645768526615, -2.7545446448113458)	(6.7302012368501014, -1.3925019993645176)	1.0	z	2.08797
13	N	B	M	B					B	4	3	shapes	B	3	True	93	(5.6173763444950744, 6.2058576582001983)	(-1.4513358517272881, 2.7255794296331999)	(-2.7567958337509575, -3.5732218278779442)	(2.3200452876614506, -2.8065653259103671)	1.0	z	0.856956
14	N	A	N	M					A	4	3	shapes	M	3	False	93	(-8.4493498749235254, -6.0904983281522158)	(-7.418702478131709, 7.46937821300358)	(1.7008387653374797, -4.9408806452027765)	(6.6394276379915738, 6.3267644733052961)	1.0	slash	1.08861
15	N	B	N	A					A	4	2	shapes	N	3	False	93	(0.65057319300757399, 5.7645884481223248)	(6.4371233660545997, -1.8511509707887601)	(-8.1192453700811473, 4.2999168128505847)	(-7.5729803841810845, -6.2679387125285952)	1.0	slash	0.744172
16	N	A	B	M	B	A	N	M	B	8	7	shapes	M	3	False	93	(6.7419128600017242, 3.5014332628122649)	(6.5805910754759012, -6.4969473332644352)	(-6.2142549283339585, 1.8574581330969693)	(1.9556174269882725, -2.4355676598062006)	1.0	slash	0.743291
17	M	A	M	N	N	A	B	B	B	8	6	shapes	B	3	True	93	(-5.090227478933592, -1.9865157692123709)	(6.9273163746736852, -1.445243240821438)	(3.0177833435320025, 3.2962166518024194)	(-8.2459637532144789, 5.6121402053225147)	1.0	slash	0.799323
18	N	B	N	A	M	M	A	B	N	8	2	shapes	N	3	True	93	(6.4778611240914525, 8.3266948605308322)	(7.0873864959591941, -6.6491887573593811)	(2.048107401715086, 8.1748330115532895)	(-8.6933703868292689, -1.804201652675018)	1.0	slash	0.876617
19	N	A	M	A	B	B	N	M	N	8	6	shapes	N	3	True	93	(-1.4723320059394425, -5.9077617951010417)	(0.28208435484262573, 0.89809444702332186)	(4.4079597015192924, 3.0253088250264693)	(4.6638484647679039, -2.4948609784284015)	1.0	slash	0.842764
20	N	A	A	M	B	B	M	N	B	8	7	shapes	N	3	False	93	(6.1849975783465823, 6.8696022499389073)	(3.2990994028592127, -2.4878742180210232)	(5.7906455699192705, 2.588282931290216)	(-6.7499093956676095, -5.0508028102764824)	1.0	slash	0.856031
21	N	A	N	A	B	B	M	M	A	8	5	shapes	B	3	False	93	(-5.3509093642572099, 5.4600030998714271)	(3.6860925075582252, 1.9316132029195963)	(-3.5308761702057403, -2.066343928573267)	(5.6115533987529247, -6.3009877436823389)	1.0	z	1.83457
22	M	A	A	B	N	N	M	B	M	8	4	shapes	N	3	False	93	(-5.6983694885121707, 5.4376239230347601)	(6.7948321832339307, -6.0221814879941746)	(-3.2946035414914334, -2.8106475609887438)	(8.6948769518544538, -1.9968064949404702)	1.0	slash	0.593258
23	M	A	M	N	B	B	A	N	B	8	4	shapes	B	3	True	93	(-2.1671642904273822, -6.8042900050890625)	(4.8050872446313395, 5.5991103082351206)	(-2.9453645924094545, -1.9330647506149754)	(4.421403762037448, -2.5219004230558912)	1.0	z	0.670892
24	N	A	A	N					N	4	1	shapes	A	3	False	93	(-2.241911017388146, 7.2748723519338441)	(1.0881037527059636, -1.8491142083392997)	(3.9762840145240776, 6.324065932174836)	(-6.1543592643184724, -0.97356026571562015)	1.0	slash	0.746998
25	N	B	B	N					M	4	0	shapes	N	3	False	93	(0.33967292935931148, -5.5261086969942781)	(-5.7001664856720744, 6.6778370461508221)	(2.7963035916557732, 7.124366800250078)	(-5.2260098337227037, -2.5844185957474668)	1.0	z	0.992721
26	N	A	N	B	B	A	M	M	N	8	2	shapes	N	3	True	93	(7.6020123420207213, 4.261928923603973)	(1.993852291639886, 1.7070066786946434)	(-5.3826206264213354, -4.0771289138195383)	(6.2620053867015102, -8.2404474943561272)	1.0	z	1.00583
27	M	B	B	M					M	4	3	shapes	M	3	True	93	(7.2170596362833628, -2.5495664464902621)	(-8.5550744777371275, -0.45850608436123963)	(0.80353844736679925, 6.7737400163629413)	(-7.3762864887411936, 5.1344726846151048)	1.0	slash	1.01605
28	M	A	M	N	N	A	B	B	N	8	7	shapes	B	3	False	93	(0.33863704877298417, -1.2622300732618568)	(-3.5748895133165686, 6.8926367085085332)	(-5.2785792099497897, -0.29390030992941263)	(4.5288839822860307, -0.08202429368006392)	1.0	slash	0.889539
29	M	A	N	M	A	N	B	B	M	8	6	shapes	B	3	False	93	(3.6943171765348986, 2.9483969582953193)	(-7.3561406045540005, -7.1672723105029634)	(-2.6368518469402726, 5.6793610590929333)	(-6.3061371967165005, 2.8964131629682281)	1.0	slash	2.01363
30	M	A	M	A					B	4	0	shapes	M	3	False	93	(1.5478189353058784, 6.1504815279005332)	(-7.7722884668496857, 8.2568905885635218)	(2.7111048095076455, -2.3422154818949545)	(-4.5574466381020615, -6.7890619337033282)	1.0	slash	0.624197
31	M	A	N	A					M	4	0	shapes	M	3	True	93	(-2.8289831066551736, 7.4142535795351669)	(3.9941104887864487, 2.3123163691951518)	(8.0532308180939864, -6.8053292614532568)	(-1.3420848947787345, -7.8491054483829821)	1.0	z	0.780234
32	M	B	B	N					B	4	3	shapes	N	3	False	93	(-3.6211426997702718, 3.0285295896255882)	(-8.6300600761532404, -1.7152752613893441)	(3.9566472959873735, -1.794459215762906)	(0.39669815233746775, 7.7257536527119051)	1.0	slash	0.730012
1	M	B	N	B	N	A	A	M	B	8	6	shapes	A	4	False	93	(1.1554650323974194, 1.4484898147527385)	(-7.8226238817278322, -1.4188578561043625)	(-6.8349498161687627, 8.2579928927460138)	(4.845421255800531, 6.3919965637174609)	1.0	z	0.603202
2	N	A	M	B					M	4	2	shapes	M	4	True	93	(5.7644121711672174, 6.3726706996277365)	(-5.4121217029002775, -3.4084102710194877)	(8.734240113361782, -2.0154084013398288)	(-7.592425503225007, 5.1982912213910648)	1.0	z	0.773368
3	M	B	B	M	A	A	N	N	A	8	5	shapes	A	4	True	93	(0.55966485123904697, -0.17798124898128975)	(5.0828175956541699, 6.4234040335405034)	(4.8682951260092455, -5.0139015556676689)	(-5.9486349175739024, -0.90882799802647973)	1.0	z	0.735111
4	M	B	M	N	A	B	N	A	A	8	4	shapes	A	4	True	93	(7.0765792180193579, 7.7951504502703131)	(7.7515332810362665, -7.7006807761281637)	(-5.5861541808805795, 1.569176868040536)	(-2.2227471822276073, 5.750680926904904)	1.0	z	0.776157
5	M	A	B	M	N	B	A	N	M	8	3	shapes	M	4	True	93	(2.1305455104006512, -5.1823843578431497)	(-8.2870788299247842, -3.6834963076417004)	(6.5380100564839889, -4.8170253167619057)	(-4.9714822459766062, 7.8587093688637282)	1.0	z	0.650336
6	M	A	N	N	A	B	B	M	M	8	0	shapes	M	4	True	93	(7.2977116431394258, -7.5776513388991784)	(6.50692440269464, -3.30142257184702)	(-5.1365927854164397, -5.200631269606629)	(6.3346168183188158, 5.5334712935955963)	1.0	z	0.837945
7	N	A	A	B					N	4	1	shapes	A	4	False	93	(0.97420619996722557, -4.2705735979085961)	(1.8591517383202731, 8.4686657346864571)	(-2.4029347486738075, 8.4365109130099647)	(-5.0750739957529047, -3.1464537389615916)	1.0	slash	0.663096
8	M	B	B	M	A	A	N	N	N	8	0	shapes	M	4	False	93	(-0.94447981530432212, -0.8899769860594704)	(8.2891217196146414, 7.5402088864924046)	(-6.7792094427636611, -4.6281186305065027)	(-4.0343818447900919, 2.9335066098018032)	1.0	z	1.83193
9	M	A	M	A					M	4	0	shapes	M	4	True	93	(-2.8428271364044075, -6.6389435059794657)	(-7.9673043627538203, 8.1462427682465623)	(4.4446898723280306, -3.5005005335254484)	(8.5846388820913369, 2.1495582701946425)	1.0	z	1.41116
10	N	A	N	A	B	B	M	M	M	8	1	shapes	A	4	False	93	(-8.5791805835155479, 7.6583448219489298)	(3.3132488049717992, 0.88680167285557587)	(7.5825524656818644, -7.259644360789097)	(-7.6569300987435964, 3.6067515995196704)	1.0	slash	0.910224
11	M	B	B	A	A	N	N	M	N	8	6	shapes	N	4	True	93	(6.1392884120720197, -6.2799107510021726)	(-0.92669298766607433, 4.3748995559303179)	(8.4463979612232158, 2.7718482537989892)	(8.5368322620557535, 7.4114416757136894)	1.0	z	1.40662
12	M	A	N	A	M	B	N	B	N	8	6	shapes	N	4	True	93	(6.7305352244565491, 8.6475197446835779)	(7.7368130729167248, -5.2676185538972558)	(5.2838170607704491, 3.520876424382994)	(-5.3580538040562073, 8.5350154884292557)	1.0	slash	0.777771
13	N	A	B	A	M	B	M	N	N	8	6	shapes	M	4	False	93	(-2.0595777511155378, -2.4475926289229637)	(-0.40390987684954283, 2.553238027678951)	(8.1480923138631383, -1.662292367374028)	(2.0751842410947816, -7.7115962067629793)	1.0	slash	0.802974
14	M	B	B	A					B	4	2	shapes	B	4	True	93	(-4.0599647571807678, 4.2598320970276227)	(8.4572374392659064, 7.7878776369033531)	(-4.5397620675414174, -7.243291559330661)	(8.4384471950590694, -7.3146076795316128)	1.0	z	0.565084
15	M	B	A	B					A	4	3	shapes	B	4	False	93	(-2.6091875306785912, -5.7007062721156299)	(2.1047472690513587, 8.2477647654527857)	(6.4407855453924014, -4.8620883990848247)	(-1.7062962430058688, 0.10314301096576273)	1.0	slash	0.910808
16	M	A	A	N					B	4	0	shapes	M	4	False	93	(8.0043124720946395, -7.303773927426251)	(-1.7199478771116006, -4.5109199341633817)	(5.9468476314841059, 0.8772228268080049)	(-4.8854642581913463, 2.5858169980298573)	1.0	slash	0.72996
17	N	B	A	B					N	4	0	shapes	N	4	True	93	(2.2684788280259571, -1.0493022029826857)	(7.8212533350644904, 7.4902934150334239)	(-4.9222512832424021, 1.7649202884800079)	(-6.2143630821515874, -5.5482864094163045)	1.0	z	0.738057
18	M	B	B	N					N	4	2	shapes	B	4	False	93	(1.6473559596505201, 8.4311253005353173)	(-5.3797645522296129, -3.8056394633944226)	(-8.6129514090790043, 0.47185443891352818)	(4.598817057052214, -3.1212620288441064)	1.0	slash	0.609848
19	M	B	M	A					M	4	2	shapes	M	4	True	93	(6.0246707406957576, -2.7102113742279705)	(-7.9345167713174067, 3.8387664902151659)	(8.6663341422631284, 4.0520808585529071)	(-5.7456638757636833, -5.0300303415664338)	1.0	slash	0.929145
20	N	A	B	A	M	M	N	B	M	8	4	shapes	M	4	True	93	(1.826438815007899, -3.2164267073404949)	(0.11685119545549938, -8.3924130940886137)	(-5.4747852015713105, -1.5644895038431832)	(2.8833729512795276, 1.5174045005490413)	1.0	z	0.645005
21	N	B	B	M					N	4	2	shapes	B	4	False	93	(1.7619328737036408, -1.3311954227153189)	(-4.1404503681160509, 8.4280326428820658)	(-4.767366824836218, -0.40042777576582012)	(1.7973954511500843, 3.2690916225625326)	1.0	slash	0.574672
22	N	A	M	M					N	4	3	shapes	M	4	False	93	(6.9037904538810757, -5.6221308945895618)	(-1.3086072658610712, -8.3302269512891272)	(3.3256389970378066, 4.7596554900876953)	(-5.2874331825452678, 6.9231915357752953)	1.0	z	1.15822
23	N	B	B	N					N	4	3	shapes	N	4	True	93	(-1.0350613070852832, -4.372582694039302)	(5.7210980191410901, 6.8480763593749092)	(-8.2236652111013697, 3.4388202274024628)	(3.1685330694354708, -4.527345565025362)	1.0	z	0.801945
24	M	B	M	A					A	4	3	shapes	A	4	True	93	(5.3259928824694658, -6.4523912139972399)	(-6.3442787556927991, -6.8021065200860704)	(3.2124454982897337, 0.29907785258195574)	(-1.4068224821219202, 8.1301310275095773)	1.0	slash	1.62771
25	M	A	N	M	B	B	N	A	A	8	1	shapes	A	4	True	93	(-0.98183125822349382, -5.3872920598704601)	(-3.8084892666546084, -2.4954587380996447)	(-3.0246955367208912, 5.045260075761222)	(2.5669261258095517, 0.99895618325289881)	1.0	z	0.426756
26	N	A	N	B	A	B	M	M	A	8	5	shapes	B	4	False	93	(5.8477943330953543, -1.1367988359923702)	(-5.305925545243289, -0.62993110844670852)	(6.9428186308262241, 3.9755196320319524)	(0.91138246327540884, 0.48892137713492012)	1.0	slash	0.306314
27	N	A	N	B	M	B	M	A	N	8	4	shapes	M	4	False	93	(-3.012850352750589, 4.5772726078059041)	(7.4648878551220577, 3.3062183908936653)	(-1.9838945990595116, -2.7724532513120685)	(-7.2875790849219868, -0.17808849668508131)	1.0	z	0.658524
28	M	B	N	M	N	A	A	B	B	8	5	shapes	A	4	False	93	(-6.1805997069473211, 0.012622536732516565)	(-7.9270017780553879, 8.4843996307243721)	(6.8995339361208146, 2.9687992597992086)	(5.5403376822748065, -7.9389621178423475)	1.0	z	0.484333
29	M	A	N	A					M	4	1	shapes	A	4	False	93	(5.4712013158517934, -5.600493905498797)	(4.91653788401333, 5.2411857983577352)	(-2.2341723045857043, 6.2505865296140897)	(-5.0552977334680884, -6.5283086292535062)	1.0	slash	0.637901
30	N	B	N	A					N	4	2	shapes	N	4	True	93	(2.8269172396457858, -7.1931230963617505)	(-3.4200992772332111, -4.4639166892254636)	(3.4273023306033998, 4.0330541610342507)	(-6.6670945443486973, 7.6791506102048928)	1.0	z	0.783246
31	M	B	M	B	N	A	A	N	N	8	0	shapes	M	4	False	93	(8.6069302264238559, 3.7232342051804022)	(-8.1652540707699668, 4.6401875737639706)	(-4.299927645394571, 1.7133491442795048)	(-6.0611113377561407, -5.8949180509173456)	1.0	slash	0.935265
32	N	B	B	A					A	4	0	shapes	N	4	False	93	(6.568380110486622, -6.5461219490156139)	(2.4032559632319632, 8.1880999210845289)	(-1.4704244352171303, 4.509903564452566)	(-6.1621894593498716, -2.6692410433074691)	1.0	slash	0.638745
1	N	B	M	N	M	B	A	A	B	8	7	shapes	A	5	False	93	(-6.4805353249774038, -5.83730489101118)	(-0.63761030899989279, 5.3881200846209509)	(3.9271844186689329, 4.6798579153287729)	(7.0418653188953755, -5.7883449472097581)	1.0	z	0.756688
2	M	A	B	A					B	4	2	shapes	B	5	True	93	(7.7279630571906779, 6.1600701348713223)	(0.21289101760554985, -8.0207485517979915)	(-4.1240453056699486, 1.2360421600598386)	(-3.8686148127612157, -7.2546792147532617)	1.0	z	0.65619
3	M	A	B	A	N	B	N	M	B	8	5	shapes	B	5	True	93	(1.3109069377731348, 3.3563162173068868)	(7.6781307195086228, -2.1244330766383968)	(-4.2685527651826014, -4.960570623001118)	(-2.605323497156764, 8.3290326636406036)	1.0	z	0.889435
4	M	B	A	A	M	B	N	N	M	8	5	shapes	B	5	False	93	(1.8880540143909244, -3.5188786956399429)	(-5.2435706068377002, 1.8550235551512735)	(-3.2213743642883959, 7.9542430820468901)	(-6.6446858717999806, -4.9050133919151229)	1.0	slash	1.0056
5	N	B	M	M	N	A	B	A	M	8	5	shapes	A	5	False	93	(-5.3693550588374199, -0.4253708498732216)	(4.7906884994195078, -3.1388027917016394)	(-4.153700647164789, -7.8172904702737664)	(4.6953664028822431, 2.0882082799980282)	1.0	slash	0.945194
6	N	B	M	M					N	4	0	shapes	N	5	True	93	(5.5768656007980422, -2.8946954015540536)	(-5.9190526622187374, -8.5758995332572354)	(-2.0878883778574764, 0.60528563769933719)	(4.0929886913310334, 2.9643427080443416)	1.0	z	0.910837
7	N	B	N	A					A	4	0	shapes	N	5	False	93	(2.9942322825460028, 6.8300860474327756)	(-6.1530619788622865, 8.4543430698087008)	(6.7935655153297887, -7.9897197322473614)	(-4.6868760088612689, -2.5536440473651894)	1.0	slash	0.698292
8	N	B	M	M					B	4	0	shapes	N	5	False	93	(-5.4947531548528126, 1.1045258313761011)	(-8.2097707177751893, -6.3690634578292471)	(5.6217421564162713, -2.5125217060955487)	(1.1882753376409116, 8.2790148338035969)	1.0	slash	0.672204
9	N	B	A	B					B	4	1	shapes	B	5	True	93	(0.96517036468496897, -5.258816251605146)	(3.4624031864795892, 4.7634110502085818)	(-5.7445429807248285, 3.4999989144897317)	(-7.6841506564115543, -8.3704251060381605)	1.0	z	0.667965
10	M	A	B	A	N	N	B	M	N	8	2	shapes	B	5	False	93	(-6.8009461578022234, -0.51998941855815062)	(-8.2054927379503404, -6.000475989647521)	(-5.0434474007323287, 5.2894683533040467)	(-1.7535079670241105, 1.0633776390154033)	1.0	slash	1.0034
11	M	A	A	M					A	4	2	shapes	A	5	True	93	(5.5286597795798276, 4.3915612294217112)	(7.5574142302443938, -1.7922062177844182)	(-2.7870644095113724, -0.89110223767659491)	(-4.7478579020266514, 6.8886288783108807)	1.0	z	1.22942
12	M	B	A	N	N	A	M	B	N	8	4	shapes	N	5	True	93	(-1.6357251604473673, -6.1051761489578151)	(-3.0294285484819143, -1.3398727764479803)	(8.452722579017049, -8.7178632732627559)	(4.8528154789575861, 7.7911825879403906)	1.0	z	0.80422
13	M	B	A	M					A	4	3	shapes	M	5	False	93	(5.5743706953681293, -8.1545696118053073)	(-4.6389056022509054, -5.0614431135116131)	(4.1443735537841437, 0.60731463931734986)	(-0.77420141804139231, 4.4466762806229809)	1.0	slash	1.04664
14	M	A	N	N	A	B	B	M	M	8	0	shapes	M	5	True	93	(6.6998546918789224, 4.85398422984772)	(1.6640071138498538, 1.9415662743424864)	(-6.3479059373362521, 0.9085474663586659)	(1.0016596281125487, -4.7096971376441346)	1.0	z	0.67395
15	N	B	A	N	A	M	M	B	A	8	2	shapes	A	5	True	93	(-5.6862050706008977, -7.5900752424100659)	(-0.056904706880324341, -1.9108527955290802)	(6.6161071575986838, -5.956429951018313)	(2.0312119047074688, 3.392664039796685)	1.0	z	1.34364
16	N	B	M	B					B	4	1	shapes	B	5	True	93	(-2.2447657552754174, -7.3915225124565813)	(7.4591835396942123, -4.1911263695000045)	(8.5755301773534818, 8.724781372191508)	(-2.8650502864275067, 1.0847329616402153)	1.0	z	0.765062
17	N	A	N	A	B	M	M	B	A	8	6	shapes	M	5	False	93	(-8.1348536114217325, -6.1974104133623769)	(6.0467699266509545, -1.6228175622201411)	(7.2299801880288932, 5.809813838737778)	(1.2658584405945827, -6.7626023712826306)	1.0	z	1.6013
18	M	B	M	N	A	B	A	N	B	8	1	shapes	B	5	True	93	(5.9843706322517587, -3.0023635049502015)	(-6.7017214551172621, 5.7589731138065581)	(2.228196388778537, 7.0978424507551257)	(-7.9476329977743632, -3.9842432672095223)	1.0	z	2.91154
19	M	A	B	A					N	4	3	shapes	A	5	False	93	(-5.8551569417432638, 1.2808619233825329)	(7.4146293423777117, -3.6318711737962639)	(0.55978184273673826, 1.7221656062416173)	(-3.4529699172770911, -5.3299600602802313)	1.0	slash	3.03445
20	M	A	A	M					M	4	3	shapes	M	5	True	93	(7.3186598595129801, 1.5016364993495728)	(2.8491161346690959, -3.0040805513039341)	(-4.3141897618438874, 5.8602015218534511)	(-5.8838555308518936, -4.048296296337476)	1.0	z	0.853534
21	N	B	N	B	M	M	A	A	B	8	1	shapes	B	5	True	93	(7.6275818319286977, -1.4057244058136211)	(3.2605646300200775, -0.041653837550983397)	(-7.0934903415800363, -2.4989408116815666)	(1.9151655874758404, 6.916242047111929)	1.0	z	0.767276
22	M	A	M	B	A	N	B	N	M	8	1	shapes	A	5	False	93	(5.869136310359746, 2.5929266025702749)	(1.4892105115817511, 8.3096942466244741)	(5.9213982174510296, -4.298504973289031)	(-4.0659665629502211, 5.9334489760718512)	1.0	z	0.73079
23	N	B	A	M	A	B	M	N	B	8	6	shapes	M	5	False	93	(-1.2239516849718513, -2.3771719192920893)	(8.0160475007896359, 1.3190394337378528)	(1.7875415908162289, 4.0418570847385702)	(8.2831442187881414, -5.3796685148301)	1.0	slash	0.854231
24	M	B	N	M					B	4	3	shapes	M	5	False	93	(-0.85196888530010373, 7.695773937884784)	(-1.4026328283224219, -1.1044825274884094)	(6.1467977036174446, 3.8988152238406997)	(3.0799034433881776, -7.5908258831401136)	1.0	slash	0.518062
25	M	B	B	A					N	4	2	shapes	B	5	False	93	(-7.1128178473052524, -3.3700045390530162)	(8.4997255906028926, 5.4920497071372676)	(-1.8197042894218267, 3.0515412025764821)	(0.13755046071791099, -8.251790595375498)	1.0	slash	0.665997
26	N	B	B	M	M	N	A	A	N	8	5	shapes	N	5	True	93	(1.8057843122306476, 4.1105056275547582)	(7.597404947503275, -7.784325202762739)	(-4.2284141677285225, -7.3352709944405863)	(0.23403298248044635, -3.2107898116831928)	1.0	z	0.751253
27	M	B	B	M					B	4	2	shapes	B	5	True	93	(3.9538632785960548, -2.5672975924293002)	(1.1921655624917324, 1.6112665205143113)	(-2.9849988605561224, 8.4963768768634296)	(-3.2093319441073822, -0.61647945303821849)	1.0	z	1.41923
28	M	B	N	A					A	4	3	shapes	A	5	True	93	(-3.5150573268151879, 4.3818414763945892)	(8.6676175701937268, -5.2937896874935069)	(3.1189121519849792, 1.6501046159068)	(-1.3798768885485764, -4.8234548518110483)	1.0	z	1.64885
29	M	A	N	N					M	4	1	shapes	A	5	False	93	(-7.0569581365895022, -6.5938129369697593)	(-6.7751210797676773, 8.0340480625600179)	(6.2704125925476362, -1.9676733170152509)	(7.7152118509146206, 8.4596609691982891)	1.0	slash	0.760344
30	N	A	A	N					M	4	2	shapes	A	5	False	93	(1.6156044437752168, -4.1451000813301766)	(2.273999305263219, 2.3089283065257327)	(-3.56152456172605, 1.1394507529030786)	(-7.6622533277875506, -2.2741096531424834)	1.0	slash	1.53847
31	N	A	N	B	A	M	B	M	M	8	0	shapes	N	5	False	93	(3.8865952350925195, -2.1629810246040915)	(-5.9591098420378232, -5.345308190730389)	(3.4900892827885635, -7.3152892886855856)	(-3.4893383535669429, -0.42065423299550631)	1.0	z	1.17154
32	N	A	N	B	B	A	M	M	B	8	4	shapes	B	5	True	93	(5.1855512059480784, -0.093428188887990871)	(-1.2067670041960259, 1.998420514622433)	(-1.2618875954513538, -3.5637577659303048)	(-5.2536389299715571, -7.7338280546521503)	1.0	z	0.885123
1	M	A	A	B	B	M	N	N	A	8	7	shapes	N	6	False	93	(-3.0577334691285145, 5.994894012897495)	(-2.5403279762163322, -3.3738215655960859)	(6.0253128762179138, -3.831290245212867)	(-7.328952524513026, 6.8546985060831975)	1.0	slash	0.976846
2	M	B	N	B	M	N	A	A	N	8	5	shapes	N	6	True	93	(-7.7864733532466213, -5.6880559057237896)	(1.8328683116571067, 6.5282839004207069)	(-0.77291339546140492, -3.3666175983276663)	(1.0860295911221858, 0.55720075169054084)	1.0	z	0.990415
3	N	B	A	M					A	4	3	shapes	M	6	False	93	(-0.53756865608508342, -0.046439430914515967)	(-6.3441817563205003, 0.043420872345482309)	(5.1117934671877165, -4.5650510939689433)	(3.3294376095293607, 5.3921807551150422)	1.0	slash	1.69675
4	M	A	B	M					N	4	3	shapes	M	6	False	93	(4.5191132503547244, 1.2113625986063639)	(-0.78038788069047449, -8.7100766035075541)	(1.0939400221072031, -4.2140828839854771)	(-3.1527385947935578, 0.83618993158259869)	1.0	z	0.709213
5	N	B	A	N					N	4	3	shapes	N	6	True	93	(5.7715827082986664, -4.097618457148366)	(-5.8052810918901141, -7.6654192260081508)	(-4.9301097968291909, 6.3667612495826944)	(1.0150825494019919, 1.9290624060886614)	1.0	z	0.665428
6	M	B	M	B					N	4	1	shapes	B	6	False	93	(-8.1863898647022744, -4.7452285395309595)	(7.5899167374167966, -3.9532813185094522)	(-6.1526677458996435, 0.40742266535027838)	(1.6379847622498502, 6.1386443195294387)	1.0	slash	0.583185
7	N	A	N	B	A	B	M	M	M	8	5	shapes	B	6	False	93	(-2.5988351076202347, 8.03703599570607)	(2.3784416144983531, -8.1178191952639533)	(1.4556963761618782, 5.9972048915483391)	(1.472501205815508, -2.4187236613219687)	1.0	slash	0.718645
8	M	B	M	B	N	N	A	A	B	8	1	shapes	B	6	True	93	(-7.0740622328820928, -8.0592923043902314)	(3.3624724224124947, 0.48951317147607476)	(0.19736846394135021, -8.169180141974639)	(5.7823154442897291, -8.2463715810144862)	1.0	z	0.812482
9	M	B	B	N	M	N	A	A	N	8	2	shapes	B	6	False	93	(-5.8324764668601388, -1.079804014491426)	(5.4099578910506505, 6.5671475602229421)	(5.8020138002251169, -5.53794572832917)	(1.6167541883956726, 7.9078667117144121)	1.0	slash	0.894065
10	M	A	M	B					A	4	1	shapes	A	6	True	93	(-6.27380233609101, 2.4048197764820607)	(1.9214845800799498, 2.2352916802834155)	(1.8283883961247422, -6.9422436517562041)	(-5.6238572143171144, -8.2573271066387708)	1.0	z	0.797212
11	M	A	M	B					B	4	0	shapes	M	6	False	93	(5.3996974060790031, -1.9665851923907693)	(-2.6317348204221505, 5.1772927304641172)	(-1.1222168260691205, -1.0913923090480218)	(4.9503637199300634, 5.9575845384196526)	1.0	slash	0.913356
12	N	B	N	A					N	4	2	shapes	N	6	True	93	(0.91759586038178753, 4.8606879276249551)	(-3.168746436889248, -0.91125650835993444)	(-6.32370159712484, 2.9638261407860469)	(4.4971555042172735, -6.9411407963260254)	1.0	z	0.716537
13	M	B	N	M	A	B	N	A	N	8	2	shapes	N	6	True	93	(3.9247183817619469, 4.2238523390695502)	(-8.0982822437359765, -1.6083084391288933)	(-1.1346119514143407, 1.6904606946926801)	(0.12420468440886268, -6.6841608869802194)	1.0	z	0.818731
14	N	B	B	A	A	M	N	M	M	8	0	shapes	N	6	False	93	(-6.9514053291454374, -0.22638255019605324)	(8.4095202481428295, 1.5317070159121755)	(-1.6323965014900033, 5.4010184236907346)	(-8.0676177029072278, 8.5067900927983722)	1.0	slash	0.988261
15	M	B	A	N	M	N	A	B	B	8	7	shapes	B	6	True	93	(5.2038202155665694, -0.40526202253972343)	(-0.21813450464373041, 2.3985028279315479)	(8.4462019307533893, -3.3272776989500414)	(-4.6849212936020157, -5.7553869214134101)	1.0	z	0.93982
16	N	A	A	N	B	B	M	M	M	8	6	shapes	M	6	True	93	(5.0373766687564139, -1.9735535329455596)	(-5.7529471573520734, 4.2672338031495691)	(-1.4285114095028035, -7.7290714600584627)	(-0.41205410359447647, 2.7160712856114664)	1.0	z	0.845415
17	M	B	N	A	N	B	A	M	M	8	0	shapes	M	6	True	93	(4.8168206901565149, 5.9163298622899507)	(-7.8582223220533436, 0.10448258331920712)	(3.3458924831119177, -2.1472589197326171)	(5.8528828393672878, -7.6628159894914001)	1.0	slash	0.70519
18	N	A	A	M	N	B	B	M	N	8	0	shapes	N	6	True	93	(-6.3314818505008557, 0.69704847466462283)	(-4.2142320082301481, -6.3384842258340601)	(-1.5669248039421255, 2.3695409785892565)	(8.3494243028074209, -4.3737553589064699)	1.0	slash	1.56119
19	M	A	B	A					M	4	0	shapes	M	6	True	93	(-2.6922948479433124, 7.2102316448608423)	(3.9236170294019797, 2.1879666948553442)	(8.7102119754163319, -7.912906932895865)	(-1.4015692058557638, -4.5249598506394557)	1.0	z	0.609939
20	N	B	N	A	A	B	M	M	B	8	0	shapes	N	6	False	93	(-3.7370121709286348, 3.9151146388363394)	(0.24919689797635591, -8.1361943604148372)	(2.2231069859334465, 7.2501752689445098)	(6.2164665730953725, 0.34490817217036351)	1.0	z	0.622111
21	M	B	N	M					B	4	3	shapes	M	6	False	93	(6.8432552257343016, -0.3534578254925016)	(2.274289958675725, 6.8460280834405847)	(-0.91431697227930364, 2.954747976780526)	(-8.2391398454273101, -4.6062244455058305)	1.0	slash	1.63635
22	M	A	B	M					N	4	3	shapes	M	6	False	93	(2.6288109658045382, 8.2963415212175065)	(-6.7723521061718319, 4.2412043327661646)	(3.8300922101291111, -4.4488405905410007)	(-7.2430414662724756, -2.1298770008552035)	1.0	z	1.15956
23	M	B	A	B	A	N	N	M	N	8	0	shapes	M	6	False	93	(-7.6651913198665476, -2.0838764527440894)	(0.35930891003802223, -5.052966804356295)	(4.7814990611644301, -1.2210683445327293)	(6.3473063527449209, 6.8833012821980013)	1.0	z	1.50143
24	N	A	A	M					N	4	1	shapes	A	6	False	93	(-6.7043160807101483, -6.625521883421678)	(7.5265906379256187, -2.0378008515448549)	(-5.0749965232451268, 7.0949286181737907)	(5.5976901931075496, 3.1422159611078158)	1.0	slash	0.690598
25	M	A	M	A	N	N	B	B	M	8	1	shapes	A	6	False	93	(1.3000618469014551, -0.71199157737173735)	(-5.0164961139895095, -1.3331757852888062)	(5.0278479433564875, -5.7918354941153911)	(-8.0538467916409591, -5.6776980540504294)	1.0	slash	1.17431
26	N	A	B	M					A	4	1	shapes	A	6	True	93	(7.606044732212915, -6.4827012489730089)	(0.013398163065906132, 2.6243836570135457)	(-4.0916416803057425, -7.1241455328467183)	(-7.7855996117857966, 6.5083724932730718)	1.0	z	1.47036
27	N	A	N	M					A	4	0	shapes	N	6	False	93	(0.65713683030936032, -3.3291324197706977)	(-7.4867995626545119, -0.33323712500331304)	(-0.96289234005083024, 6.3788387196966507)	(2.9156398406258219, 7.8657050855390622)	1.0	slash	0.433601
28	N	A	A	N					A	4	1	shapes	A	6	True	93	(2.6922063527832627, 6.3079456031138648)	(7.2303513343951344, -4.9653285471647477)	(-2.7855521138509935, -5.2515676732219347)	(-1.937655605998958, 3.0229095187152453)	1.0	slash	1.32571
29	N	B	M	M	N	B	A	A	N	8	4	shapes	N	6	True	93	(1.4748766769056569, 0.68904448110641425)	(-3.7136514370616887, 4.4065199000181963)	(6.3994311495489704, -3.3486700430196805)	(4.3120011093154051, -7.8706866091213419)	1.0	z	2.59386
30	N	B	B	A					B	4	2	shapes	B	6	True	93	(-8.3364958828206479, 8.0966979774010888)	(0.52075600967766356, -6.9540083265044972)	(-7.6806663740881698, -6.3735758519756534)	(0.080520992709290695, 0.50611805404679266)	1.0	z	1.58842
31	N	B	A	A					N	4	0	shapes	N	6	True	93	(4.8816324352449882, -5.4554587603761275)	(-0.7011444259301296, -5.0950368023420936)	(-5.4251367631273748, 7.7598758876866505)	(4.0512473675280223, 5.9939526502206544)	1.0	slash	0.75975
32	M	A	B	B	M	A	N	N	B	8	7	shapes	N	6	False	93	(-1.1990303088348409, 1.8286043512932935)	(6.5090946797116089, 6.8743496373710524)	(4.8534705429398297, 2.1414548523854098)	(-4.8464316255470523, -4.4152724980920697)	1.0	z	1.41405
1	M	A	A	M	N	N	B	B	A	8	5	shapes	N	7	False	93	(-8.1446149122751752, -7.815231565309066)	(4.358522160225176, 0.34618551312549783)	(-6.4138841611253063, 4.3594607008698372)	(5.6011111874554818, 5.2334929535577643)	1.0	slash	0.721221
2	M	A	N	B					B	4	3	shapes	B	7	True	93	(7.7586226058367984, 6.3692848973801155)	(-1.607611884029426, 6.0307593115170697)	(-0.10998345664053844, -5.8411089059638446)	(4.8765129436970529, -7.1376348000223508)	1.0	slash	1.10672
3	N	B	N	M	A	A	B	M	A	8	4	shapes	A	7	True	93	(7.3769701105300847, -5.3040949277099045)	(4.2985999504615915, 3.4995290048907481)	(2.305592144992854, -3.0513949488453189)	(-0.28960059040615782, 0.90729805224065174)	1.0	slash	1.46688
4	M	A	N	M					N	4	2	shapes	N	7	True	93	(-5.1402680514714643, -4.8111156377321445)	(-3.4936967637937384, 2.6706481978629029)	(2.9800773320892038, 5.2348425753234711)	(2.9609851692409848, -4.9031946207048254)	1.0	z	1.45639
5	N	A	B	A	B	M	M	N	M	8	2	shapes	B	7	False	93	(-8.5876577176045803, 2.6568963750887225)	(-8.568414888867709, -4.8558113945813615)	(1.8677100176379664, -7.7071714074519724)	(-2.335584994445651, -2.7006951783338247)	1.0	slash	0.657241
6	N	A	B	A					A	4	1	shapes	A	7	True	93	(-2.2036354472197406, -1.444743239212718)	(6.6427870440505004, -5.2797249029251097)	(5.7882931252844863, 6.7973685420980861)	(-0.40882305363341054, 5.5304252844172233)	1.0	slash	2.64807
7	M	A	N	M					A	4	1	shapes	A	7	True	93	(-2.7489874630242843, -5.5851766645781922)	(1.9094547699502229, -0.90709140961327428)	(4.3045014460348661, 4.3840648717326687)	(-6.9415206269127143, 2.654058764877508)	1.0	z	1.24885
8	M	B	M	N	A	N	A	B	N	8	3	shapes	N	7	True	93	(-5.7062617560976365, 0.17513663476221986)	(-6.4821929877433275, 6.6647093005310687)	(1.2075571001998995, 3.7682538876312304)	(8.5408203321801679, 4.9179526218412839)	1.0	z	0.858395
9	M	A	B	B					A	4	2	shapes	B	7	False	93	(0.40853977382091777, 7.0325847537934507)	(-1.3509670742867161, 1.5380350379673402)	(8.3002083935068889, -5.3746942128045525)	(-4.6813422607991937, -4.8399257750508058)	1.0	slash	1.21664
10	N	A	N	B	A	M	B	M	M	8	1	shapes	A	7	False	93	(-5.8784730248544772, 2.5392419305532012)	(3.0909771189155233, 1.052916752117369)	(2.5491746112174472, -7.4592544030246231)	(-6.8906227623608096, -2.2204029340140368)	1.0	slash	1.21006
11	N	B	M	B					N	4	0	shapes	N	7	True	93	(6.8917781783944143, -0.050298599202113436)	(-4.4252250486489109, 7.8291469937354208)	(5.1751898831996908, 5.3266184958166836)	(-2.7007510241720407, -5.5455929325872173)	1.0	z	0.849192
12	N	A	B	N	A	B	M	M	B	8	2	shapes	B	7	True	93	(-6.6184145154139706, 1.7859127760462457)	(1.8165812812860782, -4.5113627985017644)	(-1.3965256475400443, -7.6294555660186445)	(-1.3142158622628388, -0.27045221205544934)	1.0	slash	1.01501
13	N	A	B	M	N	B	A	M	A	8	1	shapes	A	7	True	93	(0.11212165718516687, 5.2534013043349148)	(-2.0750619723447148, 0.4020772309932461)	(3.7726753659257639, -5.6582220207385259)	(-0.23300340520052032, -8.3736800989751536)	1.0	slash	0.888672
14	N	B	M	N	A	B	A	M	M	8	6	shapes	A	7	False	93	(-3.3032074486225262, 0.40772386359036616)	(2.7115455934901167, 0.22803821269232394)	(-1.6258198060623652, 4.6630151197317851)	(-7.8435303066064215, -3.4554587861461732)	1.0	z	1.32431
15	M	B	A	N	N	M	B	A	A	8	2	shapes	A	7	True	93	(3.2875193074246578, -4.3916879474200012)	(-4.4162199944578528, 5.3495276970002106)	(0.90905243565912208, 5.5871747583394811)	(-8.0426973627054519, 1.6696813261297461)	1.0	z	0.9359
16	N	B	A	B					A	4	2	shapes	A	7	True	93	(-5.5241751034135387, 4.7786635421882249)	(-0.87505120420596061, -1.0590022401106918)	(5.4258912262680496, 8.3623698583597275)	(3.6702997547738772, -0.11864620295011541)	1.0	slash	1.38406
17	N	B	M	B	N	M	A	A	N	8	3	shapes	B	7	False	93	(5.2160570917649807, -7.1251482261565915)	(1.6815837214726308, 3.5958123836817855)	(-2.767385294788669, 5.0090232888896473)	(-3.4268798798205404, -2.0195750640909518)	1.0	slash	1.66367
18	N	B	B	N					A	4	2	shapes	B	7	False	93	(-1.8354216698623729, -0.72656185654981797)	(-7.1753661715789852, 5.2699994446603533)	(3.6636477383107469, -7.7041569380676833)	(6.0677773016972818, 8.3436418831320118)	1.0	slash	1.4287
19	N	B	M	M	B	N	A	A	N	8	0	shapes	N	7	True	93	(-6.0034513531678968, -1.6988613917344884)	(-0.93142489370338843, -6.3771530390936011)	(7.3288647890178567, 1.7562445972049225)	(-5.1822127933182465, 8.7443033791447)	1.0	z	1.28435
20	M	A	N	A					A	4	2	shapes	N	7	False	93	(-3.4283656196942029, -1.9847641218671637)	(-0.26981411796335486, 5.457558040948113)	(2.8928891147588072, 8.1722696308478646)	(5.4403901487885147, -3.8563832410047585)	1.0	slash	0.773584
21	M	B	B	M					M	4	0	shapes	M	7	True	93	(-1.5741613101825029, -4.2148993992658079)	(6.6896821682107781, 7.6216523332663826)	(7.1280221144568632, -1.2768890402610005)	(-8.2919429577014334, 7.3066743713856113)	1.0	slash	1.49372
22	N	B	A	B					A	4	3	shapes	B	7	False	93	(-5.0364995382273978, -7.2232926896593082)	(3.6140502733129072, -1.0702802294586666)	(7.7247062350797293, 2.0437721191845242)	(-2.8431463216003579, 1.901911781002342)	1.0	z	1.55719
23	M	B	M	A					N	4	1	shapes	B	7	False	93	(-3.6044354136807488, -1.3973101442951039)	(-2.9830146843906622, 8.4475743257720879)	(6.8169539235540828, 7.5386800999609243)	(3.319409646279226, -3.7763919134819259)	1.0	slash	1.61734
24	M	A	A	M	N	B	N	B	M	8	2	shapes	A	7	False	93	(1.7671111326864306, 3.8813608617275275)	(-6.0197143389494832, -6.7626713559859608)	(5.7944733113186402, -0.71781831739458113)	(-2.14517262215226, -0.655832034597994)	1.0	slash	1.53872
25	N	B	N	M					A	4	1	shapes	B	7	False	93	(-3.1705687139880174, 7.394420107023997)	(-6.8824871995374464, -1.583800302042393)	(3.3444366939341403, -3.8788434725400878)	(6.8961977445781351, 1.9368986130802597)	1.0	z	1.29011
26	M	B	A	A					N	4	0	shapes	M	7	False	93	(-7.9123606100078536, 2.5076374476584053)	(7.8305037068743566, 8.4926184763188814)	(5.5423449972922167, -1.4084696988494185)	(-3.0490098555402803, -5.4916186853014821)	1.0	z	2.92254
27	M	A	M	A	B	N	B	N	A	8	3	shapes	A	7	True	93	(2.0074087318163691, 2.0205625407091734)	(-6.6932310513481248, -6.7062321394163416)	(-7.26593439009463, 6.2157106185013173)	(-1.1820395658654554, 4.7054556034818749)	1.0	z	1.44718
28	N	A	B	N					M	4	1	shapes	A	7	False	93	(8.2326022112618098, -5.2995978353913236)	(-6.3146670635103561, -4.8261247427529259)	(8.0989924785050782, 1.6890253701951234)	(-6.682387245450343, 1.4684240762884286)	1.0	slash	1.8413
29	N	A	B	A	N	B	M	M	A	8	1	shapes	A	7	True	93	(7.7722376234050508, -4.6592834496170852)	(1.858448506172536, 2.7420641514012214)	(4.6481269155002778, -8.1598378073200859)	(-3.4769299532183755, -4.1665790572425045)	1.0	z	2.52493
30	M	A	N	M	B	N	A	B	B	8	5	shapes	N	7	False	93	(-1.1146726911102096, 7.3079651552770173)	(-1.6535969621497024, -0.49089336825424112)	(6.9767092785898832, -1.7542176011717325)	(-8.0627946895701044, 6.0824037307899363)	1.0	slash	2.21637
31	M	A	A	M	N	N	B	B	N	8	7	shapes	B	7	False	93	(2.5130600927224069, 6.7338714241817144)	(-2.460747104164839, -3.9257038778186386)	(7.2554651795920257, -5.8913793742297962)	(7.0550257661929301, -1.2184124815937043)	1.0	z	3.31427
32	M	B	B	M					B	4	2	shapes	B	7	True	93	(2.8965600499469453, 0.50661039455360957)	(3.8521566043975266, -8.5499728463963773)	(-5.5313380179337077, -5.0821935101090432)	(-5.7126368095386937, 7.6672384676437808)	1.0	z	1.06106
1	M	A	A	M					A	4	1	shapes	A	8	True	93	(0.58688219707362599, 5.2575847715060746)	(0.40696736990788196, -5.0066072866314695)	(-7.3084858027075539, 5.9349899868601383)	(-7.7874751162458997, -4.6299300615974524)	1.0	slash	1.63499
2	M	A	B	B					B	4	1	shapes	A	8	False	93	(-1.373630354432839, -0.48508145226867683)	(3.8818849799446813, 8.6628476665713912)	(0.47171375922708592, -6.2673198575300297)	(-8.541955462758402, 4.3433181923101891)	1.0	z	1.01411
3	M	A	A	N	M	N	B	B	B	8	5	shapes	N	8	False	93	(-4.5326136091063161, 8.6460115525692167)	(-7.8605903858578481, -1.7014530624488948)	(3.6845370910580879, 6.0163689227606181)	(-1.8349086351766344, 0.57241812951984272)	1.0	slash	3.68094
4	N	A	M	B	A	N	B	M	A	8	4	shapes	A	8	True	93	(3.5544228978424659, -1.4070551773930573)	(-0.96171959774601756, -2.3063104912970296)	(3.3848079609947064, 6.4323707711712146)	(8.2610516323306449, 1.0241135902178939)	1.0	slash	2.04791
5	N	B	A	M					A	4	0	shapes	N	8	False	93	(1.1583232751982884, -4.1413972511842365)	(1.9960253514429702, 3.2404208748017282)	(-4.7827153226799455, -4.6370634563146664)	(-3.5205952102365314, 4.2068397496231569)	1.0	slash	2.04127
6	M	B	N	B					B	4	0	shapes	M	8	False	93	(-7.2856050320996522, -5.3714365765378949)	(-0.38318582296765236, 5.927350258811245)	(8.4882823353134498, -0.46113986112474592)	(3.5715093068505492, 7.2624286328737462)	1.0	slash	2.02671
7	N	A	M	A	B	M	N	B	B	8	2	shapes	M	8	False	93	(2.8255956819722403, 0.32382949316002652)	(-0.61338659884134827, -5.3575929534585391)	(-2.8634572623568344, 6.5364678069410331)	(6.0910187950549357, 3.8458885329156676)	1.0	slash	1.49035
8	M	B	A	A	N	N	B	M	N	8	4	shapes	N	8	True	93	(8.0591418286173919, 8.0266398342974341)	(3.6441723166437008, 0.7785414042751011)	(-8.0627684747895394, 8.0082703411003671)	(-0.16560485205153519, 7.0381259447339772)	1.0	z	1.17155
9	N	A	A	M					A	4	2	shapes	A	8	True	93	(-7.8304429397014159, -2.1042784750664012)	(4.1230076431153115, -4.0064440226193074)	(-4.6753746785452677, 4.7333602006168451)	(8.5883217850873166, 8.2572019827725924)	1.0	z	0.939094
10	M	A	B	N					B	4	0	shapes	M	8	False	93	(6.7020644839881189, 4.0939000686229008)	(-2.5314391897835637, -2.5466146854874152)	(-7.7255916445608657, 5.0944637065410117)	(2.7744255075616699, -6.7203298202580521)	1.0	slash	1.42479
11	M	B	A	M	N	N	B	A	A	8	1	shapes	B	8	False	93	(-8.3820469394431516, 3.3803479468961868)	(1.7652939306977853, -3.1338384244644795)	(7.0986408288986897, 1.8359753661422591)	(-7.983091016633745, -8.5400935041712707)	1.0	z	1.01619
12	N	A	M	A					A	4	2	shapes	M	8	False	93	(-1.1623403521091742, -5.7844385482469676)	(0.61489802793144221, 5.0327186761929834)	(-4.875875843773267, 8.2090820083309666)	(8.2908820634616518, -8.5904634648340981)	1.0	slash	1.05621
13	M	A	B	A					B	4	3	shapes	A	8	False	93	(2.9893538596856093, 3.8663000921516684)	(5.9594985503583207, -2.203777482168336)	(-2.8669046675524514, -1.3785279331909885)	(-4.7089997299641899, 4.9219624275777907)	1.0	z	1.2536
14	N	B	B	N					B	4	1	shapes	B	8	True	93	(3.13306076653868, -3.3909459162100504)	(-1.512683260695483, -5.5331535727830374)	(1.1485834226750402, 4.4738610922230357)	(-5.5119603847517897, 5.9732530439920684)	1.0	slash	2.13361
15	M	A	B	B	M	N	A	N	B	8	3	shapes	B	8	True	93	(6.3578681872718956, -2.9899781517967785)	(-1.292539385961625, 7.4581938181501251)	(0.21950110428843317, -1.5480590878150631)	(5.5926829202363333, 6.5151223996527357)	1.0	z	1.16481
16	M	A	A	M					N	4	0	shapes	M	8	False	93	(-1.5673875425724066, 8.0620183876158187)	(2.095189437462075, 2.1451382152281457)	(1.9324524374554723, -5.0219312026650229)	(-1.6211353237338697, -7.376878468201256)	1.0	z	1.10213
17	M	B	M	B	N	N	A	A	B	8	0	shapes	M	8	False	93	(-2.6838833239916191, -8.6596146854934304)	(7.0237829722324996, 3.628245208587753)	(-6.9935028584966172, 0.60345800838565644)	(4.4717596693908135, 0.43750759906872005)	1.0	slash	1.4222
18	N	A	N	A					N	4	0	shapes	N	8	True	93	(-7.7944968735834728, 2.3671588597134008)	(-2.6479429985890039, -6.474019893659829)	(8.4430341721219726, 4.9076860518108933)	(4.614141688357476, -6.8203552205996525)	1.0	z	3.0605
19	N	B	B	A	A	M	N	M	A	8	3	shapes	A	8	True	93	(-0.47112654739620297, -4.860408174936687)	(-7.7228923888543388, 0.33663759473085264)	(-2.0211893311861999, 7.0063299739911997)	(6.8983842242181108, -7.2823836007961873)	1.0	z	1.18108
20	N	B	N	B	M	M	A	A	B	8	3	shapes	B	8	True	93	(1.3031669030458843, 3.1972034039320967)	(-0.6562276521332695, -4.7811259093564855)	(7.3220064592838483, -5.7358561163278878)	(-5.2172533580334743, -3.8722996643718597)	1.0	z	1.05275
21	M	B	N	N	B	M	A	A	N	8	4	shapes	B	8	False	93	(3.291405456123945, -4.424475274198338)	(-2.089296540507898, -6.3379365585409637)	(2.7726863875486263, 3.8588647557522879)	(-6.1144884123941976, -1.0924800244706274)	1.0	z	1.31017
22	M	B	A	N	B	N	A	M	M	8	0	shapes	M	8	True	93	(-6.4506682585416062, 0.50811845344974138)	(-4.7407680748474386, -6.355258285485462)	(-7.5853872471479686, 4.99550942591096)	(1.0253317366016308, -5.320949902751078)	1.0	z	1.36584
23	M	B	A	M					B	4	1	shapes	B	8	True	93	(-7.22408931029545, -4.9005153510428521)	(5.1670986129395526, -5.2738256220341029)	(4.15204411970862, 4.3633043520894788)	(-0.28546396311543454, 3.0635813465750221)	1.0	z	1.73579
24	M	B	M	N	N	A	B	A	M	8	6	shapes	B	8	False	93	(7.7822061712174353, -1.5838940884470905)	(-1.1752918730294519, -5.791141560137758)	(-5.5981448823375501, 6.6706611785067125)	(0.87289833307640663, 7.6495502245094116)	1.0	slash	1.46509
25	N	A	N	A					N	4	0	shapes	N	8	True	93	(2.3067642425224584, -4.8307948139222781)	(-5.6914184775620127, -0.28974606088771893)	(5.1184022687514048, 0.32662646797672679)	(-3.7828144602463141, 8.4104599937824496)	1.0	z	3.90417
26	M	A	B	M					M	4	2	shapes	B	8	False	93	(3.5325744251311253, -4.2185511627179428)	(-5.7294462075569808, 0.25717312049184393)	(-0.76959348535469552, -4.577634459993102)	(6.9494584361180962, 4.7706405203462765)	1.0	slash	1.52457
27	M	B	N	N					N	4	3	shapes	N	8	True	93	(-0.29821554544576934, -5.1316755541227828)	(1.5009296854176295, 5.0028071238343479)	(-4.4511689922368962, 5.0152847888955154)	(8.0868243122213919, -7.8361229870964904)	1.0	z	1.87787
28	N	A	A	B	B	N	M	M	M	8	4	shapes	B	8	False	93	(5.3557726157214738, 8.0528704947349503)	(2.1683972143939574, 2.9829541485283055)	(-8.6504854911400422, 6.3554760306426292)	(-2.1679795130530239, 2.744352715598497)	1.0	z	1.24883
29	N	A	N	M	B	A	M	B	N	8	0	shapes	N	8	True	93	(-4.2376049097956496, 3.7163210249567644)	(-7.019925812682974, 0.099386007850968738)	(5.4331294793227674, 7.5620301422223086)	(6.0309920142339752, -6.8799968897746808)	1.0	z	1.35697
30	M	A	B	M					M	4	0	shapes	M	8	True	93	(1.0517041536854137, -7.4856738369272033)	(0.69440408216206784, 7.2064196332760755)	(-8.0713075438717627, 8.3493978468423826)	(-6.6665834458594899, -4.2426226818587827)	1.0	z	1.13647
31	N	B	N	B	A	M	A	M	A	8	5	shapes	M	8	False	93	(3.2933503364723116, -6.6880893090421498)	(-3.1415412749597031, -8.2799277858726423)	(-5.7715465936677788, 7.549236305756871)	(0.74125989326335961, -1.8697236037057774)	1.0	z	1.67419
32	M	A	M	B	B	A	N	N	A	8	5	shapes	A	8	True	93	(4.0316062757188806, -5.8396500686914248)	(5.7741266660764712, 7.141391487828022)	(-2.4021922255307366, -6.210632904011141)	(1.7787863567148836, 0.30439863040330373)	1.0	z	5.3696
