TrialNumber	stim0	stim1	stim2	stim3	stim4	stim5	stim6	stim7	stim.probe	ttl.stims	corr.num	trial.type	stim.corr	block	match	Subject	stim.pos0	stim.pos1	stim.pos2	stim.pos3	ran	resp	RT
1	M	B	M	N	N	A	B	A	M	8	2	shapes	M	Practice	True	94	(3.8455634573768176, 7.5198082735216616)	(1.2913326544983121, -3.5163912623698348)	(-7.1598244034466729, 3.7470490642233241)	(-6.1703340296791822, -5.2723408733768053)	1.0	slash	4.2829
2	N	B	M	M					N	4	2	shapes	M	Practice	False	94	(3.5436607783470659, -5.4619853966816088)	(-7.4988964821951907, 5.2859261009670977)	(-1.5691185409943387, -6.4019950891331732)	(1.8906323303977164, 1.2951113911697174)	1.0	slash	2.26827
3	N	B	B	M	M	N	A	A	N	8	0	shapes	N	Practice	True	94	(-2.3064301132360123, -2.1353838312504791)	(3.7936035058065851, 8.4490522944584932)	(-2.8475649000312382, -8.1542911400256326)	(-7.2305585978358646, 5.6525412455454056)	1.0	z	1.99588
4	M	A	A	M					N	4	3	shapes	M	Practice	False	94	(-6.546916740860568, 2.8998847929762466)	(-2.3163535458674485, -0.34064980175407378)	(8.368147437974546, 1.9878081918275186)	(7.4279153042013135, -4.5833851933191747)	1.0	slash	1.10345
5	M	B	B	A					M	4	0	shapes	M	Practice	True	94	(6.2581759183182495, 0.56876679203019442)	(-3.5579061627029844, 1.4500672057750972)	(-7.6190993961648656, -3.2873049133567562)	(6.850844166431413, -3.5132820463986612)	1.0	z	1.45309
6	N	A	N	A					A	4	1	shapes	A	Practice	True	94	(1.0421312991186973, 4.0035213600497563)	(-1.682388318611344, 8.0000626837049005)	(-4.882422062151317, -0.70367240599172654)	(3.1098492891590492, -1.3511159832942283)	1.0	z	1.33255
7	N	B	A	B	M	A	M	N	N	8	5	shapes	A	Practice	False	94	(5.8424152428827192, -5.198366624198977)	(5.5518489208753685, -0.61701307474519851)	(1.3602362566178332, 1.2806846288769798)	(-8.7263218380710832, -8.4416894058007372)	1.0	slash	2.49455
8	N	A	B	M	A	N	M	B	B	8	6	shapes	M	Practice	False	94	(-7.9996593927793347, -8.4758574505265347)	(4.1286094140369212, -8.4502994168222987)	(-5.2849396420339456, 6.7406486030025459)	(7.701769848399401, 5.9185247317747329)	1.0	slash	2.35974
1	M	B	A	B	N	A	M	N	M	8	5	shapes	A	0	False	94	(-4.4501261665292988, -7.9275210528454174)	(-0.87422656858362657, 5.0351700818519891)	(-5.365341617136119, 3.2792465797329964)	(5.396745245351152, -1.3183778089457627)	1.0	slash	1.58817
2	M	A	M	N	A	N	B	B	N	8	3	shapes	N	0	True	94	(4.4399958537721531, 4.610084571010912)	(-7.4315575287077351, -5.7394808772866588)	(4.6165384792577129, 0.18464078741352985)	(-6.5371141083919966, 2.0807029868989471)	1.0	z	1.72358
3	N	A	N	M	A	B	M	B	A	8	1	shapes	A	0	True	94	(6.8348610565998609, 4.968519636443018)	(-8.5111632622407889, -6.8355763782439727)	(8.3063332297443111, -0.2733109972236516)	(0.39462563693539998, -7.0880486887829353)	1.0	slash	3.07116
4	N	B	A	N					M	4	1	shapes	B	0	False	94	(-3.0282507950765352, 5.6018183030455209)	(-7.2619586541853236, -7.4132906859521492)	(2.8847725586577138, 3.5177106292895992)	(0.34628886612021859, -1.9759848138252094)	1.0	slash	1.05071
5	M	A	A	B					A	4	0	shapes	M	0	False	94	(-0.49050188487873925, -4.042134594916913)	(5.2816660415325476, -0.47313419157623926)	(-4.1113434265340532, 2.2653797914240759)	(1.1845719674013147, 6.5886842971970854)	1.0	slash	1.25826
6	M	B	B	A					A	4	0	shapes	M	0	False	94	(-5.8507136304922138, -2.8918506093707457)	(2.4320449914119848, -5.0093154829964117)	(3.6229044223409872, 0.51484449757864681)	(-1.4908673999845039, 5.7837732779461604)	1.0	slash	1.17587
7	M	A	B	M					B	4	2	shapes	B	0	True	94	(-4.7309563723683299, 1.3768184125822032)	(3.4810742932892982, -1.3826376880290976)	(5.2511709056750853, 5.4939358213041238)	(-5.6398818611062875, -3.0200834248305917)	1.0	z	1.27953
8	M	A	N	N	B	A	M	B	A	8	6	shapes	M	0	False	94	(1.8812001156503904, -0.35450758709132657)	(-2.8903040805360192, 6.2353351553080216)	(-7.2577919510014564, 2.0177122740942686)	(-0.38434894925827834, -8.2718535469104886)	1.0	slash	1.2211
9	M	A	M	N					M	4	2	shapes	M	0	True	94	(-2.7298921337838831, -6.4582192679280421)	(-8.4548087313595417, 2.9375319166491689)	(3.8880176944949145, 3.404724757317803)	(1.7305442460489022, -4.5641935246702126)	1.0	z	1.42572
10	M	B	M	B	N	A	N	A	M	8	0	shapes	M	0	True	94	(-1.0431419731539506, 1.8557173673872267)	(2.2543408220814527, -3.3939317777823677)	(-8.165770834904837, 7.9226652409279978)	(8.1609099478756697, -6.4047016919185067)	1.0	z	1.10244
11	N	B	M	B	A	M	A	N	B	8	0	shapes	N	0	False	94	(-6.3482349953496229, -2.0133831867279293)	(5.5071242779147997, 8.3702425362618591)	(-7.977441422452574, 4.7477957824375761)	(7.5404819406725565, 2.706448451826466)	1.0	slash	3.35001
12	N	A	A	B					N	4	2	shapes	A	0	False	94	(4.9192039391684705, 0.93289029436302329)	(-0.41368129997782255, 4.0252224058503199)	(0.38873670131996896, -6.2998415944292727)	(-5.6272227402913177, -2.3218156089497475)	1.0	slash	0.929577
13	M	B	B	M					N	4	3	shapes	M	0	False	94	(-6.2354631494491102, 5.763590886783879)	(1.7218147449369976, -3.0433025153214057)	(-8.1270991660073761, -4.1577307956032881)	(4.0515085241758761, 5.6178946551337177)	1.0	z	1.38127
14	N	A	M	B	N	A	M	B	B	8	2	shapes	M	0	False	94	(0.92040666729074871, -0.93945615316431841)	(-6.7237419350106, -1.220861270798963)	(-0.38240916675618664, 5.9558690951686213)	(-5.6659091628499807, 5.3104582065717576)	1.0	slash	1.24485
15	M	B	A	A					N	4	2	shapes	A	0	False	94	(-2.9956038585869464, -5.9540833682840439)	(8.4161736632908379, -1.2757434720798937)	(3.3877330767297824, 3.9451142743995096)	(-6.786660741973753, 6.6696046181504816)	1.0	slash	0.974437
16	M	B	A	A					B	4	1	shapes	B	0	True	94	(-0.87978524699538241, 3.5426229399723841)	(0.70493319022021694, -4.9393071888326485)	(4.903242725668715, 3.450521763834729)	(-3.0487993997705702, -8.5589058490766359)	1.0	z	1.89789
17	M	B	A	M	B	N	A	N	M	8	3	shapes	M	0	True	94	(4.3600026276051835, -7.0646730418780805)	(3.1862650985303738, 2.8845825166199539)	(-6.8765623972866567, -1.3607822461637245)	(1.8485491104388831, 6.715070177643705)	1.0	z	1.26765
18	N	A	M	A					N	4	2	shapes	M	0	False	94	(6.6728852119053137, 8.2126418493522308)	(0.49862850043574802, -4.8691663087084045)	(-7.6008361444850019, 4.9914118903078748)	(-6.7900112479640651, -2.8041294087915229)	1.0	slash	1.54313
19	N	B	A	N	M	A	M	B	M	8	6	shapes	M	0	True	94	(4.6712974238090048, -5.3705274713425677)	(-3.6121545149600127, 5.2826945885471748)	(-7.1724308325246602, -0.089428732144805068)	(-0.76099076872287252, -4.7839749872335515)	1.0	z	2.0866
20	M	B	B	A	A	M	N	N	N	8	2	shapes	B	0	False	94	(-3.9266092904988668, 0.10156468053847156)	(3.5026086200687239, 8.2679984035199929)	(3.070743025744747, -5.3374026027499513)	(-2.1137968409530021, 7.8892344699785681)	1.0	slash	1.16221
21	M	A	M	B	A	B	N	N	A	8	3	shapes	B	0	False	94	(4.2726534724921397, -6.215521496158372)	(-5.2030454014474552, 3.6285164093930309)	(6.2561064450150692, 5.4675716392146789)	(-1.5600547662980819, -6.8198604904428306)	1.0	z	1.10206
22	M	A	A	M					A	4	2	shapes	A	0	True	94	(-6.8833138297767071, 2.6302578916240051)	(0.78552608390752354, 6.1413774126613063)	(0.78036274311118525, -2.3364735302821993)	(-2.50383190345058, -4.6990807522807243)	1.0	z	0.987582
23	N	A	A	N					N	4	3	shapes	N	0	True	94	(6.5806597355083554, -5.1745369853564913)	(-4.7384365421909971, 4.5421717218350146)	(0.44660584626326916, 5.8481048699781777)	(-2.9642484416221579, -0.13687243818720241)	1.0	slash	1.39675
24	N	A	N	A	M	M	B	B	B	8	6	shapes	B	0	True	94	(-2.2918411037099249, 6.6335663992953879)	(-7.9665564380928462, 7.4213895937301331)	(2.7135867788701766, -7.7243591002847189)	(-3.1911008910991114, -3.9261809139541084)	1.0	z	1.07463
25	N	A	M	A	B	B	M	N	M	8	1	shapes	A	0	False	94	(6.1145201638274642, -6.9813454214882071)	(-8.0764882583744537, 5.1236266035738343)	(1.6360342123957956, 0.18475416920864873)	(1.3787182506722893, 8.6643560949015743)	1.0	slash	1.5844
26	N	A	A	B					A	4	1	shapes	A	0	True	94	(5.8877112647883845, -3.3096535061229373)	(-2.8974127410769048, 4.6393434066510419)	(-1.8944997401803443, -8.2901096188582049)	(7.0634436123801496, 7.0552004452651929)	1.0	z	0.884164
27	N	A	N	B	B	A	M	M	N	8	5	shapes	A	0	False	94	(-7.3566736111893993, -0.40901389959853418)	(-3.4804220024524239, -1.7155761650751202)	(7.7428590066683434, 3.3099512656783183)	(5.933594193394045, -1.2096781098356866)	1.0	slash	1.15164
28	M	A	M	B					M	4	0	shapes	M	0	True	94	(4.7023371015102242, -5.2565704165241911)	(6.4375101967995061, 3.665358684519294)	(-2.7636866041232775, -3.4444903795768962)	(-2.2745837429572848, 6.6337263597417664)	1.0	z	0.907375
29	M	A	B	N					M	4	0	shapes	M	0	True	94	(1.0548669914842215, -8.6542480334441922)	(4.9176189445338743, 4.9651740191050457)	(-5.0900990262178123, 2.687939305215945)	(-0.47397239812487335, -4.8078096402074966)	1.0	z	2.68682
30	M	B	M	B	N	N	A	A	A	8	7	shapes	A	0	True	94	(-3.3856878243594775, 4.2398325608085354)	(-7.5606707370971895, -6.5173036866200533)	(6.1878767173180531, 8.1874124163154569)	(-0.72792468677498867, -1.095236704084531)	1.0	z	2.71438
31	N	A	B	N	A	B	M	M	B	8	5	shapes	B	0	True	94	(-4.1805281630539133, -2.9929388719484171)	(8.3938450509642841, -1.6486468566138743)	(3.7639199557336411, -2.2615131544387017)	(-3.3243675117264697, 1.0966547682351901)	1.0	slash	1.32005
32	N	B	A	M					B	4	0	shapes	N	0	False	94	(5.0411773595582581, -2.3453045543035405)	(4.6517044228916085, 5.4638297880625242)	(-4.2905353872638443, 5.2392428251964436)	(-4.0966126177708873, -1.1506046550895821)	1.0	slash	1.66546
1	N	A	M	N	A	B	M	B	B	8	2	shapes	M	1	False	94	(6.4365160750054464, -5.2338315323387965)	(-4.3166800108359995, -6.6772969797204764)	(0.43534594585623054, -6.9390183292230558)	(-2.8541648918127231, 4.8476426895415301)	1.0	slash	1.41706
2	N	B	M	A	M	B	N	A	M	8	4	shapes	M	1	True	94	(-8.1056839029585461, -4.5573392357698497)	(1.9046225038736893, -5.822863865507145)	(5.6144787712427977, 4.5559267309500342)	(-1.8327685862213983, -1.6964145089679246)	1.0	z	0.99468
3	N	A	M	M					M	4	1	shapes	A	1	False	94	(-6.1969871986975864, 1.687931471815963)	(3.579161639398766, -7.0146895216378384)	(3.1051131103674496, 1.9305980843156529)	(-7.6716330981773293, -6.9612360019298674)	1.0	slash	1.2059
4	M	A	M	B					M	4	1	shapes	A	1	False	94	(4.3772409814859419, 4.5350569663123341)	(-1.565586201115396, -3.568941496825996)	(-6.7880485038217682, 0.20534077809391427)	(8.220758252210203, -0.20423784029964764)	1.0	slash	1.58388
5	M	A	A	M					B	4	0	shapes	M	1	False	94	(5.2464491136381799, 4.5110757495950473)	(-1.6079183821667629, -7.3817992303764868)	(-2.4927870161783554, 4.8890743965582626)	(6.9971744504441489, -6.4191132059452469)	1.0	slash	1.22967
6	M	B	B	M					M	4	0	shapes	M	1	True	94	(-8.2073270302925341, -8.1404162462281864)	(-5.3677487559273009, 7.2189336402578377)	(4.2014624023060172, 6.0344061627108925)	(4.9538799788241459, -7.1708364332933296)	1.0	z	1.23327
7	M	B	B	M					A	4	0	shapes	M	1	False	94	(-1.6901160574585425, 8.2734786186001372)	(7.7333484672098223, 3.8466123492999351)	(6.4917277471158368, -0.42767258191730129)	(-5.6864578960564547, -4.4793606664252632)	1.0	slash	0.836802
8	M	B	B	N	A	M	N	A	B	8	1	shapes	B	1	True	94	(7.8108455880455097, 5.496436421229717)	(1.4536513379805989, -3.5431444865637225)	(-2.7128616299793382, 4.1594249763637059)	(3.6840846125803584, -7.5627475199795997)	1.0	z	2.26644
9	N	B	B	N	A	M	M	A	A	8	4	shapes	A	1	True	94	(-2.1965761414425069, 6.8079176727856758)	(-7.4092332635366169, 4.4538623214750537)	(2.4139629599910553, -1.6482890306998339)	(-2.4601685096067438, -3.135608137032774)	1.0	slash	1.07415
10	M	B	B	A					M	4	1	shapes	B	1	False	94	(-4.4541465329637431, 0.49592632779043022)	(-1.3265211630711287, -5.8105201768684021)	(3.1384358469603271, 7.5304223599210616)	(7.9830035634738117, -5.3119889422820101)	1.0	slash	1.16571
11	M	A	M	A					A	4	1	shapes	A	1	True	94	(4.3365262506852016, -6.2541468028228566)	(-3.8689583065794961, -7.0644017333292961)	(-0.11708159121843842, 3.6571555929637007)	(3.5105093961547738, 1.9573675486709821)	1.0	z	1.27125
12	M	A	B	B					B	4	2	shapes	B	1	True	94	(3.6479411737885776, 8.0902512524607246)	(-3.8418300584648195, -4.5537643903535425)	(4.7494649169452714, -2.295609323972478)	(-2.6850658630183002, 4.9210314877553198)	1.0	z	1.09903
13	M	B	M	N	B	N	A	A	A	8	6	shapes	A	1	True	94	(-6.4771811458239945, 0.40337478794113224)	(-6.8599906254077911, 8.040979384129777)	(8.622582907838634, -4.0981148466839077)	(4.3125049664464719, 4.3245469778507566)	1.0	z	1.34058
14	N	A	A	M	B	N	B	M	N	8	4	shapes	B	1	False	94	(-1.2145256680291192, -1.9997544595961543)	(0.59792826365402441, -5.759637441277178)	(4.9217034147770065, -0.35080271331651147)	(-8.3431670049433571, -4.148001558756385)	1.0	slash	0.956089
15	M	B	M	B					B	4	1	shapes	B	1	True	94	(6.230856239168709, -7.5449835226478736)	(-7.7866370625942407, -6.7849556944882021)	(-4.0872811606620187, 2.9229366607857123)	(2.2033964066952461, 5.5900515586923714)	1.0	z	1.39187
16	N	B	B	M					A	4	0	shapes	N	1	False	94	(-3.4480986048135076, -5.0166929207754709)	(-4.0175163624874131, 5.9116572239822442)	(6.7656431106898669, -6.0849202319813962)	(5.7260323031905553, 2.6728224721125944)	1.0	slash	0.923212
17	N	A	A	M	N	B	M	B	B	8	5	shapes	B	1	True	94	(-8.5669859437505913, 0.29221278548245877)	(-2.2638770532389625, 4.6359601534613137)	(2.6365525707456978, 0.5249607969197001)	(-7.1456095047501798, -4.3274536539810908)	1.0	slash	3.98704
18	N	B	N	B	M	M	A	A	B	8	1	shapes	B	1	True	94	(-3.796840797910531, 6.3451487186338422)	(7.5544981010640484, -4.2812081756655989)	(-1.4096823648364802, -6.9382894307190917)	(-8.3060186529411855, -5.4751514374424932)	1.0	slash	1.71442
19	N	A	N	B	M	M	B	A	M	8	2	shapes	N	1	False	94	(8.6354724918004386, 6.9666285429703834)	(-3.7448126914631628, -4.3432280634027149)	(0.5326249772693572, -7.6929456383371004)	(4.6066892993029978, 3.5562463713760089)	1.0	slash	3.59186
20	M	A	M	A	N	N	B	B	A	8	6	shapes	B	1	False	94	(-2.4500210280612045, 1.5122065391258381)	(3.2729654238169417, -6.2685032713021558)	(-3.5860872176752494, -5.7541755046614931)	(6.4845620693871897, 0.25498783146032267)	1.0	z	1.05359
21	M	B	N	A					B	4	3	shapes	A	1	False	94	(1.5863138851036549, -4.3333979822882771)	(-5.3107098001501623, -1.5703548240895282)	(-7.8434465517910512, 3.6532349684266929)	(6.6821767691592804, 6.452512926840571)	1.0	z	1.37316
22	N	A	N	M					N	4	0	shapes	N	1	True	94	(7.7267317891962968, -2.3700382397770356)	(-6.3304669521068249, -8.1102418647522416)	(-1.4783695425679282, 7.009296258635878)	(7.1921995621665591, 3.2306896145476447)	1.0	z	1.02878
23	N	A	N	A	M	M	B	B	M	8	4	shapes	M	1	True	94	(7.967800465403819, 8.5829814266865796)	(5.5220743829563936, -5.5365656495870947)	(2.0456610702303326, 7.0446813638298806)	(-7.5921168432486787, -2.0565942222946196)	1.0	slash	2.77437
24	M	A	A	B					A	4	1	shapes	A	1	True	94	(5.0384282572597172, 7.6103030425497131)	(-7.2009220397105436, 8.3712231449668515)	(-2.0884230707526159, -6.3778456502225902)	(6.9118662250781053, -6.5381167181076263)	1.0	z	0.821908
25	N	A	B	M					M	4	1	shapes	A	1	False	94	(-1.2675767948930678, -1.4193069590968515)	(-4.0878238500090402, 3.4009912981254153)	(8.3757123775237012, 7.6554870653432125)	(7.7254108403577284, -4.239809123595923)	1.0	slash	0.827643
26	N	B	N	A	B	A	M	M	N	8	5	shapes	A	1	False	94	(-5.72044797641811, 7.0203330605397856)	(0.86512674036800163, 2.51249610778655)	(-1.5487420581432696, -8.0252403259883831)	(6.2645148128730206, 1.175746983853605)	1.0	slash	1.25329
27	N	B	B	A	M	N	M	A	M	8	7	shapes	A	1	False	94	(-3.7921075458317883, -1.041052669364495)	(-2.7103170218596055, 3.324138002126455)	(3.3060662241170213, 2.0653806016754377)	(6.5057325456371249, -6.8255190075471948)	1.0	slash	0.922695
28	N	A	M	N	M	A	B	B	B	8	6	shapes	B	1	True	94	(-1.542491683798997, -1.5476942775374862)	(6.1732316320141827, -4.6507604823598534)	(1.5247506193567784, -4.9947156176742817)	(1.4768279936612618, 1.9554595604880696)	1.0	z	1.31059
29	N	A	M	B	N	B	A	M	B	8	2	shapes	M	1	False	94	(8.7149361636269056, -1.2488892718087952)	(-0.84599914348689342, 2.6972330628195369)	(-5.973336291329602, 5.3957813175047367)	(0.010060419351310301, -7.0790170070604814)	1.0	z	1.68593
30	N	B	N	A					N	4	0	shapes	N	1	True	94	(-6.0053818198182407, 7.3637577689502294)	(5.7081582699726479, -4.7545370519402255)	(-7.9465376109206076, -7.7687020922969179)	(1.381696177415451, 6.343338156367734)	1.0	z	0.79954
31	N	B	B	N					N	4	0	shapes	N	1	True	94	(3.3892159503623347, -4.4698937707454638)	(-7.2578941820820324, -8.3957009729992524)	(5.5998887810719467, 0.69708453687951888)	(-8.240784129863318, 0.84472140252194095)	1.0	z	0.877141
32	M	B	A	N	A	M	N	B	A	8	7	shapes	B	1	False	94	(7.8618759475214546, -3.3653251293699808)	(1.8974490439292744, 5.0026696745185575)	(3.1530745334647907, -0.027048254376257574)	(-8.5024371752804342, -4.8926890501633116)	1.0	slash	0.994957
1	M	B	B	M	N	A	N	A	B	8	2	shapes	B	2	True	94	(-5.2178676999851827, -5.1737892607426232)	(3.3994435478649017, -7.9952229088483859)	(8.1231756779240456, -1.8269903724590479)	(-2.9229957053293907, 0.51832699985122765)	1.0	z	1.25613
2	N	A	A	M					B	4	1	shapes	A	2	False	94	(2.6768802813455057, 5.2105405860468057)	(8.0829233618161709, -0.22846045126271619)	(-6.3251983677200805, 2.8941911988775999)	(-0.81318315954712439, -2.2315999963782165)	1.0	slash	0.896065
3	M	A	B	B					B	4	0	shapes	M	2	False	94	(-6.1181361841327728, 2.1919435779064997)	(1.5362294853838687, -0.91263297270955324)	(4.1906941869297025, 3.7043960880732598)	(-0.61626802979553297, -6.8867613488135273)	1.0	slash	1.01375
4	M	B	A	M	N	N	A	B	A	8	2	shapes	A	2	True	94	(4.6346103408045547, 3.4909212352319994)	(4.4808908298681196, -8.0188064749662207)	(-1.2372466712709524, 8.5848040334017739)	(-3.3019155150452555, -7.8792299074287859)	1.0	z	1.07128
5	M	A	M	N					B	4	1	shapes	A	2	False	94	(-3.1144305312686855, 0.34995562824084558)	(2.1448930903845174, -0.76332047487160093)	(6.8543747084640252, 6.0335067799373956)	(-1.2386649690015279, -4.1982851357979039)	1.0	slash	2.23504
6	N	B	N	B					A	4	0	shapes	N	2	False	94	(-3.146438955688029, -7.6572409778864508)	(1.0764835369216641, -2.8519001139166784)	(-3.3183662374901175, 8.3206033956888703)	(0.9623406937386445, 3.1856351309929103)	1.0	slash	0.846593
7	M	A	B	B					M	4	2	shapes	B	2	False	94	(6.9485885019573086, -7.2423705389191149)	(8.6989778895143353, 2.5602670231837514)	(-5.4184488542198412, -5.5652599356637218)	(-8.2445243035325788, 3.3847253308003129)	1.0	slash	0.940281
8	N	A	A	B					A	4	1	shapes	A	2	True	94	(-2.85847123550412, -6.6458380451531731)	(8.0534163506648184, -2.8124928047109643)	(-5.5491295485578487, 3.415851507140637)	(1.703623941152614, 7.8314377104663535)	1.0	z	0.993897
9	M	B	M	N	N	A	A	B	B	8	0	shapes	M	2	False	94	(-6.9832445520061617, 1.5088790191819346)	(1.335495768571926, 5.3757277559059187)	(-7.6714792482707761, -2.9284115517434621)	(2.6538420868236496, -5.9564250792192688)	1.0	slash	0.815624
10	N	B	B	A	M	A	N	M	N	8	2	shapes	B	2	False	94	(-4.6489968263395021, -5.9282345890922956)	(-0.43750177120220535, 8.2139712559072606)	(3.96076071059416, -0.16055576925351112)	(-4.1979430586804654, -1.7357883128173057)	1.0	slash	1.53732
11	N	A	B	B					B	4	3	shapes	B	2	True	94	(-0.74709892389219767, -5.489807397708927)	(0.78526939416529373, -0.23837585485531854)	(5.3574183038966368, 3.3902473497200685)	(-0.77633772277531854, 8.4522813367524989)	1.0	z	1.20073
12	N	A	B	N	B	M	M	A	M	8	6	shapes	M	2	True	94	(-8.6407890422070697, 0.4510887817232252)	(4.1620238999973989, -6.8346022122128796)	(-3.9624471891412414, -7.5582204929773837)	(6.9842747365504465, 6.0601555443957142)	1.0	slash	1.06247
13	N	B	N	B					N	4	0	shapes	N	2	True	94	(-7.953812795562734, -2.9114903696403358)	(5.0301045146745551, -3.9367117531966516)	(-8.439620308362402, 1.5764462474222132)	(7.1423135741510322, 0.9516076775721789)	1.0	z	1.11594
14	M	B	M	A	B	A	N	N	A	8	2	shapes	M	2	False	94	(-7.4025170866205343, 8.0825412330584001)	(-2.554650062338653, 7.282209407607187)	(-6.3384623572494228, -1.6374854080702237)	(0.86773304507114624, -0.35741391348527962)	1.0	slash	0.985695
15	M	A	M	B	B	N	A	N	M	8	0	shapes	M	2	True	94	(2.8140769501941421, -3.5842574888029368)	(8.264340934912294, 7.4078686199734562)	(-2.2254665089337289, -7.2790304375739403)	(-4.5313313748880333, 1.0544178151397769)	1.0	z	1.12137
16	M	A	B	A	M	N	N	B	N	8	6	shapes	N	2	True	94	(3.346676964360249, -7.5595073630185672)	(-5.6067572954372054, -2.2602101258063332)	(7.0102494741038672, 3.3023664365160315)	(6.8028929206734929, -5.0560659499658263)	1.0	z	1.46083
17	N	B	A	B	M	A	M	N	A	8	5	shapes	A	2	True	94	(-3.8743614499965302, 6.035213980453193)	(7.8294822779028905, 1.1176595967916825)	(-7.7682318862973574, -3.55180731545585)	(-2.1800252256553261, -2.61553693644227)	1.0	z	4.65832
18	N	B	B	A					M	4	1	shapes	B	2	False	94	(-3.1066169716993945, 2.9188769219174784)	(0.6299746986855812, -1.3697508714342366)	(-3.1793493049465527, -5.5789903317497487)	(6.6720147424898268, 3.7791317244341904)	1.0	slash	0.956086
19	N	B	M	N					B	4	1	shapes	B	2	True	94	(1.3181916475614912, 5.6751074738774232)	(-1.6427070909921015, -2.4032762664355101)	(-8.7163123200315091, 1.4858452192968201)	(3.1572962385565368, -1.245572538527159)	1.0	z	0.935534
20	M	A	M	N					M	4	0	shapes	M	2	True	94	(-2.1797746737578816, -5.1252821814494682)	(-5.9813143085244729, 6.0509710190343515)	(1.9201721380262331, 4.5391506591982012)	(2.7006519166090648, -4.2374485814729628)	1.0	z	1.18721
21	M	A	B	B	M	A	N	N	M	8	3	shapes	B	2	False	94	(-4.2326868648447418, 5.6598756557587553)	(-2.6300681624079658, -1.3630042997307434)	(2.529956397025984, -3.1236992731054585)	(4.361441011052074, 7.0393120753462615)	1.0	slash	1.35476
22	N	A	M	B	A	M	N	B	A	8	3	shapes	B	2	False	94	(-5.7053489744276309, -0.88217847327578447)	(-6.065105681431028, -8.0871469350837142)	(-5.5763195275913215, 3.8219194858307599)	(4.6111130522164085, 3.5275462771473514)	1.0	z	1.3383
23	N	B	A	A	M	M	N	B	A	8	1	shapes	B	2	False	94	(4.8879000877607997, 2.6391781361311502)	(-1.4770353571684254, 0.53280109573986145)	(-3.2410877812823067, -5.3682369027278574)	(-8.0528111220525354, 1.9911168417824303)	1.0	slash	0.988105
24	M	A	B	M	N	A	N	B	M	8	7	shapes	B	2	False	94	(-5.9963701437101831, 7.4032756487514462)	(5.6307934636515355, 1.5290269826130363)	(3.5237400607334219, -6.3872491439712169)	(0.94265138613291732, 6.107672653201778)	1.0	slash	0.907765
25	N	A	M	A	M	B	N	B	A	8	1	shapes	A	2	True	94	(-5.1529832132364968, 7.7506639158586239)	(-2.2655479072764599, -6.052522508394504)	(-0.40225528403688848, 8.3694005555091664)	(-7.4773849759261672, -2.9922697010795565)	1.0	z	1.71521
26	M	A	N	B					A	4	0	shapes	M	2	False	94	(-0.66234393322153196, -5.1970156920391108)	(-1.9398797699470656, 1.2535016381595767)	(2.2648043987869038, -2.2173564613386132)	(2.3892926318947794, 3.1614889941784163)	1.0	slash	0.798256
27	N	A	N	M	B	M	A	B	N	8	5	shapes	M	2	False	94	(-5.4593103664163083, 6.4182510357162208)	(-1.8509788800716382, -8.3421152693925364)	(8.2061595689024927, 8.1635192486862813)	(5.5407316099759498, 3.5325711955079875)	1.0	slash	0.89789
28	M	A	N	B					N	4	2	shapes	N	2	True	94	(2.6785750692951851, -0.076760868259260207)	(-8.397500794789531, -0.57976892992319051)	(-6.8627622223488594, 4.4574107468914335)	(5.630122250609924, 3.1385631037767023)	1.0	z	0.864114
29	N	B	B	N					N	4	0	shapes	N	2	True	94	(-5.673792427424579, 5.3325168831947209)	(-7.5057993713834277, -3.0521491210737279)	(8.0135816468729146, -7.0355060596798484)	(4.1443142614640802, 8.4519888634424163)	1.0	z	0.877632
30	M	B	N	A					B	4	1	shapes	B	2	True	94	(4.6748621067308385, -8.5191486917079082)	(6.0901706714939419, 2.6583035322585022)	(-4.0744686075257821, 1.830340167312368)	(-5.7986082614428014, -6.9091481302355078)	1.0	z	2.59146
31	N	B	B	A	A	N	M	M	B	8	2	shapes	B	2	True	94	(8.2998778046465098, 6.6561516525750566)	(3.92250531782555, -7.6565557041842425)	(-8.5370271690478567, 7.6981004039817797)	(-2.2114325952115337, -1.1708321031566165)	1.0	z	2.42079
32	M	B	M	B					A	4	1	shapes	B	2	False	94	(0.15034001659807572, 6.9856049572814634)	(-5.6146572583751695, -5.7567221565371423)	(-3.0666461164087346, 3.4649143113127199)	(0.48942602245023004, -4.6373742870937065)	1.0	slash	0.986561
1	N	A	B	A					B	4	1	shapes	A	3	False	94	(-5.5099488710905087, -3.5324161013667101)	(-4.0022467778908739, 2.5193378707752938)	(6.5688359046861109, -6.2082445337048737)	(3.7203691585941083, 6.3835484466050119)	1.0	slash	0.792248
2	M	B	M	B	N	A	A	N	N	8	4	shapes	N	3	True	94	(-1.3952065853488671, -8.4252181572402947)	(-4.8567664288444021, 3.2916040696887379)	(2.4761626513360522, -3.8287310333841411)	(7.6007605176154875, -7.4873603657881338)	1.0	slash	2.20582
3	M	A	B	A					M	4	3	shapes	A	3	False	94	(2.2482807067273196, -3.6361679740518449)	(4.5924637422079027, 8.657407421948708)	(-7.5357133718908464, -8.6133462064383082)	(-2.8884674962175909, 2.7835211796733272)	1.0	slash	7.55117
4	M	B	M	N					B	4	1	shapes	B	3	True	94	(-8.6197377483741722, 4.3982029413700943)	(-7.1246777783231989, -3.1092173062670083)	(4.5391963191425919, -6.6069492496653783)	(6.226767388820754, 7.0962603523521679)	1.0	slash	1.14658
5	M	B	N	N	A	M	A	B	M	8	0	shapes	M	3	True	94	(4.4789602820930092, -0.12280909773840598)	(4.640635760093506, 4.4413484026712009)	(-0.098810234187764578, -7.3802062230458674)	(-2.3487770240937431, -0.052709163958796879)	1.0	slash	1.41205
6	N	B	A	M					A	4	0	shapes	N	3	False	94	(-0.8615274799904924, -3.4755395053976006)	(-0.72273710420254211, 4.692422251492701)	(4.4290065329793791, -8.2686320538916327)	(5.1410305771177036, 7.4247108724720725)	1.0	slash	1.07572
7	M	A	M	A	B	B	N	N	N	8	7	shapes	N	3	True	94	(7.4760561192306447, -0.002262560213420528)	(6.4386501599373318, -5.2725551277486113)	(-3.0965754116713713, 3.6688728394277881)	(4.3918973057143749, 5.5091292826598419)	1.0	z	0.896978
8	M	B	N	B	M	A	N	A	A	8	1	shapes	B	3	False	94	(-3.1450943263759195, 7.6233241075508111)	(6.2710273026962895, 2.0244992466947771)	(-7.9611032974820803, -0.60517414336726105)	(0.10785761464278032, -3.3166878987739512)	1.0	slash	2.02475
9	M	B	N	A	A	M	B	N	M	8	3	shapes	A	3	False	94	(5.4711210792944502, -7.7089157741247014)	(5.4759796567823997, 2.6993931845519032)	(-5.5240169670742141, 8.2879040499680414)	(1.1712098748329343, -2.0017174104101736)	1.0	slash	1.18653
10	N	B	B	A					B	4	1	shapes	B	3	True	94	(0.30876369808154358, -7.1837298215813359)	(-8.0102607490936109, -3.5061810771712683)	(-6.4068270516312715, 7.0347890698933373)	(2.9801656344302554, 2.536532689505945)	1.0	z	0.96802
11	M	A	B	N					B	4	3	shapes	N	3	False	94	(-5.9192484713419322, 5.2799008942542436)	(5.5890662753706692, -2.5174111447341598)	(4.5656068859672558, 2.2294988361533328)	(-8.6570142091115141, -7.8827921684399112)	1.0	slash	2.15159
12	M	B	B	A	A	M	N	N	N	8	4	shapes	A	3	False	94	(0.80148696787763107, -5.7258014360944429)	(-0.21845055504615019, 0.24032567149889061)	(-7.7446722221859634, -1.3479818121439386)	(-7.0633427856074062, -8.7182787274593156)	1.0	slash	1.58934
13	M	B	M	B	A	N	A	N	A	8	2	shapes	M	3	False	94	(5.9862035285661328, 8.6561937714816573)	(1.3522666272185599, -1.0051692024439713)	(3.7087388130009522, 4.281567059212998)	(-7.9275521137652412, -7.6803855009223394)	1.0	z	3.74886
14	N	B	N	A	B	M	M	A	B	8	4	shapes	B	3	True	94	(-8.5938066568156088, 7.4202660390514446)	(-2.0423502107388076, -2.1383552439123399)	(4.4242893811146935, -8.6105197194470442)	(5.9692805817027939, 0.88792356583456922)	1.0	z	1.16437
15	M	B	A	A	M	B	N	N	B	8	1	shapes	B	3	True	94	(-2.7347180140299239, 3.5144336385370529)	(-8.3199312707360153, -0.80784431923715694)	(8.2015383320807764, 4.7237847486488462)	(5.1366010409183644, -0.019926711187320478)	1.0	z	1.19199
16	N	A	N	M	M	B	B	A	A	8	4	shapes	M	3	False	94	(-0.20405563474987787, 4.2237490934491841)	(0.73490117125447441, 8.2676337814951459)	(-3.6966477866075911, -5.9270288864543241)	(8.1736940500629593, -1.063655261937031)	1.0	slash	1.31755
17	M	A	B	A					M	4	1	shapes	A	3	False	94	(-1.0147146139393861, -8.0798015581122833)	(-8.2282313338899193, 1.2311127910987825)	(8.5599564801970196, -0.83653359958832407)	(4.0410255088358902, 8.0795417752737642)	1.0	slash	1.24722
18	N	A	B	A	M	B	M	N	B	8	5	shapes	B	3	True	94	(4.1545581541700329, 7.0454015124486595)	(-4.7790929401902797, -1.0407444815182272)	(6.7767319555744709, -2.4002824085954311)	(-6.5952315375580675, 8.2316848427906848)	1.0	z	1.39469
19	N	A	M	M	A	B	B	N	M	8	2	shapes	M	3	True	94	(-3.0500899343465999, 7.6376887814959922)	(-4.0365983919873543, -4.0585906871589144)	(5.7805274400401423, -3.0612820254892155)	(-3.5740821985888491, -8.256066405552783)	1.0	slash	2.58039
20	M	A	B	A					M	4	0	shapes	M	3	True	94	(2.9058001825017801, 0.43687603806372799)	(-5.0520717653222782, -3.8968628684295439)	(-2.4464137104097547, 0.70022607183009811)	(4.3708473216744235, -5.4785737428872618)	1.0	z	1.122
21	M	A	B	B					M	4	0	shapes	M	3	True	94	(-7.330700449330152, -4.2970266362476375)	(-6.1353174841405274, 0.86612795067558501)	(0.039837159291362667, 6.6239945317599727)	(6.3980969651814288, -7.2867461768972852)	1.0	slash	2.94751
22	M	A	N	A	B	B	M	N	B	8	0	shapes	M	3	False	94	(-1.7017428944187571, 7.7953621489366896)	(-8.32663450074139, -3.8216107277320965)	(2.4815519595893551, 6.5510910141975121)	(6.967719683649479, -8.375652678481309)	1.0	slash	2.34697
23	M	B	M	B					B	4	1	shapes	B	3	True	94	(1.3713741774632489, 0.40369003202602194)	(-6.1995931092976946, -8.3922338106053136)	(-6.3718214131571553, 2.5605985217311282)	(8.6516725850028102, -0.625242674421008)	1.0	z	1.08851
24	M	A	B	B	N	A	M	N	A	8	4	shapes	N	3	False	94	(3.9520681843927257, 3.309472924477074)	(-0.27460655609664997, 4.4035677921205973)	(4.9662492052698646, -3.0266003787822626)	(-4.2343326298091011, 0.72050467866169932)	1.0	slash	1.15602
25	M	B	B	A					B	4	1	shapes	B	3	True	94	(-6.5098674319468302, -6.5097719271201324)	(-8.6722389188913329, 8.5694571002170044)	(2.0957311887827537, -3.7171740776010163)	(0.3559124220069485, 5.4589258738297151)	1.0	z	1.24785
26	N	A	M	M	A	B	B	N	M	8	1	shapes	A	3	False	94	(-6.1320268821930881, -7.0992768707860403)	(7.3158363820408994, -6.9388228480057998)	(-0.37777231742964901, -1.723777332647324)	(-8.3368539454857409, 3.4123538773767397)	1.0	slash	1.65908
27	M	B	A	N					M	4	1	shapes	B	3	False	94	(-2.7592785206369363, 8.6975341833873934)	(-7.4195661546526432, -5.1832463276171845)	(8.5607349336721299, -3.364541577081078)	(6.8852793959582232, 6.8873620789787591)	1.0	slash	1.64109
28	N	B	M	M					M	4	2	shapes	M	3	True	94	(4.6585271992311963, -2.7419008506492943)	(-6.6537182466960694, -4.0294903174403576)	(1.7204845180266357, 1.0283728500889762)	(-0.30187080880043382, 4.6670009459240962)	1.0	z	0.89049
29	N	B	N	A					A	4	2	shapes	N	3	False	94	(-3.7238941140077992, 7.5423738147067887)	(1.8211566547714391, -4.4929124734681736)	(7.2268422257252833, 1.6034666461408964)	(-8.5595415466967584, -5.4815446520931079)	1.0	slash	1.21824
30	N	A	B	B					A	4	3	shapes	B	3	False	94	(-6.2810883470619308, 3.4527927476370817)	(0.1997824580207137, -2.3278687554369499)	(6.8289666371299589, 8.0048210804119755)	(-5.6271432510385591, -3.4513876912336778)	1.0	slash	1.30392
31	N	B	M	N	B	A	A	M	N	8	0	shapes	N	3	True	94	(-0.92224148908517645, -1.1193685787452266)	(-6.125864603528016, 6.2607213694238979)	(-1.5313682967599682, 8.2132510659124947)	(5.8813515199635997, 7.8485164308295587)	1.0	slash	1.41534
32	N	A	N	M					N	4	2	shapes	N	3	True	94	(6.065184143569379, 0.745447604634073)	(-6.981517144290649, -4.7190335470032112)	(2.030772164413909, -7.2663719625815091)	(-5.9297780080494897, 1.1873033883348061)	1.0	z	1.01515
1	N	A	A	B	M	M	B	N	M	8	3	shapes	B	4	False	94	(2.1748893532887354, 8.4582925097251831)	(-2.4210623259563704, 1.3699722806079393)	(-6.1669016379072064, 4.9649064350143188)	(7.7009312499645652, -0.27572674780966722)	1.0	slash	1.11058
2	N	B	A	M	M	A	B	N	N	8	3	shapes	M	4	False	94	(-5.6465717973400738, 7.8809763425477044)	(2.7561393446154145, 5.5662031349267806)	(6.7742982787866968, -8.3482368674950784)	(-0.95827990171832855, -2.2572418526440794)	1.0	slash	1.53024
3	N	B	A	B	A	N	M	M	B	8	6	shapes	M	4	False	94	(-7.123584105240365, 0.90708106398701993)	(1.202361653706836, 1.7877502182569351)	(-4.4555839542010602, -4.1798855397246637)	(-8.7231520257889432, -7.6608113159368321)	1.0	slash	1.3418
4	N	B	N	M	A	B	A	M	A	8	6	shapes	A	4	True	94	(-4.5775387846050934, 2.3981782550530468)	(0.29686399503497718, -6.2895500179451851)	(7.5840111620337325, -3.6142035757254902)	(-6.435718483378027, -1.8858800048938127)	1.0	z	1.41367
5	N	A	M	M	B	B	N	A	N	8	2	shapes	M	4	False	94	(-3.5454551237418048, -4.8574872542902199)	(7.2519766438575601, -3.5346980189700359)	(3.757406599838836, 6.600172828983851)	(4.6083344409511895, 0.17196159074658723)	1.0	z	3.13508
6	M	B	A	A					N	4	0	shapes	M	4	False	94	(-6.9197763445045384, 3.2316788599552062)	(7.9407504097483681, -3.7133666277058115)	(-0.4347530301900111, -1.9670549821907342)	(6.3007031951343073, 4.482919705233849)	1.0	slash	1.1188
7	N	B	A	M					N	4	0	shapes	N	4	True	94	(5.0786432829624086, -3.2146587075470823)	(0.70737791123218052, 6.5688903378597931)	(-6.7034975984629268, -4.0325321218750627)	(-3.8781446651367899, 8.6769868126269891)	1.0	z	1.36015
8	M	B	M	A					B	4	0	shapes	M	4	False	94	(1.5716199110858344, 7.5293355287856976)	(7.148646129572132, -2.7917700848209144)	(-2.7380458587517271, 0.47347379086650143)	(-7.3340868257597709, -3.6449841964423646)	1.0	slash	1.3059
9	N	B	M	A					A	4	0	shapes	N	4	False	94	(-1.1085628521077249, -7.7102944135674409)	(-1.4322910973697507, 6.1745062281927403)	(0.70299473508476495, -0.28008843465185862)	(3.4850260803720161, 7.6053286397886311)	1.0	slash	1.84742
10	M	A	B	M					N	4	2	shapes	B	4	False	94	(3.3014792480770296, -0.93175020671860054)	(0.3387907135091659, 3.1294002382734583)	(-8.5089849558195034, 3.7887119116638868)	(-4.4092885113449301, -1.0676093746869393)	1.0	slash	1.4312
11	N	B	N	A					B	4	1	shapes	B	4	True	94	(4.9537865528691185, -8.6096614376042915)	(-6.9797508624335247, 3.047225033475268)	(-0.13086516258121073, -2.5771636274377601)	(7.9444719532125418, 0.97197353410780707)	1.0	z	1.2828
12	M	B	M	A					M	4	0	shapes	M	4	True	94	(-2.7133632593861616, 2.2307585460088166)	(6.3908303140222831, -8.5169073091867258)	(8.0276179844267261, 6.6806790923888606)	(-7.6674591205509532, -5.8273061218125326)	1.0	z	1.28426
13	M	A	M	B	A	B	N	N	B	8	3	shapes	B	4	True	94	(-3.5593834472885391, -1.6936920210104303)	(-8.5528302438234682, 2.8583503273658266)	(6.2160704045871569, 7.5041716724725873)	(4.7005973452319729, -8.2782909119984058)	1.0	slash	2.94463
14	N	A	M	B	M	N	B	A	N	8	5	shapes	N	4	True	94	(-3.4137504122727673, -7.5090030184267293)	(2.2137417175383298, -4.1664657491748658)	(7.1228078322742086, -6.3482307007851908)	(-2.5339675600122833, -2.0640176992965245)	1.0	slash	2.92223
15	N	A	N	M					N	4	2	shapes	N	4	True	94	(5.94986457240093, 2.7114376642304734)	(-5.8641243851014266, -6.7787141877234607)	(-7.8952036009483813, 7.387226141681186)	(2.1905153703011333, -0.93298606046046739)	1.0	z	0.878934
16	M	A	A	N	B	N	M	B	N	8	5	shapes	N	4	True	94	(3.6403971121130034, 3.7759772879925091)	(-7.2246582764547771, -5.2679427930162852)	(-5.1795247268790483, 0.73332001244237688)	(8.4659952642666525, 6.1754115795719819)	1.0	slash	1.24453
17	M	A	M	B	B	N	A	N	N	8	7	shapes	N	4	True	94	(-6.486171260850087, 6.8780162168179988)	(1.7475897756983958, 3.6616053906259634)	(2.8560844861604728, -3.8558268113646363)	(6.9652945771340491, 6.0003470009536333)	1.0	z	1.28007
18	M	B	M	A	N	B	A	N	N	8	6	shapes	A	4	False	94	(6.2207484791842802, -0.24925889122995315)	(0.19405818457433277, 0.22441976706049971)	(-4.241420226540825, 5.6548365509144283)	(2.7446309645402227, 8.1597170085925335)	1.0	slash	2.51772
19	N	B	B	N					N	4	2	shapes	B	4	False	94	(-2.7867489600315896, -8.0922959992486874)	(-0.10575849291973149, 7.5214594015448313)	(3.4909388324358179, -4.8822556302839928)	(3.1623077798271133, 3.1027823169221787)	1.0	slash	3.42326
20	N	B	N	A	B	M	A	M	M	8	5	shapes	M	4	True	94	(1.7955448986847564, -5.9436931970681641)	(-3.5129196254724704, -4.5469798191979658)	(5.3231981010711813, 7.6989640069407557)	(6.7531485895233967, -0.1181724413250187)	1.0	slash	3.3667
21	N	B	B	M	M	A	A	N	A	8	1	shapes	B	4	False	94	(0.73761096274262172, 6.0545969634998027)	(-6.8149178597439821, -0.20170664922385484)	(2.2635242786148986, -0.72977415832337478)	(-6.9711012542034769, 4.9284063216592031)	1.0	slash	1.04193
22	M	A	B	M	N	A	B	N	N	8	4	shapes	N	4	True	94	(-2.206352365336814, -1.8624992047522708)	(-7.9189426748601575, 0.26369904574137415)	(0.8437145986346124, 7.8921687813278929)	(1.6947216842828148, -3.2349570014080324)	1.0	slash	0.839955
23	M	A	B	N	N	B	A	M	B	8	3	shapes	N	4	False	94	(3.0844175264010598, -5.2424320725676745)	(0.10879870839550598, 1.0559818651154576)	(-6.9128780541895942, 8.7370240923390377)	(-7.6243478178820272, 2.4956883839749278)	1.0	slash	1.04673
24	N	A	N	A					B	4	1	shapes	A	4	False	94	(5.8621419009168925, 7.8447452968881812)	(-6.3670731763275761, 6.7086599194525451)	(2.9625955326096296, -6.6945892579464648)	(-7.5226918697666267, -1.4965934069096569)	1.0	slash	1.15107
25	M	B	A	M					M	4	3	shapes	M	4	True	94	(-3.5099426160651106, -0.89973174092299413)	(3.3973576696915213, 2.4079212192815476)	(6.7940539637547772, -3.3534499971363392)	(-5.356102457722363, 6.9014200076097563)	1.0	z	0.818612
26	N	B	M	A					M	4	2	shapes	M	4	True	94	(-0.84941905634317294, -8.098551060414108)	(-4.4656542963750478, 7.9902558527263245)	(8.4244227933669933, 6.4333214680081277)	(3.491685477473597, -4.159609711820603)	1.0	z	1.0484
27	M	B	B	A	A	M	N	N	N	8	5	shapes	M	4	False	94	(-8.1601523743163966, -7.4773204076047683)	(-7.66644093579393, 3.2081563170593661)	(-8.0473684271898627, -2.1324636386575948)	(2.3926159207350359, 4.2053454041543379)	1.0	z	1.81745
28	M	A	B	N	M	N	B	A	B	8	6	shapes	B	4	True	94	(1.8059091099991331, 5.5104567076914339)	(4.8507463058714766, 2.3646233199350224)	(-7.7052408710857465, 1.2208104533747814)	(2.7216405697850927, -6.1424508827956643)	1.0	slash	1.05966
29	N	A	M	B					N	4	1	shapes	A	4	False	94	(-0.79762296733041804, -0.34576476767702857)	(2.5863187333223827, -7.1255441861618216)	(7.0172634598599455, 5.3930501270599418)	(-5.3383856383300667, 8.3347496040507316)	1.0	slash	0.913249
30	M	A	A	M					B	4	3	shapes	M	4	False	94	(3.8447021684048366, -5.8549595758749238)	(-5.7209184128607298, 2.2309521523479141)	(-1.6878506315323785, -6.6995571691299665)	(0.13930985420012476, 0.99170141739223361)	1.0	slash	0.860686
31	M	B	M	N					M	4	2	shapes	M	4	True	94	(7.4169702107974196, 2.7311528747108458)	(5.3719411582563446, -5.7533524127217586)	(-2.6669273022335087, 1.4720946869419969)	(-0.93836176635613988, -4.556518896248642)	1.0	z	1.42652
32	N	B	N	M					N	4	2	shapes	N	4	True	94	(-5.62146142036472, -1.6831752386606835)	(6.9624373414536151, -1.5578213363591082)	(2.2326246002303343, 3.6600340667020852)	(-7.4497645074730432, 2.0749387999144346)	1.0	z	0.671691
1	M	B	B	N	N	A	A	M	B	8	1	shapes	B	5	True	94	(8.2403338870406699, 1.3531952917054326)	(-6.4017220531315484, -4.608401427892419)	(-7.1481624001036721, 2.5359648072961747)	(-2.0715079064141104, -0.13477012440296399)	1.0	z	1.42983
2	N	A	B	B					N	4	2	shapes	B	5	False	94	(-2.6822169188750147, 4.0230536564399895)	(3.1460109966115972, -3.0225508041441662)	(1.9075314625200797, 3.1011225849744939)	(-1.1098592737118915, -0.71037613523404097)	1.0	slash	0.971255
3	N	B	M	B	M	N	A	A	B	8	3	shapes	B	5	True	94	(-5.4193935521776364, 8.5523684528635684)	(-8.408722711721536, -3.1617076473668257)	(1.7948549298930718, -1.2154312846293536)	(7.898824775544643, -0.89644381488408431)	1.0	slash	1.317
4	M	B	B	N	M	A	N	A	M	8	3	shapes	N	5	False	94	(-6.3607687945013929, -2.2906429475765595)	(6.6205811849823988, -6.6145416776917108)	(0.72524239520638467, 7.1241694952384726)	(-5.403426194917774, -7.1488684476541495)	1.0	z	1.35467
5	N	A	B	A	N	B	M	M	N	8	0	shapes	N	5	True	94	(-1.0181131519134397, -8.0281813146451775)	(-1.6351908678847176, 3.0087705608464947)	(-5.6462369409930409, 5.4392913533044318)	(6.3140798029633771, -5.1045946186680355)	1.0	z	1.08802
6	M	B	A	N					A	4	1	shapes	B	5	False	94	(2.5826221357000954, -2.894591457049362)	(-7.4324955333978879, -0.53464712906215084)	(-7.7357503909918792, 6.6502367946835701)	(2.3097822544606608, 5.5244290631289967)	1.0	slash	0.861539
7	N	B	N	M	B	M	A	A	M	8	7	shapes	A	5	False	94	(-1.5403103392555417, -6.4800470746059764)	(6.7274682353344133, 0.0075860885611458428)	(-7.5895791156445531, -3.6262784866095128)	(-7.6389669941445959, 0.53963298624058709)	1.0	slash	1.30958
8	M	B	M	A					M	4	0	shapes	M	5	True	94	(-1.5585105359217488, 7.5062004692612057)	(1.0512648754386973, -2.2913598283870158)	(-6.5865715353127046, -0.77482461627014487)	(7.0323808285477138, 7.8368740263235637)	1.0	z	0.847289
9	M	A	M	N	N	B	A	B	N	8	5	shapes	B	5	False	94	(2.8574833517927658, 8.1400346200642097)	(0.92680020852074563, -4.9259553303122097)	(-6.8630429051305839, 5.376082081147759)	(-1.7843729398527657, 5.9439710532131809)	1.0	z	4.33859
10	M	A	N	B					M	4	0	shapes	M	5	True	94	(3.6882672214608068, 7.8893414403783311)	(6.4644086017879907, -4.2218918406743988)	(-5.0545559110186051, -6.9801301269660971)	(-6.2076766258199561, 5.8330056056878341)	1.0	z	6.19189
11	M	B	N	N					M	4	0	shapes	M	5	True	94	(-4.5493484708472707, 2.8817844845168672)	(-1.4867501820034263, -5.4998037950338716)	(6.2186201903130058, -6.6465084116964235)	(4.4145191476057288, 1.5852068193573601)	1.0	z	1.01092
12	M	A	N	A					A	4	3	shapes	A	5	True	94	(0.62949531687300286, 7.7326856349527198)	(-1.1326905588986342, -5.2980196520840144)	(-2.7782517829612665, 4.4667801831081579)	(6.0853517530314392, -5.5504507634984517)	1.0	z	0.810995
13	N	B	B	M	A	N	A	M	A	8	1	shapes	B	5	False	94	(-6.2079216808861446, -0.11430929976630289)	(2.0832562912655312, -7.5982211692443764)	(-7.3745575163384354, 3.9559479451461836)	(-1.3538909686750484, 0.49191952475739065)	1.0	slash	1.98262
14	N	B	N	M					M	4	0	shapes	N	5	False	94	(8.5230968020953846, 6.3698191563335449)	(-4.4472378091867837, -8.6909416879438908)	(5.1960779271327358, -7.2595175910591028)	(-0.12204185238799425, 0.98622700775084837)	1.0	slash	1.60415
15	N	B	N	B	M	M	A	A	B	8	1	shapes	B	5	True	94	(-4.220928176696737, 7.5168024847978359)	(6.9269626092463739, 5.3241557709871472)	(-8.2251852945383579, 5.9779811106470859)	(8.5701164641047676, -2.1236334860484263)	1.0	z	1.40008
16	M	A	N	M					B	4	1	shapes	A	5	False	94	(-8.356733672928593, 7.5677647925350016)	(-6.173916382199101, -4.8591149136586349)	(5.9368590727391091, 2.9042416626273475)	(4.4087621143118447, -6.886581804566501)	1.0	slash	1.60945
17	M	B	A	B	A	M	N	N	N	8	5	shapes	M	5	False	94	(6.0475030944454531, 8.4665087018969096)	(8.0626641445771625, -8.3606269670684199)	(7.1728290462837396, 3.7180541304824004)	(-4.4418273640673682, 5.7862821369051982)	1.0	slash	1.42907
18	M	B	A	N					A	4	1	shapes	B	5	False	94	(-0.44580306348701981, -7.3759164433965223)	(4.5190943696168091, 5.1790962818423143)	(-4.6529289033589238, 8.1613759576055109)	(4.2940687004158278, -5.7413866405278497)	1.0	slash	1.56851
19	M	A	M	B	A	B	N	N	N	8	4	shapes	A	5	False	94	(0.30655869587846496, -2.6670918689935306)	(7.7401462989100516, -6.6283732530816648)	(5.7309583629476162, 5.7667902313563992)	(-3.0913847786863249, -0.53692598843695905)	1.0	slash	1.4521
20	N	B	A	A					B	4	1	shapes	B	5	True	94	(4.4288974801636805, 0.54573587603227658)	(-1.9337048874860931, -7.8199167207038531)	(-5.8093135172484569, 5.8972607455380288)	(6.7616140228327684, -8.6490964644293182)	1.0	z	1.31591
21	M	B	N	M	A	B	A	N	A	8	6	shapes	A	5	True	94	(7.8403725839868663, -4.6169388002399145)	(0.70932390050879235, -1.6024740140098164)	(-5.3780208288429208, 0.80621749824548417)	(-1.0274173147823475, 8.4019309137381519)	1.0	z	1.32155
22	N	A	B	A					M	4	0	shapes	N	5	False	94	(7.7899689521320781, -7.7099646043206125)	(-8.0914490467507711, -1.0135435648319815)	(-7.6394547553656711, 6.6735899949444892)	(3.7262239082181772, 2.7002736796419242)	1.0	slash	1.93102
23	N	B	A	A					A	4	3	shapes	A	5	True	94	(4.2255768189419332, 6.2553254655295643)	(-4.6681282977548593, -4.4834003044845812)	(-6.3744350651758097, 1.3000744041157226)	(5.6104993290578786, -2.6286872330455529)	1.0	z	1.25006
24	N	A	A	N					M	4	3	shapes	N	5	False	94	(-6.5096598791801199, 3.4291922914366193)	(5.1852161576523645, 7.7958944208811722)	(-6.8543157686162601, -8.653340206430375)	(7.8468053893642242, -4.62854221220213)	1.0	slash	1.6002
25	N	B	B	M	A	N	A	M	A	8	0	shapes	N	5	False	94	(-8.4445264370392152, 6.0951136329505839)	(1.4694382525290131, 8.5667950546018794)	(-0.60459681086978634, -3.9298794119484786)	(-7.166486893642289, -2.7522017682729985)	1.0	slash	1.7476
26	N	B	A	B					A	4	2	shapes	A	5	True	94	(2.0899000278984516, 2.9503470504587632)	(3.7209110415615338, -8.0327224549900418)	(-1.8075835362299584, 8.1261227523120887)	(-0.93200253434829694, -7.5219352833656661)	1.0	z	0.831442
27	M	A	A	N					M	4	0	shapes	M	5	True	94	(2.2182376547082399, -2.3274653541009371)	(-2.1176731901936963, -4.2307159828730834)	(0.18553319328610485, 1.5041339805373717)	(-4.7681924380822016, 7.5175902583100189)	1.0	z	0.891202
28	M	B	N	M	N	B	A	A	B	8	5	shapes	B	5	True	94	(-8.6022370081067585, -7.381676938065862)	(6.2726931784745581, 0.41605067927123329)	(-7.3367337682937759, -0.11742386172225672)	(-1.2170655141318125, 2.274247000008998)	1.0	z	2.98868
29	N	A	B	M	A	N	B	M	N	8	0	shapes	N	5	True	94	(1.0701910732784814, -2.4065885532240436)	(-6.576323058800817, -5.9408346811128894)	(-0.56360301516837552, 7.6862594876659998)	(4.2046440449956162, -7.9233717388482194)	1.0	z	1.05228
30	M	A	B	N	B	A	N	M	N	8	4	shapes	B	5	False	94	(-0.066044768844705004, -0.160958198809249)	(3.8894701818841817, 2.7284997259857633)	(-2.0474680065295576, -6.6785874866434689)	(7.7133991732341762, 5.182414492150933)	1.0	slash	1.1897
31	M	A	A	B					N	4	3	shapes	B	5	False	94	(-4.9977805732467093, 5.5268584920571371)	(4.4834389016167115, -4.1649751517025271)	(-6.1046889312380452, -8.7376557073555201)	(7.6046024870209017, 1.9240145195668976)	1.0	slash	1.05513
32	M	A	B	B	N	A	N	M	B	8	3	shapes	B	5	True	94	(5.8412508997113886, 7.3037659448147778)	(4.4430278153917886, 3.2335388172837884)	(-4.4205275776749433, -6.9842091193772049)	(-2.8384883200083824, 0.44024636776713777)	1.0	z	1.42496
1	M	B	B	A					M	4	3	shapes	A	6	False	94	(-1.1257437477907946, -2.0488851793553442)	(1.231013501711395, -8.0814454755408676)	(7.5283541372958744, 4.2387825102185896)	(-7.5691644734440251, 8.6439997354460729)	1.0	slash	0.946577
2	N	B	M	A	B	N	M	A	M	8	2	shapes	M	6	True	94	(7.5196552722215309, 3.8815249464346291)	(0.80302360178704824, -5.5860985327398556)	(-4.988929155442964, 4.5514064345905734)	(6.3041713839676348, -8.2435024687743841)	1.0	z	0.864335
3	M	A	A	B					A	4	0	shapes	M	6	False	94	(-4.9803962034851761, -8.4616135971430264)	(3.4783111031420351, -7.2684222883194272)	(6.937556707772222, 7.4772476528528671)	(-3.4809717372555289, 2.1027465023075447)	1.0	slash	0.861537
4	N	B	B	A	M	M	A	N	N	8	0	shapes	N	6	True	94	(-5.5266036830939544, 8.4492711102962126)	(2.5959146589345998, 4.957953086714868)	(7.6860608319067865, -8.6048309580569082)	(-8.0846804537184163, -5.2619688342508262)	1.0	slash	0.99949
5	M	A	B	B	A	M	N	N	B	8	6	shapes	N	6	False	94	(4.6864627386590936, -6.8055803403199668)	(-5.4994504799722028, 0.02821380629447745)	(3.0614271139647968, 8.1160263360582441)	(1.3935311276794007, 1.7189195608862455)	1.0	slash	1.65303
6	M	A	B	A					A	4	3	shapes	A	6	True	94	(2.3695382873010793, -0.2927082583049998)	(2.8952768820582406, 7.0492189632090003)	(-4.3598346622260848, -5.3122435837502309)	(-8.6328634255604992, 2.718788256286313)	1.0	z	1.49268
7	N	A	B	A					A	4	1	shapes	A	6	True	94	(-6.6746273097048325, -3.8210834482796399)	(-1.8848898162125707, 8.3047796037273187)	(4.1222920581651827, 2.0731143711418873)	(0.97599712752882795, -1.9375302446396923)	1.0	z	0.948366
8	M	B	M	A	B	N	A	N	N	8	2	shapes	M	6	False	94	(5.734321195862691, -0.67225667938640044)	(-1.5739987132908402, 5.2472450502402417)	(-6.8156373037697655, 1.5886930446148586)	(-2.3475882421481469, -2.7065028022040707)	1.0	slash	1.13211
9	N	A	B	M					B	4	2	shapes	B	6	True	94	(-6.9379602223241097, 8.2086376925959428)	(-4.4227977227050745, -6.2250782870840196)	(1.4105102452679397, -2.9630404538091204)	(5.8431160864946587, 6.9739896900954452)	1.0	z	0.951658
10	M	A	B	M	A	N	B	N	M	8	4	shapes	A	6	False	94	(3.143885397634536, 2.4235139693807035)	(7.597349533913814, 2.3389393102660723)	(2.390784082443604, -6.4558632639826925)	(-4.406899101381426, 5.7554109011920609)	1.0	slash	1.07733
11	M	B	A	N	N	M	A	B	B	8	4	shapes	N	6	False	94	(-8.5816393682123806, -6.5348073744818347)	(-2.3044104068201534, -8.2171556689373233)	(5.7943572427712216, 6.3236451079174447)	(5.9313176548808837, 1.0556444046444149)	1.0	z	4.51426
12	M	A	B	M	N	A	B	N	N	8	7	shapes	N	6	True	94	(-5.3992207517567117, -1.2748438031532938)	(-0.66535537844350578, 8.3757543138795398)	(3.3837286669959656, -0.41128740476871783)	(6.6318174230768321, 6.9777837506161511)	1.0	slash	1.19359
13	M	A	M	N					N	4	1	shapes	A	6	False	94	(3.4173427859158867, 6.0356285475786127)	(7.9987240042982997, -5.7665482750609058)	(-6.7743560410624974, -2.9782144875521475)	(-5.5022503009516015, 7.8117984576987638)	1.0	slash	0.917904
14	N	A	M	B	M	B	N	A	A	8	7	shapes	A	6	True	94	(-5.3404902303238053, -4.360629598419183)	(-8.444433707273264, -0.52993997374873025)	(-3.793405369069653, 7.7540279831695074)	(5.3359036520843599, 5.9795710873588739)	1.0	z	6.2093
15	N	A	N	M					B	4	1	shapes	A	6	False	94	(-5.8754609332619587, 1.8473986743095878)	(5.5430410514720325, -5.3074973785293142)	(0.55680108656582306, 7.1037815032450933)	(-0.48617424786144703, -0.72393636742309653)	1.0	slash	2.34475
16	M	A	B	M	B	A	N	N	M	8	7	shapes	N	6	False	94	(-1.4634607831141411, 2.1403249201254013)	(8.7012089498458209, 7.0651413634949272)	(7.4775008845457229, -0.64067522701010482)	(-7.0132396041780289, 5.6938600235550219)	1.0	slash	2.03997
17	N	B	A	A					A	4	2	shapes	A	6	True	94	(-6.1605629684656362, -3.0772758041086741)	(7.0847685905882898, 7.7764763864303639)	(-2.2096408997102035, 2.1726210043227603)	(1.9394287143209752, -6.9356922261842859)	1.0	z	0.871877
18	N	B	N	B	M	M	A	A	N	8	4	shapes	M	6	False	94	(3.0460114021183458, -3.376758280819331)	(1.1489601449874325, -8.6927945082530389)	(6.4186239691815103, 6.0773962396336429)	(-1.7693189782427705, -2.4977907177006182)	1.0	z	1.26155
19	N	B	N	M					N	4	3	shapes	M	6	False	94	(-2.3157729612120681, 2.6060541614182089)	(8.3084661335418843, -0.32900131069336069)	(-8.740293305262437, -8.0771036987514293)	(0.68118997898575451, 6.3366076283817616)	1.0	slash	1.97107
20	M	B	A	B					N	4	1	shapes	B	6	False	94	(1.1799105564048329, 4.427367309741653)	(-2.689024072637725, -1.1293999679481272)	(-5.6364487873781242, 1.645204623007853)	(3.6127407218015115, -2.4774163336084074)	1.0	slash	2.18655
21	N	B	N	B	A	M	M	A	B	8	6	shapes	M	6	False	94	(7.9469552205802181, -3.2390605971318971)	(-4.9157930338207496, 7.2240920204759878)	(8.0244648660716535, 4.8700082151699853)	(-2.9207614302288754, 1.566617386027378)	1.0	slash	1.67213
22	N	B	M	N	B	M	A	A	B	8	4	shapes	B	6	True	94	(-0.024371080948922597, 6.3369683140258424)	(-8.2862245744918148, 5.8017623947154888)	(7.8691385365429056, 5.8098231274229111)	(-6.2645858427630445, -3.935431897032851)	1.0	z	2.08377
23	M	B	B	N	N	M	A	A	B	8	2	shapes	B	6	True	94	(-3.4975946973376946, -7.4265932127654537)	(4.9821330262177277, 5.0299006155673283)	(-1.7609165582057997, 5.3693916961295773)	(-7.0864096052045769, -5.0749403373068791)	1.0	z	1.9433
24	N	A	N	M					N	4	2	shapes	N	6	True	94	(-8.3996317247524743, -4.1445045142479513)	(-1.5260215253463532, 4.3764281476798121)	(8.5678081491871261, -0.70706926299962092)	(8.4548214449483972, 6.9116985236368205)	1.0	z	1.17899
25	N	B	M	M					N	4	0	shapes	N	6	True	94	(-2.0138710301644922, 4.8280230740820667)	(7.5304536216928177, -6.9883364912863355)	(-4.9831728117858454, -8.0320429812609984)	(2.7268542630531236, 7.2201573171416573)	1.0	z	1.14455
26	M	A	N	M	B	B	A	N	A	8	1	shapes	A	6	True	94	(0.57109989790033922, -0.30824438759539596)	(7.777130923909457, 4.1434200216112398)	(-3.2087079743440459, -7.596638915253382)	(-3.7440279501956235, 4.2025236157218995)	1.0	z	1.16022
27	N	A	B	M	N	B	A	M	M	8	7	shapes	M	6	True	94	(2.3425283027547774, -6.2463128659123752)	(-2.5642182021734294, -2.6559400123011017)	(-3.107146863838409, 4.2456671501386012)	(-7.1021468259343585, -2.3644202090608859)	1.0	z	0.931845
28	M	B	A	N					M	4	0	shapes	M	6	True	94	(-3.2349364236340303, -0.48922245847046852)	(8.4364423590657331, -6.9809035187766275)	(1.0118545811016215, 5.0817656981890416)	(-6.3437487490439421, 6.1676532326234845)	1.0	z	1.12131
29	N	B	N	A	A	M	M	B	B	8	6	shapes	M	6	False	94	(-3.6752152026847371, 3.5239059934092367)	(5.9096682098304925, -4.7382523952264952)	(0.60669781099208286, -1.6234775369375551)	(4.5182121649000901, 6.739561449710564)	1.0	slash	1.28303
30	N	B	A	A					M	4	0	shapes	N	6	False	94	(-6.0096927278338637, 5.9453466426843384)	(-6.0087820753704442, -4.4608346130342333)	(4.2775969524106259, -0.40936737062646067)	(0.762482900414998, 5.437018710057691)	1.0	slash	1.09259
31	M	A	A	M					M	4	1	shapes	A	6	False	94	(6.2447865658417179, -4.5745918727310952)	(-3.362555265663528, -6.7723212565988922)	(3.4750313337485519, 0.66570395245848601)	(-7.1268433098328368, 2.2470080247475721)	1.0	slash	1.30038
32	N	B	A	M					M	4	3	shapes	M	6	True	94	(-3.8267496923043156, 2.1442745871986251)	(3.2539790384666727, 3.3849298397779179)	(7.2585321828939655, -2.5061716382115762)	(-4.5559991743584547, -2.3418742321486326)	1.0	z	1.25793
1	M	B	A	B					A	4	3	shapes	B	7	False	94	(1.4247350853982201, 2.7019072996380071)	(-5.2107032641231017, 3.3036676660390274)	(3.224698715869657, -8.0918438026832433)	(-0.65411967878302235, -6.494840748845558)	1.0	slash	1.36136
2	N	B	A	N					N	4	3	shapes	N	7	True	94	(4.6591474548100571, -8.4990253095987924)	(-6.2426640642662274, 4.9494224074289868)	(-1.7998285664990039, -5.8004965144347871)	(2.4590889129872497, 5.3402725456061049)	1.0	z	1.14725
3	M	A	N	M					N	4	1	shapes	A	7	False	94	(-3.1290159389300527, -2.1402858881614391)	(-2.6801045182538017, 2.3816974702265927)	(7.9687027267918431, 2.4253669176218455)	(3.585966871348365, -6.1313225703557759)	1.0	slash	1.76876
4	M	A	A	B	B	N	M	N	A	8	2	shapes	A	7	True	94	(-0.94677747408748125, 1.3370054314958484)	(4.4019070697683542, -4.092598123967929)	(-5.6589815062729389, -5.8937100112083645)	(-4.4675901752025666, 3.45868479672089)	1.0	z	1.78826
5	N	A	A	B	M	B	M	N	N	8	6	shapes	M	7	False	94	(-3.0479861515366196, -1.9397076524057164)	(3.137897882937656, -4.1088885633503462)	(-1.1319193030715802, 8.3634936016891501)	(-7.3998309346344495, 0.02850947453566377)	1.0	slash	1.60192
6	M	B	N	A					A	4	3	shapes	A	7	True	94	(-0.5304010040955891, -2.0627050870937813)	(-7.9467956966755269, 8.6793792305526196)	(5.9655967705100732, -6.208479594024606)	(4.7626113382486057, 8.2655988070486224)	1.0	z	0.836993
7	M	A	M	A					M	4	0	shapes	M	7	True	94	(-3.5266579298947356, 3.101871255531762)	(8.6631085456482992, 3.8105696908485562)	(1.830595732875123, -3.5894541989175641)	(-3.755012498313846, -5.3136327843011246)	1.0	z	0.773363
8	M	B	A	M					N	4	2	shapes	A	7	False	94	(-4.9405716422923032, -8.6804926147598778)	(3.1449967022827785, 8.0407218100506519)	(4.508846891998088, -3.7885953864245288)	(-6.9674518862959784, 1.2435242762248784)	1.0	slash	1.70098
9	M	B	N	N	A	B	M	A	A	8	6	shapes	M	7	False	94	(5.8540667275707747, -2.0147094119040254)	(-6.1207101254965472, 4.5734426019428582)	(-8.0815268662360342, 8.296150088610343)	(1.0496814689919276, 2.0679973445593944)	1.0	slash	1.15235
10	M	B	M	A	A	N	N	B	B	8	4	shapes	A	7	False	94	(0.37590500053528686, 7.2572219448786477)	(-0.7675764299902248, 1.9307280153333277)	(1.9818663156446181, -7.0418089405202045)	(-4.412887275932456, 7.9954958110524998)	1.0	slash	1.25965
11	N	B	A	B	A	M	N	M	B	8	3	shapes	B	7	True	94	(5.6152346830897493, 2.7115595197986053)	(0.90398986174971263, 4.8030132889401713)	(2.3414195594867131, -4.0094143766772445)	(-8.0496024319690864, 1.3681120415432293)	1.0	z	1.19773
12	M	A	N	N	M	A	B	B	M	8	0	shapes	M	7	True	94	(2.4702930318259355, -3.25959640433366)	(3.0730093209246139, -7.4130793969086719)	(8.5797445050120018, 7.7689491357857534)	(4.5413213426928483, 0.79752582866841948)	1.0	slash	1.22721
13	M	A	N	B					M	4	2	shapes	N	7	False	94	(5.8860206305444027, -1.5830586058754355)	(-7.5404123406063395, 0.56617195897807093)	(-2.4062885253037178, -6.9137389066078452)	(8.5539633130666957, 3.2178518900330086)	1.0	slash	1.3426
14	M	A	N	N	M	B	B	A	N	8	0	shapes	M	7	False	94	(-0.88448288351912119, 6.7584538084656653)	(-0.019566839538251557, -1.8721872061539528)	(6.1811939531154874, -8.1810503595249298)	(7.7402932660580639, 5.3001700454301002)	1.0	z	1.20666
15	M	A	A	B					A	4	1	shapes	A	7	True	94	(5.6405668554073696, 8.6020373528825402)	(-7.7909762853885516, 4.8167009373254892)	(-7.7184777832955591, -2.4671110308975894)	(5.2470504414504475, -6.8028927202820482)	1.0	z	1.3202
16	N	B	M	N	A	B	M	A	B	8	1	shapes	B	7	True	94	(7.6974223123022156, 4.9299364814139874)	(5.128673154451473, -6.0611279304141243)	(-0.64008709843255041, 2.4211519457410322)	(-2.017806545243694, -3.5306121303239539)	1.0	slash	3.45373
17	N	A	B	A					A	4	2	shapes	B	7	False	94	(1.925673644459696, 0.90658438150092557)	(-3.3635871919764684, -1.1567613570573867)	(-2.0607451160264949, 3.2154299723017683)	(1.4656240297633314, -6.0880662006269386)	1.0	slash	1.30145
18	M	B	N	B	A	N	A	M	M	8	1	shapes	B	7	False	94	(4.9182823870698247, 0.074635148471765334)	(-0.39314818287344089, 3.4667254233191169)	(-0.39505683194306407, -0.83155217285400873)	(3.2714877914314258, 5.6867351933122006)	1.0	slash	1.50677
19	N	A	N	M	B	B	A	M	A	8	1	shapes	A	7	True	94	(-0.43416937597620375, -8.0328885788293576)	(2.5856203656785812, 1.2857173773767787)	(6.1706441452758174, -2.4222911494408379)	(-5.6843233154289816, -4.9507643775493424)	1.0	z	2.20443
20	M	A	M	B					B	4	3	shapes	B	7	True	94	(6.8387431508359651, -6.3159513730009582)	(6.2567930614193763, 0.40051403715774825)	(-0.31729179145519382, -3.3171330449586574)	(-1.7135819757340247, 1.512873262153219)	1.0	z	1.19597
21	M	B	B	M	A	N	N	A	A	8	2	shapes	B	7	False	94	(4.2478693041448441, -3.8257530249298872)	(-4.4939436742751022, -5.5331848067719935)	(-6.063659496162729, 8.3867190474555784)	(-8.4037023657382406, -8.0683671827025254)	1.0	slash	2.75339
22	N	B	A	B					A	4	0	shapes	N	7	False	94	(-7.5906482088306353, 4.5068225926396153)	(3.50356142427799, -7.2268642740943818)	(-5.2102654072867498, -2.1403559815839976)	(0.087613495671817532, 6.0737601820953948)	1.0	slash	1.14911
23	N	A	A	N	M	B	B	M	N	8	7	shapes	M	7	False	94	(3.4345599306164409, 4.8975092877767974)	(-6.2293535619012594, 7.6006526341961269)	(-0.428025356428968, 1.6420136787624529)	(4.865443679453481, 8.7046615479630205)	1.0	slash	1.34274
24	M	B	N	M					M	4	0	shapes	M	7	True	94	(-2.0524564682852073, -2.895834491020568)	(5.8048979457743801, 4.7013864374493224)	(-3.9155926078423366, 2.817960639097123)	(1.4635724551441474, -7.6249046185854237)	1.0	z	1.28249
25	M	B	N	A					A	4	0	shapes	M	7	False	94	(4.9103327865923969, 4.9628062247931926)	(-8.1130453042297326, -5.0286965108989357)	(6.7961658319633891, -4.2395578232698092)	(-4.8804296095375257, 5.2866107905695348)	1.0	slash	1.11806
26	N	B	B	N	M	M	A	A	B	8	2	shapes	B	7	True	94	(7.2734516333292163, 4.510846503588672)	(6.2612801506327216, -4.620341450900284)	(-2.4204329137953593, -8.602654774156246)	(1.4161489208692544, -3.3658460193901867)	1.0	z	1.57149
27	N	A	A	N					A	4	1	shapes	A	7	True	94	(-5.0151052678303172, 0.82859722903408795)	(0.020606866016068537, 8.5653905154001073)	(8.3776360819897064, -5.5935341559629892)	(-6.7663129305623295, -8.3912863947188949)	1.0	z	1.78724
28	N	B	A	N	A	B	M	M	N	8	0	shapes	N	7	True	94	(-4.4346732615948303, -7.8655130113926806)	(-8.4126300792799178, -1.0226871374644171)	(7.0978580238724316, 0.33660290452320929)	(-3.5300370453059129, 1.8708826165426924)	1.0	z	1.28862
29	N	A	A	M					A	4	3	shapes	M	7	False	94	(-0.25300604457547671, 2.3079573020605171)	(-7.0767846852286276, -5.4192311205169865)	(6.0826905526256887, -3.3102775965513853)	(2.5564566747560509, 7.0130817926142708)	1.0	slash	1.26437
30	M	A	M	N					N	4	3	shapes	N	7	True	94	(-5.906525116546339, -6.3026074983702127)	(2.368446350404696, 7.5559120702322993)	(-6.7837247404412597, 6.4616197546088401)	(8.33091209105228, -3.6916874481064372)	1.0	z	1.98182
31	N	A	B	N	B	M	M	A	N	8	0	shapes	N	7	True	94	(7.8161420304061764, -6.7009461173328919)	(-6.0644500510349575, 1.8936233188531997)	(-6.2666604342685224, -3.582799987451355)	(0.82902729202971059, -0.240117402813528)	1.0	z	2.8456
32	M	B	N	M	B	A	N	A	N	8	7	shapes	A	7	False	94	(-3.8364047137065258, 5.4782464936496265)	(-3.1357813863784534, -4.1635437676992844)	(8.6268286700522054, -7.4827355350177793)	(-7.54811300532198, 0.26125688306069428)	1.0	slash	2.07905
1	M	B	M	A	N	B	N	A	N	8	1	shapes	B	8	False	94	(3.7703781433968597, -1.158562137638981)	(-1.6023894182483609, -5.3263235904505759)	(5.4011173456547006, 3.7071801322640336)	(-6.8592993996052147, -0.72455789820209127)	1.0	slash	1.81655
2	N	A	N	B	B	A	M	M	B	8	5	shapes	A	8	False	94	(-8.001320673967232, -0.18540503622535098)	(2.4571581816219155, -0.73042509233031438)	(6.6807989981733069, 5.4906800530777353)	(-3.9980921228004869, 2.2948697226894836)	1.0	slash	1.49048
3	M	B	N	N					N	4	2	shapes	N	8	True	94	(-7.5585599115798701, 2.7896403514692079)	(-0.57714377080111134, -0.85783723639848741)	(6.8917877858926939, 4.4620881320504893)	(0.81979312638170043, -8.4318346252385581)	1.0	z	0.983796
4	M	B	N	A	M	B	N	A	B	8	1	shapes	B	8	True	94	(7.5700280384188652, -1.3924663582489476)	(3.2793798500677287, 7.9632784568185748)	(-6.8824187616397152, -7.4318034232308001)	(4.0972444164980946, 3.7496230061814124)	1.0	slash	3.01929
5	N	A	M	B	B	M	A	N	N	8	0	shapes	N	8	True	94	(-2.4906364665135516, -3.367213769007102)	(1.5888209194753387, -0.63148344491577824)	(0.73382467756180425, -8.0360706709068435)	(-0.85269480026133238, 6.2225066089329175)	1.0	z	1.2442
6	M	A	M	N	B	A	B	N	B	8	6	shapes	B	8	True	94	(8.4545828094527842, 6.0961948823209333)	(5.1722881934470966, 0.58015870671420799)	(-1.6200631109695482, -1.2449942520682571)	(-8.0995257799253597, 3.0278634982079069)	1.0	z	1.76241
7	N	A	N	A	B	M	M	B	B	8	4	shapes	B	8	True	94	(-6.2977712840386699, -2.478374509800819)	(3.053827211045725, 0.79801329550860167)	(7.5475256399107487, -0.9552397788200313)	(-0.43224344165511752, -7.1201579298223843)	1.0	z	1.51016
8	N	A	B	M	M	A	N	B	A	8	4	shapes	M	8	False	94	(-2.9508782825289872, 1.6887484230420391)	(-2.257011861909751, -6.0999527968394531)	(-8.3387909377940268, 7.3290004977819052)	(3.886397707144603, -6.4906975574586108)	1.0	slash	1.38964
9	N	A	N	A	M	B	M	B	A	8	1	shapes	A	8	True	94	(0.77881432263831307, 1.9194983381136215)	(3.4879416405172687, 6.7148588972078507)	(6.595327098499201, -5.8655627340381571)	(-6.4729992442122679, 5.5618584940169331)	1.0	z	1.32525
10	N	A	B	M					A	4	0	shapes	N	8	False	94	(8.0408798515390885, 2.3318819818992775)	(-7.6090704424075026, 1.4692849079867294)	(0.76644458198750343, -3.8566952280370437)	(-5.7941661754731495, -4.736215092700907)	1.0	slash	1.20691
11	N	A	B	N					N	4	1	shapes	A	8	False	94	(1.0120734628375576, 8.5569282710021355)	(1.7052730740522204, -7.5629977889982971)	(-5.1199032893429983, 2.6700190599585021)	(-4.1012580923998456, -6.042826608346914)	1.0	slash	1.16057
12	N	A	B	M					B	4	2	shapes	B	8	True	94	(0.21660932043191394, 3.6816918127973004)	(-1.3681692697608634, -1.9928253133991785)	(4.0909909440992944, -6.4810168285235275)	(-7.9561279959473907, 3.0426731309188462)	1.0	z	1.42604
13	N	B	M	N					A	4	3	shapes	N	8	False	94	(-1.1139827516127365, -5.9062058302374876)	(-4.7516603469726579, 7.5279305327036212)	(5.763831550190865, -7.514082088393617)	(0.075578725920131262, 0.032430072546516087)	1.0	slash	4.54154
14	M	A	A	M					A	4	2	shapes	A	8	True	94	(8.3234171347761752, 3.9675111808824699)	(4.1069152506053914, -6.7015298155830259)	(-4.4185875408150705, -0.28725668282564065)	(-0.3633704874978676, 0.55306628831300664)	1.0	z	1.32285
15	M	A	A	M	B	N	N	B	M	8	2	shapes	A	8	False	94	(-3.5748777634786366, 6.9213229982590505)	(-8.1172491308797934, 2.5586151090580032)	(7.0891482038890441, 3.5391039435992226)	(-0.44152709671545942, -5.2992364313897875)	1.0	slash	1.24673
16	M	B	M	N					A	4	0	shapes	M	8	False	94	(-2.5297248621995125, -2.5673754539374718)	(-7.0173400030446107, 3.4495054067610464)	(3.8817076613226256, -3.7842315878977741)	(6.7344954034778475, 5.7302019594781441)	1.0	z	1.62236
17	M	A	B	A					B	4	3	shapes	A	8	False	94	(-2.1416792350875431, -1.8966627457028471)	(-5.8042641485753359, 0.39116104657419903)	(8.1752878955220609, 6.8659304909325201)	(1.6769962399781413, -5.7057906751691032)	1.0	slash	1.08795
18	N	A	N	A	B	M	M	B	A	8	3	shapes	A	8	True	94	(-1.9767405485869123, -6.2731818051185799)	(2.7570070652902317, -3.4832321853447947)	(-7.6468997129415222, 5.015679355472983)	(-1.299752825345931, 4.7148469645987454)	1.0	z	1.05944
19	M	B	B	N	A	N	A	M	B	8	0	shapes	M	8	False	94	(5.5914367208522986, 7.1324613160676904)	(0.71113096047646884, 5.5829722393045209)	(7.0623576729184396, -7.7336810587879388)	(-0.88320751883690995, -5.0746556133196021)	1.0	slash	0.893335
20	M	B	B	A					B	4	2	shapes	B	8	True	94	(1.2569130009097638, -5.1744272911405487)	(-7.4115419133801801, 3.6852145981022435)	(8.2428255555311942, 7.6026617767342231)	(-4.2844393702852788, -5.5983196872911538)	1.0	z	0.924872
21	M	A	A	N					M	4	2	shapes	A	8	False	94	(-5.6471198174551933, 3.0526806634476138)	(3.3680348738427739, 5.2287439485978062)	(4.0128963985500565, -2.1979264528508304)	(-8.3147501406933433, -6.1745008039426637)	1.0	slash	0.934114
22	N	A	N	M					M	4	3	shapes	M	8	True	94	(6.0743727337766504, 3.5054468335877917)	(-2.7781659775606862, -4.5219964832726758)	(5.834380247379686, -8.2530325118917194)	(-7.6212330447732644, 1.6933441736329868)	1.0	z	1.15801
23	M	B	N	A	A	N	B	M	B	8	4	shapes	A	8	False	94	(-8.6397056001943096, -7.3044014696598847)	(5.2388592222770942, 7.4995691216402882)	(-0.11380504503193123, -4.2778146693147034)	(-4.6126677078533191, 0.95200703422744759)	1.0	z	1.58369
24	M	B	B	N					N	4	1	shapes	B	8	False	94	(1.2412562500184912, -8.1546235009222308)	(-8.0319104830218002, 5.9261073556328547)	(-2.8602382273659979, -1.3296369804889228)	(2.7450655828494774, 7.8313493108509036)	1.0	slash	2.24523
25	N	B	A	M					N	4	0	shapes	N	8	True	94	(6.1056857677271239, 3.9854997886690544)	(-5.3681031986512, -2.0606229690626714)	(7.3195440606605899, -0.0050931563351550579)	(-1.8849430081844325, 3.7725343029238694)	1.0	z	1.79299
26	N	A	N	M					M	4	3	shapes	M	8	True	94	(7.9278911337053728, 7.3867133137157239)	(7.2073863647616339, -5.3793681173972576)	(-5.8932771151140884, -5.6699577825987983)	(-8.6475464164677653, 4.672518570247771)	1.0	z	1.58047
27	N	B	M	B	N	M	A	A	A	8	6	shapes	A	8	True	94	(-5.1187781728841317, -8.0914168285156585)	(4.8231287309352098, -4.292877616045855)	(1.6962100946565943, 4.7905490926000152)	(-3.0306993050422637, 5.7477533844556046)	1.0	z	1.44605
28	N	B	M	B					N	4	0	shapes	N	8	True	94	(1.8354236777163582, 7.7457642951619654)	(1.7010422715447664, -4.7089919947307166)	(-0.94741861336807265, 0.87691861847146413)	(-5.4221361742522181, -3.9121008215913218)	1.0	z	1.45559
29	N	A	N	B	M	M	A	B	A	8	0	shapes	N	8	False	94	(6.7256380294142417, 3.4649099574599234)	(-3.5761610455999318, 8.1789183354262569)	(-5.1461892869357655, -0.89324599387067671)	(6.7967898965893543, -3.8925304306529371)	1.0	slash	1.73906
30	M	A	A	N	B	M	B	N	A	8	6	shapes	B	8	False	94	(0.4779320819793984, 4.1421477492160435)	(1.0647917759757579, -7.0916582837021753)	(6.3568391052210398, -4.7148828896310686)	(-6.7612499389793879, -7.0445829763253087)	1.0	slash	1.75828
31	N	B	M	A					A	4	0	shapes	N	8	False	94	(7.7024251668708281, -1.7355020614921717)	(-7.0706631061530452, -4.0404427865560528)	(8.4827652140829102, 8.6751749381329581)	(-8.150619529563393, 1.4812324880941112)	1.0	slash	1.63815
32	N	B	A	A	B	M	N	M	M	8	5	shapes	M	8	True	94	(-1.5148244300165068, 0.054596646014660521)	(7.7707580863258983, 5.2600113720152848)	(5.1094749330015752, 1.6043079239062763)	(8.2032191916437007, -2.8214949533056179)	1.0	z	1.52227
