TrialNumber	stim0	stim1	stim2	stim3	stim4	stim5	stim6	stim7	stim.probe	ttl.stims	corr.num	trial.type	stim.corr	block	match	Subject	stim.pos0	stim.pos1	stim.pos2	stim.pos3	ran	resp	RT
1	N	B	A	A	N	B	M	M	B	8	2	shapes	A	Practice	False	95	(1.4185913842109539, -5.2687767716849514)	(0.22291199440278575, -1.1653300615982527)	(-1.4294112910922108, 4.5424216119713492)	(7.001370787921358, 0.836751624889148)	1.0	slash	1.89674
2	M	A	N	A					N	4	1	shapes	A	Practice	False	95	(-2.7883392552633097, 2.2723947643118496)	(-3.1913673135412797, -8.3529057011741905)	(1.5334916279592985, -3.7702311537363089)	(6.5910976465597049, 0.41236506269344808)	1.0	slash	1.20036
3	N	A	B	M					N	4	0	shapes	N	Practice	True	95	(-1.2064040030000545, 7.1627297724904935)	(-7.2341818916657896, -3.7308957979333863)	(7.8407531191614019, -2.2353721235517705)	(3.8762797271409983, 4.6893447432126134)	1.0	z	0.809975
4	N	B	B	M					B	4	2	shapes	B	Practice	True	95	(5.5406943586967703, -3.238995456145032)	(-3.9413507415811404, 2.0657469014768619)	(8.4751524997208278, 0.87270469568193931)	(-6.4951939826836078, -1.953895651833264)	1.0	slash	2.02565
5	M	A	N	M	N	B	B	A	M	8	4	shapes	N	Practice	False	95	(-7.3485578123176252, 8.3547257453862507)	(3.6503613910272641, 6.3483595665111689)	(-0.56950136534511664, 0.51872836107645526)	(5.8982324013459486, -0.38853986513097105)	1.0	slash	0.993129
6	N	A	N	A					B	4	1	shapes	A	Practice	False	95	(3.2603561268821188, 4.3967635873276443)	(-3.0888363336451645, 8.6843983763244204)	(3.9454473748259193, -0.66206768623840517)	(-2.8772998320895544, -4.2907502191403282)	1.0	slash	1.0849
7	M	A	M	A	N	B	B	N	A	8	1	shapes	A	Practice	True	95	(4.9324359339498862, -5.537440465791402)	(-3.0934566796200329, 2.1162024095727539)	(-3.1410572928718974, 6.8460443620640987)	(-3.4994075865430716, -3.3097592718525393)	1.0	z	0.88846
8	M	A	A	B	M	N	B	N	B	8	3	shapes	B	Practice	True	95	(3.1199037708853066, -8.7045087299569541)	(-8.5318777789473756, 0.95936401993906983)	(-6.8920841960566541, -6.6483217916540305)	(4.8008566260135659, -1.6810804719185031)	1.0	slash	1.30809
1	N	A	A	N					N	4	0	shapes	N	0	True	95	(-4.8855137230848937, -1.6855860771579314)	(4.6333092168500265, 6.7928116636717313)	(-4.0325704226361232, 7.0280896034948146)	(6.356583908355379, -5.8438439973316036)	1.0	z	1.02021
2	M	B	N	B					M	4	2	shapes	N	0	False	95	(-7.8645774120303713, 0.56253620645554392)	(3.8210651925617451, -2.3406510043439006)	(4.7370749739013682, 5.6814287516261732)	(-4.2675517289203029, -3.5718177545066823)	1.0	slash	1.34578
3	N	A	A	B					B	4	3	shapes	B	0	True	95	(-2.902668476188679, -4.5767699043015719)	(2.8560933045417212, -7.1331188514773221)	(-0.31723152413454692, 3.7389748560546874)	(6.4185199464182201, 7.5869741294890112)	1.0	z	0.895471
4	N	A	N	B					A	4	1	shapes	A	0	True	95	(-5.8684785998920219, -2.5175520371010025)	(4.6604294269312572, -8.437806038819831)	(-4.9023038639892125, 5.4453370033494313)	(6.9245102683929147, 0.52235121536538109)	1.0	z	0.967083
5	N	B	A	A					B	4	1	shapes	B	0	True	95	(-0.16808767137862901, -5.3194049611991048)	(7.5283421549988638, 6.9286180324411557)	(-6.8086994014999647, 4.5081048706764868)	(8.3611340896959021, -2.3657156775110968)	1.0	slash	1.06482
6	M	A	M	B					N	4	0	shapes	M	0	False	95	(5.7677825748072902, 7.116445519823035)	(-0.41121831648349527, -8.6904897282247386)	(0.15880535164163057, -2.9432109333711391)	(-2.1055704760476708, 6.1524125270207861)	1.0	slash	2.67831
7	N	B	N	A					M	4	3	shapes	A	0	False	95	(-6.4442056545833957, -7.3132619676926645)	(3.3139041880656563, -7.8290947615977355)	(-7.4219019043021426, 6.4088132907472062)	(4.4869950506500125, 4.533041085597457)	1.0	slash	1.27973
8	N	B	M	N	M	A	B	A	M	8	1	shapes	B	0	False	95	(1.1269695306445762, 2.1366119837538005)	(5.4221278788872009, 6.4180328722032218)	(5.1973350483811043, -1.0038677551656701)	(-1.3577387546089064, 7.8351330857385797)	1.0	slash	0.915416
9	N	B	M	B	N	M	A	A	M	8	0	shapes	N	0	False	95	(-8.1958033500552929, 0.78592235628496177)	(0.48744954358208226, 7.9244656599479306)	(0.24276104501293183, -3.1982721266687397)	(-4.0475148248134838, 0.50539363333167131)	1.0	z	1.75306
10	M	A	B	A					N	4	0	shapes	M	0	False	95	(0.64663700319031214, 1.9674316589822904)	(-4.0721131254030833, 1.7533406507108715)	(2.8191305942276976, -5.9634868186909173)	(-4.9657650909807023, -7.414894340787435)	1.0	z	1.0928
11	N	B	M	M					A	4	3	shapes	M	0	False	95	(-8.0525962449795667, -7.6330385594782495)	(-6.4890103642708929, 4.8069007883307471)	(7.3204122398668687, -0.030607700351970024)	(4.430937224033423, 7.7223280659161553)	1.0	slash	0.908296
12	N	A	M	A					B	4	3	shapes	A	0	False	95	(2.5944080843973421, 0.18014321541931722)	(-0.99886999625257555, 2.3092871345723509)	(-1.3408502426362459, -6.4853754315343899)	(5.2944268804533099, -8.6076967311896926)	1.0	slash	1.11785
13	N	A	B	B	A	M	M	N	A	8	5	shapes	M	0	False	95	(-5.8754477449072322, -1.6372031544560439)	(3.1891379981524661, 6.5934845505261155)	(3.2274633667461234, -6.3659030586589367)	(-2.1085651468608209, 0.26719558929662135)	1.0	slash	1.18559
14	M	B	A	A	N	N	M	B	B	8	2	shapes	A	0	False	95	(-5.5456079314473179, 0.85957516466999984)	(7.0953198208438994, 1.6662726726248547)	(5.205859178544932, -4.339277174631329)	(-0.84945679796267282, 1.5503794106074142)	1.0	z	1.57724
15	M	B	M	B	N	N	A	A	B	8	1	shapes	B	0	True	95	(2.2887064262233956, -4.608018388056661)	(-2.157527952365383, -3.0838000279285565)	(-4.431462452364495, 2.2263542984158793)	(7.4287103739130771, -1.6300109640802631)	1.0	z	1.31464
16	M	B	A	B	A	N	N	M	N	8	6	shapes	N	0	True	95	(-2.0538577653021681, -7.3772497140151847)	(4.6415777726436414, -2.4594858814792726)	(2.73305227375511, 6.0715322996178376)	(-4.9512845119449196, -1.7871072675219946)	1.0	z	1.00834
17	M	A	M	A	N	B	B	N	B	8	5	shapes	B	0	True	95	(-1.2165101677445076, 8.6681091578110525)	(1.6355690424851073, 1.4340403317040451)	(-6.0381781619161581, -1.12617643567161)	(7.3973327649425507, 1.2292155431055658)	1.0	z	1.02802
18	M	B	B	A	N	M	A	N	A	8	3	shapes	A	0	True	95	(-4.4206403766052409, 5.6258937207188175)	(7.1807648868088059, 1.6765047214822992)	(-2.3430011703916005, -1.0677362208122005)	(1.4967099503212609, 0.38136719831565991)	1.0	z	0.915621
19	M	B	M	N					M	4	0	shapes	M	0	True	95	(-4.5702660171956415, -3.9147014039157595)	(1.1676976057771888, -1.9734894903373874)	(5.2177183337610806, 5.2292259445318319)	(-4.3910116402520263, 7.9740998310541471)	1.0	z	0.863264
20	M	B	M	N					A	4	2	shapes	M	0	False	95	(7.0435787058577048, 7.6818479982893102)	(-0.64841941529637914, 1.0140685279140662)	(7.5817595472947694, -5.5760405854773563)	(-1.4381805469343441, -4.5511196458868737)	1.0	slash	1.06891
21	M	A	A	N					A	4	1	shapes	A	0	True	95	(8.6908899920277065, -8.0244077682025452)	(6.943851925590792, 2.7721118864093004)	(-7.1085057172943014, 0.82181507082807492)	(-7.8945012870730542, -5.0774033968870667)	1.0	z	0.968569
22	M	B	M	N	B	A	N	A	A	8	6	shapes	N	0	False	95	(2.1852268970986604, 6.2374392311546032)	(-7.0231695093752275, -0.28497857719879249)	(0.41734616936072122, -7.2785915566372728)	(-3.5365934000074857, 6.8056190584107146)	1.0	slash	1.09224
23	N	A	A	M	N	M	B	B	M	8	0	shapes	N	0	False	95	(5.3183755798394916, 2.8417184109009366)	(-7.5858314447047306, 1.0484572245756549)	(-2.6756779461798423, 4.8507414141676826)	(-4.2706877593568517, -3.5266705186547469)	1.0	slash	1.17397
24	N	A	A	N					N	4	3	shapes	N	0	True	95	(-4.0634779329316713, 0.48203015187588605)	(1.89098362301708, -5.3705393630194873)	(-7.7552933942379134, -6.4140949329871759)	(0.031666450959967563, 1.9107466924659136)	1.0	z	1.09335
25	N	A	A	N					B	4	2	shapes	A	0	False	95	(-2.0779343682368907, 0.79318834632856472)	(8.7028110052594947, -0.79343812223745136)	(-7.0572477345426021, -5.7883289573137819)	(3.8470022160610853, 1.3132566808370392)	1.0	slash	1.07707
26	M	A	A	N	M	N	B	B	N	8	3	shapes	N	0	True	95	(1.3893717619661246, 6.6138695909039971)	(-3.4753934439241112, 5.1996244547546286)	(-7.0543067658343901, -2.5057082814332761)	(7.4927241212473703, 3.4876256846811948)	1.0	slash	1.14686
27	M	B	M	A					B	4	1	shapes	B	0	True	95	(2.5211872039590446, 2.8564605657904476)	(0.13937672114722943, -2.1423367262656603)	(-1.5664582102109277, 3.3520562152908049)	(-0.46716024850681848, -6.2843540652263137)	1.0	slash	1.24248
28	N	B	A	N	M	M	A	B	A	8	1	shapes	B	0	False	95	(-4.0683414033178664, 4.2879256434281707)	(7.1454254981227603, -2.8908224552495385)	(-8.633609518822368, -7.638787080163647)	(8.5067039979959702, 7.2341584101795426)	1.0	z	1.15608
29	M	A	M	B	B	N	N	A	M	8	0	shapes	M	0	True	95	(-0.24792550780969869, 4.8867177731488951)	(-3.8283423359261572, 0.37755354095353155)	(-3.5048361197466891, -3.9951866309223245)	(2.9523523266684197, 0.95466022534644068)	1.0	slash	1.64916
30	M	A	M	A	B	N	B	N	A	8	1	shapes	A	0	True	95	(5.1250048550512144, -8.0076652253178562)	(-6.5490751173456179, -1.0988336376388324)	(-0.78336860644380479, 1.8802540705867266)	(-5.6771541060288424, 4.5988541765010016)	1.0	slash	1.3811
31	M	A	N	B	M	A	B	N	N	8	5	shapes	A	0	False	95	(4.6060343794249423, -5.5960966278029352)	(-1.9923175793947889, 6.921904128680465)	(7.7876201225380157, -1.1083289609108338)	(5.4368888080107567, 2.2287944954476284)	1.0	slash	0.918804
32	M	B	M	B	N	A	A	N	N	8	4	shapes	N	0	True	95	(4.3897255253256837, -6.3151205432844915)	(2.7484026861799773, 7.9800223986759384)	(6.7662701619107715, 8.5594126909770019)	(-2.9725168452905582, 0.16346584680753828)	1.0	slash	1.72422
1	M	B	A	B					N	4	1	shapes	B	1	False	95	(8.3038539430650609, -4.9081098172123045)	(0.94609758514712894, 5.4831379179998425)	(-7.874013055185209, 5.4850930415342134)	(-6.3905357804111578, -5.2006595435321872)	1.0	slash	0.726017
2	M	A	B	A	M	B	N	N	A	8	7	shapes	N	1	False	95	(6.3484845148665094, -2.1257572934285909)	(3.2447760693514738, 2.5363359361697171)	(1.2463431538286098, 6.7093152575878623)	(5.2817509041152491, -8.0882658796330595)	1.0	slash	1.10564
3	M	B	A	M	N	A	N	B	M	8	0	shapes	M	1	True	95	(7.4554995124410262, -5.6868420086605784)	(-3.5885110657869355, 7.9033361177818691)	(-6.8137768502204414, -0.75148248175040244)	(2.0333834984463319, 4.3243610678977173)	1.0	slash	1.08917
4	M	B	N	M					B	4	2	shapes	N	1	False	95	(-6.5862267512866168, 5.9706359233484889)	(7.538903618647911, 4.2408537972240126)	(2.2136643459052401, -5.7211345434286258)	(-6.0649572382694235, -3.3223309769834541)	1.0	slash	0.768941
5	M	A	A	N	N	M	B	B	A	8	1	shapes	A	1	True	95	(-0.099538056169411249, 5.3572334234412775)	(7.5290303676268699, 8.037174851632404)	(0.18885542716189718, -7.5746718232039223)	(-4.063361890492577, -1.6616845429897928)	1.0	z	0.844622
6	N	B	B	A	N	M	M	A	A	8	7	shapes	A	1	True	95	(0.20458587536599637, -8.5259779411205354)	(-1.4427970887537764, -2.8720815997166804)	(-3.8967109670751343, 2.0091994855690967)	(1.2736706630052588, 8.3815613398182194)	1.0	z	1.15228
7	N	B	B	M					M	4	0	shapes	N	1	False	95	(-5.9739415068876234, -5.324831557917487)	(1.6270775199736729, -7.1804800066640526)	(5.557784038787867, 2.3781249726959484)	(-2.8600959692562835, 8.6573265261433647)	1.0	slash	1.124
8	M	B	M	A	B	A	N	N	A	8	2	shapes	M	1	False	95	(0.46924056565982397, 3.3013219508085214)	(-1.6323874272439705, -5.0470817275258941)	(-6.1920760312506538, -3.2996575126919154)	(-3.680435904518407, 2.2389048970403156)	1.0	slash	0.879467
9	M	A	M	B					B	4	2	shapes	M	1	False	95	(-1.1841940907956534, -0.97381919622090507)	(8.7267934891858303, 1.3819409767779405)	(-5.5079667605060214, 2.6810899068967728)	(3.3535319741280638, -2.9744139614398861)	1.0	slash	0.817156
10	M	B	B	A					M	4	0	shapes	M	1	True	95	(1.7280309381034584, 6.5750030813058942)	(-5.841112054273589, -8.5234940457431012)	(4.2140111724062361, -4.2786370467383437)	(-5.2883386696732178, 0.83531187807734142)	1.0	z	1.59276
11	M	A	B	N	M	B	A	N	N	8	3	shapes	N	1	True	95	(-7.6184386095693775, 5.5319670298856813)	(2.5283586570720349, -1.6381203870024637)	(0.2763961584902539, -8.7338045488352307)	(-1.5279769331660624, 8.2673717629609698)	1.0	slash	0.990446
12	M	A	N	B	B	A	N	M	B	8	7	shapes	M	1	False	95	(-3.6481828945049539, -1.7363476129236135)	(4.1975196184522794, 6.7057184161326813)	(-5.8333316741720651, 2.1231655174046384)	(5.8429469021480607, -4.915119249770127)	1.0	slash	0.910084
13	M	A	N	A	N	M	B	B	A	8	3	shapes	A	1	True	95	(6.5718013219925826, 8.2641636707266066)	(1.5370490965515522, 1.6012993902349635)	(-2.2127143775663942, -1.1414339492942851)	(-7.9806823578134649, 0.20934261092337181)	1.0	z	1.0457
14	M	A	A	N					A	4	1	shapes	A	1	True	95	(3.4682249278311534, -5.2506878427016392)	(-7.3887322898676118, -5.2137886395919244)	(6.9440358770769919, 2.0322404937870839)	(-7.274425596936366, 0.27906311419600627)	1.0	z	1.14318
15	M	B	A	M	B	N	A	N	A	8	5	shapes	N	1	False	95	(-3.2254075267153022, -8.3201934415554426)	(6.3073734142667277, -2.8008011750407675)	(-8.3999933779186584, 2.8921828570557828)	(0.57742501979027949, -1.4629070753102598)	1.0	slash	1.26295
16	N	B	B	A					A	4	3	shapes	A	1	True	95	(-0.3148787795607948, 3.5193903162828413)	(-4.1900776920042295, -6.4793817027735381)	(8.1485599661221713, -2.8413317035647045)	(5.9493994509975359, 4.1997080034245577)	1.0	z	1.07663
17	M	B	B	A	N	M	N	A	M	8	7	shapes	A	1	False	95	(7.1218601954358292, 0.99323287082409273)	(6.9875069848668119, -5.6749327431734571)	(-0.43320534027250801, -1.9651925779279678)	(-2.8993167565320999, 4.4131346735914558)	1.0	slash	1.00217
18	M	B	N	N					M	4	0	shapes	M	1	True	95	(2.4736911901392258, 4.7187379677127286)	(-5.1034906459397575, 2.6173127226205644)	(3.3411014519240165, -6.061307149680494)	(-0.44758906084307526, -2.8956137472849415)	1.0	z	0.931837
19	M	A	A	M					M	4	3	shapes	M	1	True	95	(6.9130761650538126, 6.0002658812928189)	(-4.7453074410732734, -1.1076945904793583)	(-8.6777808878468985, 6.232127928965836)	(4.7067181454568416, -8.3556252652064913)	1.0	z	0.835544
20	M	A	M	B					A	4	1	shapes	A	1	True	95	(7.2347426775920525, -5.090558040361592)	(-2.2142793407692878, -8.38181686106204)	(-8.6272488071997255, 3.6807490489302346)	(5.8501248526602208, 3.2130240350962715)	1.0	z	1.0872
21	N	A	A	B					N	4	2	shapes	A	1	False	95	(1.6108092851871891, -4.7119071691392067)	(7.2383161977472046, 6.7979466304037093)	(-8.7182576437404151, -6.9371227459629043)	(-5.9987568792127677, 6.4899572940281356)	1.0	slash	0.728693
22	M	B	B	N					B	4	2	shapes	B	1	True	95	(-5.377017279370091, 7.4795412832413959)	(-3.9812539694021734, -1.2276902732173207)	(3.6663523432112441, 3.4870110672085257)	(3.2881844419291042, -6.4761508572950834)	1.0	z	0.9284
23	M	A	M	A	B	N	B	N	A	8	6	shapes	B	1	False	95	(3.3462149934646384, -7.1158609122428489)	(5.611251670932667, -2.8744493209702622)	(-1.6004898364719642, 6.7375223055354052)	(6.6476085863403451, 4.2758212603083532)	1.0	z	1.14013
24	N	B	B	A					N	4	1	shapes	B	1	False	95	(-5.0091839902126898, -3.7817739483569346)	(-6.7710036045712139, 5.9129826597402779)	(2.4696501208039958, 2.6035754737656784)	(7.6061159807163463, -3.7193836487181073)	1.0	slash	0.593627
25	M	A	B	M	B	A	N	N	B	8	5	shapes	A	1	False	95	(-1.2188044431295628, -4.616021759809894)	(7.584213013877406, -1.3709871155977984)	(-1.7348133459129107, 1.1408486681171173)	(-7.6297437459396678, 5.0937639907495811)	1.0	z	0.967356
26	N	A	A	M					A	4	2	shapes	A	1	True	95	(7.5276427999330977, 0.98228937218337542)	(-7.2358086465582678, -8.7120323918738301)	(0.72823246872697034, -1.3310427463520567)	(-2.3295488798277688, 8.602221803901017)	1.0	z	0.750924
27	N	A	M	M	N	A	B	B	N	8	4	shapes	N	1	True	95	(5.0543710462206892, -4.4735989772054632)	(-7.419590993368848, 8.3507293108982132)	(-5.1589309847946421, 1.1816095859929003)	(7.5525463282506422, 0.99277274657051073)	1.0	z	1.17275
28	N	B	M	B					N	4	1	shapes	B	1	False	95	(-0.092320628510101699, 5.9642606807280441)	(0.3899151863342496, -0.66026380197857115)	(-4.2907175038582643, -4.0904471795401474)	(7.7700383502735875, 3.7420495082767378)	1.0	slash	0.996424
29	M	B	B	M	N	N	A	A	A	8	2	shapes	B	1	False	95	(-3.1317384620409356, -5.3380931319302469)	(3.9909420262945385, 0.90067242744540543)	(-7.261795689604849, 2.8826228782717092)	(-2.8728928254726078, 6.5647397353924415)	1.0	z	1.57792
30	N	B	M	N					A	4	2	shapes	M	1	False	95	(5.0090004549882163, -0.30800631994526917)	(3.4577736223182676, 8.2788050349857443)	(-8.3048785120019311, 0.62692371525334245)	(-5.4044924369209877, -6.1963605999073597)	1.0	slash	0.711542
31	N	A	M	A	M	B	N	B	A	8	3	shapes	A	1	True	95	(2.8778467190886605, -4.4339286635087518)	(7.0135569220021914, 2.021788611632731)	(7.106181444439164, -2.6077588582364228)	(-7.6728749863053842, -4.6465501548854524)	1.0	slash	1.58118
32	M	A	M	A	B	N	B	N	B	8	4	shapes	B	1	True	95	(3.4038780613297615, -1.8053306460969996)	(-2.7589345915291004, 3.1483846643730882)	(-5.5463559787958125, -0.60145299055222345)	(8.4781668333006941, -1.1651823916124489)	1.0	slash	1.11684
1	M	B	M	A					B	4	3	shapes	A	2	False	95	(-7.2622176959594889, 5.2103244832793294)	(3.5160861127021814, -5.4935997750856895)	(-1.5369947237815289, -1.1813540770449009)	(8.4930678764850036, 1.8667780985186297)	1.0	slash	1.25634
2	N	B	A	B	N	M	A	M	M	8	2	shapes	A	2	False	95	(8.3292500121104531, 6.5493755423765929)	(3.8516195454978259, -4.2576592497649575)	(-2.255304650151178, -0.28460944540424116)	(-7.9754674688358431, 5.228871471562254)	1.0	slash	0.858118
3	M	B	N	B					A	4	2	shapes	N	2	False	95	(0.43798256265606739, -0.44216940127684801)	(-1.0419688234966547, -4.5429845740219337)	(-2.1031386926586695, 2.9115422426763455)	(5.8895751694555525, 6.2669812814689276)	1.0	slash	0.72765
4	N	A	A	N	B	B	M	M	M	8	6	shapes	M	2	True	95	(-6.7838047220528201, -2.8019656572763534)	(-2.3261451180401815, -1.0523640862176613)	(-6.5740859429897593, 5.8542425081819829)	(-0.50676765318718786, 3.8169132820286578)	1.0	z	1.17933
5	M	A	N	M	B	N	A	B	A	8	1	shapes	A	2	True	95	(3.7540219078371777, -8.1096392941967075)	(5.7942746843199444, 7.3294976434591064)	(-3.0473361275467621, 6.4425670369759249)	(-4.631782433003079, 2.3568682847790683)	1.0	slash	0.85295
6	M	A	A	B					B	4	3	shapes	B	2	True	95	(-6.4853580041818919, 1.115076982417234)	(6.1263896369777608, 2.0020029306823481)	(-4.2395409709926781, -3.291146813649358)	(7.9166276767729755, -7.4431350290228302)	1.0	z	0.772649
7	N	A	A	B					N	4	0	shapes	N	2	True	95	(-2.8236727042787981, 0.81575210723234548)	(1.3443685381393919, -6.119001253133149)	(-5.8343855885867635, -4.1784733580715452)	(7.7514118784516093, 1.754148622418958)	1.0	z	0.94828
8	N	A	N	A					N	4	2	shapes	N	2	True	95	(-2.0185583876625799, -1.123683957199618)	(4.3907085793332783, 2.5411894528028096)	(-6.1841017777798655, 8.6479918795902506)	(6.9349751587165223, -5.4696040001418478)	1.0	z	0.871861
9	N	B	M	M					B	4	1	shapes	B	2	True	95	(-0.19996941241458899, 7.113756170717128)	(7.9207897658415156, -8.0961260640892263)	(-1.7267891676757667, -5.4852569256066186)	(6.6846812081396187, 5.3405137057278171)	1.0	z	0.683577
10	M	A	A	M					M	4	2	shapes	A	2	False	95	(-0.094366505671979795, -5.44460554623089)	(4.0884663025071433, -5.8422195052699051)	(2.4253604580088943, 5.3528648687910074)	(-5.7138037290067354, 2.5287291774383238)	1.0	slash	0.613174
11	N	A	M	B	N	B	A	M	A	8	2	shapes	M	2	False	95	(-7.1703151835254122, -3.8917225493635392)	(-3.6007377458895524, 8.6649920358095116)	(7.8284017529600654, -2.868120750779088)	(-3.4258856269546989, 1.738644294792417)	1.0	slash	0.878841
12	N	B	N	M					A	4	3	shapes	M	2	False	95	(0.78498171495231439, -6.3505566432650546)	(5.9299406323028148, 4.5562899310277594)	(-8.3203905355500005, -2.4419747072042179)	(-6.9947429260272544, 5.7137169570686179)	1.0	slash	0.73654
13	N	A	M	M	N	B	A	B	A	8	0	shapes	N	2	False	95	(-6.130422301824999, -3.1935461816860737)	(6.9043452340052447, 7.8178219880653756)	(4.1814055860184922, -6.8267867564428908)	(7.8620225138922279, 1.9408751150359524)	1.0	slash	1.53828
14	M	B	M	A	A	N	N	B	A	8	3	shapes	A	2	True	95	(5.0109407134951649, -7.6987564581141479)	(2.5678506455032384, -3.999661902270458)	(-3.5287340079307929, 3.8415170151385514)	(-5.5794062927428225, -4.8339297135066506)	1.0	slash	0.923781
15	M	B	M	N	B	N	A	A	B	8	7	shapes	A	2	False	95	(-3.3822808882928701, -8.6781690409184815)	(7.1553673673450593, 3.9678248054836427)	(1.9650735161083812, -2.8956999826616565)	(4.2744751417660503, -8.7251671808531164)	1.0	z	0.991616
16	M	A	A	B					M	4	3	shapes	B	2	False	95	(-6.7103842422554436, -6.88107017605663)	(3.0107896590424197, -6.6091978745975233)	(-1.1072188656011104, 0.69400354189663815)	(4.1415501564791342, 2.7947707432025144)	1.0	slash	0.939143
17	M	B	M	A					M	4	0	shapes	M	2	True	95	(-7.5181899772048828, 1.1170913918947587)	(3.0898457308046563, 7.4394055754681219)	(-0.93128944603218233, -1.0145258517594096)	(2.8469815953679465, -4.3767022281213048)	1.0	z	0.768751
18	M	A	M	N					A	4	0	shapes	M	2	False	95	(-7.4275729494815668, -5.4913647727291632)	(4.9321907869592216, -4.332827319040514)	(-5.6934272808824744, 8.5251475610645464)	(5.064376044426222, 2.5578832378816116)	1.0	slash	0.67232
19	N	A	A	M	M	N	B	B	B	8	2	shapes	A	2	False	95	(-0.33207480216932517, -1.607146342211065)	(-4.9714789390440881, 5.0872958468074412)	(8.2977878700349876, -2.0659839762808136)	(-4.646909970588025, -7.8284053941343092)	1.0	z	0.782049
20	N	B	M	B					N	4	0	shapes	N	2	True	95	(4.7310684136528174, 3.868362300798724)	(1.5692515659539374, -2.8948005713959031)	(-4.0979811899846048, -8.7020474847254494)	(-6.2805395746509278, 7.3578129811567514)	1.0	z	0.731707
21	M	B	A	M	N	B	A	N	A	8	3	shapes	M	2	False	95	(-5.8441353733759795, -8.404261433482576)	(7.9100810665850609, 3.0335354182955339)	(-3.1987368219633856, -1.3544947841893524)	(3.5024746481071727, 2.9310679245174693)	1.0	slash	0.957499
22	M	B	A	B					M	4	0	shapes	M	2	True	95	(-4.4414346956011386, 0.29213617152680982)	(2.6226695099506419, 6.9551251199941522)	(0.24281729912203431, -0.023462682971468141)	(-1.4321471355242226, -4.0090741619978649)	1.0	z	0.7271
23	N	B	B	N	A	M	A	M	B	8	6	shapes	A	2	False	95	(-3.3202452082012304, 7.6280951917433377)	(4.3278693815558587, 8.5151781233109958)	(-5.1297663808993139, -0.86593139873339542)	(-5.4233793043582619, -5.5676530098137071)	1.0	z	0.874657
24	N	B	N	M					A	4	3	shapes	M	2	False	95	(-3.4797338810396949, -8.1864606075191908)	(5.3503012394074148, -8.4275048024877837)	(7.9961497470704721, 6.1485827621777389)	(-7.0085435260383893, 8.5679397645423094)	1.0	slash	0.670352
25	M	A	M	N	B	N	B	A	B	8	4	shapes	B	2	True	95	(4.4694153249422026, 4.1268256140546953)	(-4.2242705315226292, -7.5312515988639728)	(-0.73177356578976394, 8.1375832598603282)	(3.5624004448763387, -4.183359055603308)	1.0	z	0.838003
26	M	B	M	B	N	A	N	A	A	8	7	shapes	A	2	True	95	(1.5614105809206524, -7.6638810835247675)	(-0.48492191339437341, -0.68068838766144957)	(4.4317699595559734, -0.99497470703964286)	(-5.8686573440916172, 0.41229596108444255)	1.0	slash	0.851588
27	M	A	A	B					M	4	1	shapes	A	2	False	95	(-6.1375970726077167, 5.7021101471976401)	(8.1186186420421365, -6.0884142898573881)	(4.0634884695922864, 5.5084944683944546)	(-3.9935954911176008, -8.059542943346619)	1.0	z	0.859395
28	N	A	M	B	B	N	A	M	N	8	0	shapes	N	2	True	95	(-7.33341805029875, -7.9604598366734596)	(7.0507906730474605, -5.6249254143276053)	(3.2546496543209038, 7.8905317179126975)	(-4.1385328226446294, 7.9442891493004701)	1.0	slash	0.732942
29	M	B	A	A	M	B	N	N	N	8	6	shapes	N	2	True	95	(5.6965542184526505, 2.8206102524643342)	(-7.5541907903481897, -7.5818366537600497)	(-8.2290238241525646, 1.4928154734779913)	(-2.5472456529512693, 1.0726815462596679)	1.0	slash	1.64664
30	M	B	M	B					M	4	2	shapes	M	2	True	95	(-1.6367565655377234, 3.2169480840550744)	(-2.6463228736184963, -6.4202874079546834)	(1.4559084003714542, -0.56023459052822133)	(4.8944722022189087, 6.3048234074458325)	1.0	z	0.584181
31	M	A	B	A	B	N	M	N	A	8	4	shapes	B	2	False	95	(-1.7285451678882477, -5.5558350032822128)	(-5.414987157813421, 5.1870311087201078)	(-0.98941582654148341, 4.9587883530523094)	(-7.2251052744160145, -3.0822677825392857)	1.0	z	0.935837
32	M	B	B	M	A	N	A	N	M	8	0	shapes	M	2	True	95	(2.8090983272798535, 4.1012973277191218)	(-4.2613086631110386, 7.5499300795562334)	(0.26196949797361491, 7.279266356882097)	(-0.92019214631948643, -3.4595196144710538)	1.0	z	0.7776
1	N	A	A	N					A	4	1	shapes	A	3	True	95	(5.1315915494094533, 0.65914038383818152)	(-4.1396242509513916, -7.4594947989993976)	(7.2421451390847142, -7.8031930160199625)	(-3.8682259992450962, 1.3921945617433753)	1.0	z	0.577101
2	N	A	M	N					B	4	2	shapes	M	3	False	95	(-3.6188205962150972, -3.559453319241686)	(-7.4602574223699722, 7.2997822041523683)	(1.7319520015997902, 7.3325369691282809)	(6.5923432889359681, -0.1169552237015683)	1.0	slash	1.02485
3	N	A	M	A					N	4	2	shapes	M	3	False	95	(-4.2711160226141791, -5.1183967849092049)	(5.4398436720287719, 6.0660817845490822)	(2.8882801866225041, -3.9999494400731432)	(-4.8085311954108745, 1.7410581485822778)	1.0	slash	0.718532
4	M	A	N	N					B	4	2	shapes	N	3	False	95	(-4.7225291485648349, -0.96060716064245977)	(2.4700439832567049, -5.4735118836214056)	(4.6297847773251402, 8.195866509743599)	(-6.6200898335061122, 7.1724509495511732)	1.0	slash	0.600018
5	N	B	M	N					N	4	3	shapes	N	3	True	95	(7.9618523450915291, -6.5274235166066497)	(6.226166902292519, 0.088467961802523476)	(-2.3633126775590494, 7.1885487543998909)	(-4.6430990959097365, -8.4108724280698368)	1.0	z	0.98562
6	M	B	B	A	M	A	N	N	A	8	4	shapes	M	3	False	95	(5.3404822857100616, -4.5742562009547338)	(-0.81629347194770219, 2.6038483119240592)	(-4.9913718475677396, -5.0176602366372345)	(-1.0635517009850766, 8.7492759423865358)	1.0	slash	1.3855
7	M	B	B	N	A	M	N	A	A	8	5	shapes	M	3	False	95	(-4.1740939671550379, 8.4866291603842505)	(-1.0879164410831539, -2.7775797408330805)	(2.0924371275827909, 7.9357474944703661)	(-1.7219098164157884, -7.2415967887998711)	1.0	slash	0.688925
8	N	B	N	M	B	A	A	M	N	8	0	shapes	N	3	True	95	(-1.9757768638930564, -7.5188399037873985)	(-0.98131216448662517, 8.7366371753312535)	(6.1887625738319372, -2.7792499280224483)	(-6.088123762723173, -1.1454363795845621)	1.0	z	0.852688
9	N	B	A	M					M	4	3	shapes	M	3	True	95	(8.4559312992814206, 4.7296810887141785)	(-6.7821383239808952, 5.0971940391024813)	(-7.7428575369907904, -0.96851513821326574)	(0.99910615076048259, -4.8365375532280872)	1.0	z	0.732365
10	N	B	M	M	N	A	A	B	A	8	2	shapes	M	3	False	95	(-2.5135912964131686, -4.8811039830308047)	(-8.310598121183121, -6.6846398296523928)	(8.4381475734932003, 7.0801981493088348)	(-6.9952765030503841, 4.441118527480949)	1.0	slash	0.817997
11	N	A	M	A	B	B	N	M	A	8	0	shapes	N	3	False	95	(7.8334730186333417, -0.59030213779281127)	(-0.12265794036678734, -5.6524379375650273)	(-4.6987331863520474, 5.822765244941376)	(-1.3455585323149934, 2.9782336856983651)	1.0	slash	0.825739
12	M	A	B	B	N	M	N	A	A	8	0	shapes	M	3	False	95	(2.5060160503165001, -2.2885613064167449)	(3.0930555371562534, 6.9461813687059255)	(-8.1557328677171803, 8.3256730398382537)	(3.2375239989397873, -7.2845198738841059)	1.0	slash	1.08132
13	N	B	N	A					A	4	1	shapes	B	3	False	95	(3.4155921281700419, -1.9771741100801528)	(-2.9239089725268288, 4.6872375159480697)	(-3.769655648250688, -1.7582169610777925)	(6.8520398573367398, 0.90210417639496931)	1.0	slash	0.986904
14	M	A	B	B					B	4	3	shapes	B	3	True	95	(-3.0460643451435008, -1.3308906115346799)	(3.5644233832397738, 3.7848660940414582)	(-3.3004617524754893, 8.1862529371536894)	(8.3817641432343351, -5.8528578552233785)	1.0	z	0.944614
15	N	B	B	M					B	4	2	shapes	B	3	True	95	(0.97630585699728734, -4.5263667015899696)	(1.1081915893096461, 7.69126569070119)	(-7.6655529359138388, 4.9619211761045712)	(-1.9338303573810043, -0.45157554486952911)	1.0	z	0.830209
16	N	B	A	M					M	4	3	shapes	M	3	True	95	(-0.71512676854995405, 3.759909634589345)	(5.8601809994864951, 1.0561790160818152)	(-5.167148344068643, -3.7139756035909972)	(7.9140467306626441, -6.1075465185685038)	1.0	z	0.593861
17	N	A	N	A	B	M	M	B	B	8	0	shapes	N	3	False	95	(1.2494232231146487, -4.1265062170569475)	(1.5328665464175337, 8.5120049013195853)	(7.4530226320371611, -3.4790723849680871)	(-1.1993872050287822, 0.64632975203961784)	1.0	slash	0.863555
18	N	A	A	N	B	M	B	M	N	8	1	shapes	A	3	False	95	(0.25195585491100125, -7.1660984526392957)	(-6.9119972327925305, 0.35404254996658935)	(6.1956011170865608, 7.5679077560604604)	(-8.6395316194137557, 6.4696083951326262)	1.0	slash	0.719171
19	M	A	N	N					M	4	1	shapes	A	3	False	95	(-0.88930659013190994, -1.5324617800263844)	(-0.59134271771183933, 3.5989684756527165)	(7.7531617638902297, -1.1977809686579572)	(6.8923463026468994, 6.056495722193187)	1.0	slash	0.712803
20	M	A	M	B					M	4	3	shapes	B	3	False	95	(4.2932598628107232, 4.7097571937066682)	(-8.5023080628351657, -4.5913304805118038)	(8.3062419885693188, -4.5813016139066391)	(-6.1040405412391738, 0.1868777500796952)	1.0	slash	0.636605
21	M	B	N	M	B	N	A	A	M	8	0	shapes	M	3	True	95	(-1.7949608754994273, 5.6453390969345847)	(3.1885780485299744, 2.2361682643132088)	(5.4792403040097355, -7.2560636896660986)	(-7.0949900883041037, -6.8354814463440192)	1.0	z	0.810122
22	N	B	B	A					B	4	1	shapes	B	3	True	95	(5.1584030125438751, -5.4267485870870438)	(-1.0376400439367579, -6.6675266434545559)	(-2.1844574874400156, 5.5969017376449237)	(2.2499495350190291, 3.9448829124310549)	1.0	z	0.809795
23	N	A	B	A					N	4	1	shapes	A	3	False	95	(-2.8978467450994234, 0.82764367170945619)	(8.2684318797764078, -1.0451729760166515)	(-8.4000619804703689, -0.04364342829319412)	(2.198235877656554, 2.8116736804900686)	1.0	slash	0.68139
24	N	B	M	M	B	A	N	A	N	8	6	shapes	N	3	True	95	(-6.4953231701649283, -3.3020458877810794)	(1.0555012261617591, -7.6043016727897585)	(5.2633750334446407, 3.7988574081451638)	(6.9197195676758145, -8.4528452914780843)	1.0	z	0.757224
25	N	B	B	M					B	4	3	shapes	M	3	False	95	(6.6113104301887322, 7.3730365047382342)	(1.2978361728747814, -0.61588167837137675)	(-3.9910691916836427, -6.3378591493787848)	(-7.0843145826401042, 7.6061021139751723)	1.0	slash	0.568682
26	M	A	N	A	B	M	N	B	M	8	0	shapes	M	3	True	95	(-4.7046491432676705, 4.8852661193935774)	(-4.6503082741648418, -7.1438093015201725)	(0.78260954921842796, -5.2160156532799853)	(6.2811891865600895, -2.9510872804379149)	1.0	z	1.01253
27	N	B	A	A	M	N	B	M	A	8	2	shapes	A	3	True	95	(-5.8411838846991007, 0.875521182991152)	(0.62358326701844824, -3.5150037390309228)	(2.9852289089492192, -7.370950226997266)	(-0.38659964120365586, 3.1643472266515165)	1.0	slash	1.47795
28	M	B	N	N	B	A	M	A	A	8	7	shapes	A	3	True	95	(-5.891728674123808, -3.4255873781380854)	(2.0797078602745032, -6.535560181596396)	(6.2047503002625, -1.4038266135829716)	(6.5587872453947753, 4.8841233178663028)	1.0	z	0.795724
29	N	A	A	N	M	B	B	M	N	8	0	shapes	N	3	True	95	(-2.5737849225601446, 7.880448382495981)	(0.91412743958392539, 2.1307048911425088)	(2.918168878869853, -5.6202493575549415)	(7.3581875196728532, -1.4710537318156796)	1.0	z	1.13734
30	N	A	N	M	B	M	A	B	A	8	2	shapes	N	3	False	95	(2.4278055015021991, 5.5834817865431816)	(-5.7480652096223501, 5.245972159731572)	(-2.9019134914411557, -4.2035786422349561)	(-5.8745457406213113, 1.0657540386444833)	1.0	slash	0.891041
31	N	A	N	M	M	B	B	A	M	8	3	shapes	M	3	True	95	(-0.38760058600050051, 7.2863441873208004)	(7.913707769466658, -7.5320379668115978)	(-2.5467987330482593, -5.2632218653242369)	(6.571172592358316, 4.3146539560894421)	1.0	z	0.958803
32	N	B	N	M					M	4	3	shapes	M	3	True	95	(-0.35058176369209271, 7.240415819285694)	(7.2979963328850133, 0.83930221120040116)	(2.1656615057058666, -3.7211798402453482)	(-7.5159007361721635, -5.0347704264805238)	1.0	slash	1.00838
1	M	A	B	N	N	A	M	B	A	8	4	shapes	N	4	False	95	(4.6822538321557055, -1.6272615030702475)	(-5.8307744597417059, 6.2348133884606458)	(-2.4740548668106763, -3.6721059943356371)	(5.7071461451195535, 5.5097516586342756)	1.0	slash	0.634077
2	N	B	M	N					N	4	0	shapes	N	4	True	95	(-7.4536695611277137, 4.3323764831637082)	(2.5324579561602949, 4.6111698826906444)	(0.53921398060429837, -8.3799988901366209)	(-2.3161678309148916, -0.81927221213498935)	1.0	z	0.685495
3	N	A	B	A	B	M	M	N	A	8	6	shapes	M	4	False	95	(6.2446077580291259, -4.4885701791052837)	(7.7330240499840066, 6.3975758676426224)	(-6.074954552056326, -3.1890507637584822)	(-1.8168749292174704, 8.691772217057963)	1.0	slash	0.785242
4	N	A	N	B					B	4	1	shapes	A	4	False	95	(-2.7920858823255994, -0.15632652949573789)	(0.26685119181215988, 8.5144734736351211)	(-6.0254304605846905, 6.4896558980337726)	(3.2360922762626281, -2.6649242286188306)	1.0	slash	0.63893
5	N	A	B	M					A	4	1	shapes	A	4	True	95	(6.623754496980446, 1.2945346279420367)	(-6.0428509090919267, -7.2208677399521486)	(-6.5818339837020785, 0.1680568131341964)	(1.8556464535235744, -4.7431672814353734)	1.0	slash	0.952469
6	N	B	N	M	M	B	A	A	A	8	7	shapes	A	4	True	95	(2.2671626604005795, -2.3670599480309633)	(-4.1326672476545339, -0.43394158954636275)	(8.355525540046294, -6.6389172496163944)	(-7.919769564594386, -8.0649962815283995)	1.0	z	0.869708
7	M	B	A	B	M	N	N	A	B	8	1	shapes	B	4	True	95	(1.3238980292472693, 2.2209707402561598)	(-2.3129433484928974, -1.7328789851966881)	(6.1488572190169783, -2.6170823184730265)	(-2.6480163534430421, 6.126899786005815)	1.0	z	1.3257
8	M	A	B	N	A	B	M	N	A	8	1	shapes	A	4	True	95	(2.7790425430369528, -4.4130498935046125)	(-1.8275360765782596, -7.2740054311347748)	(-2.3877915444198621, 5.1903103564342867)	(-8.3252748874488827, -3.0973850720462455)	1.0	slash	1.28131
9	M	A	N	B					N	4	1	shapes	A	4	False	95	(5.0859353381504082, -4.0443242028631472)	(6.8265292273936442, 7.3540187031891513)	(-3.6716017481650356, -5.1293149868818837)	(-4.9918921291052101, 8.0741047364333873)	1.0	slash	0.659027
10	N	A	B	N					N	4	2	shapes	B	4	False	95	(6.9209886984017537, -4.5062153387489516)	(0.26560511579954493, 8.0797523736530295)	(-6.2433810335405244, -2.4771706746757447)	(-5.4510821681091333, 4.1234443007198376)	1.0	slash	0.680685
11	N	B	M	A					M	4	3	shapes	A	4	False	95	(5.6379537330034157, 2.3855005001971872)	(5.2274207264256436, -1.7903485071045839)	(-1.2477149956754854, 2.4747014322684784)	(-1.5203717234754173, -4.3339734280285738)	1.0	slash	0.586483
12	N	A	M	A					A	4	0	shapes	N	4	False	95	(-4.2994415216429678, 4.4123406041030808)	(1.3995411058272271, 3.8885827413334262)	(0.12147281568368662, -6.7988618845558433)	(-3.6163147604028181, -2.2996084399638566)	1.0	slash	0.552171
13	M	A	A	N					M	4	0	shapes	M	4	True	95	(-5.2102255093299048, 2.2369970289076413)	(-1.4391488025206449, -2.1582488081017832)	(7.835431039350798, -1.0297120546054845)	(7.3622914860718147, 5.0820486626597692)	1.0	z	0.71591
14	M	B	A	N	A	M	B	N	B	8	2	shapes	A	4	False	95	(-4.6194188752238929, -8.0977877938402134)	(1.0377304270940186, 6.8858374303270313)	(7.8384535472624819, 4.3562728041747185)	(-8.521359097934857, -4.8250265481684309)	1.0	slash	0.809499
15	M	B	B	M	N	A	A	N	M	8	3	shapes	M	4	True	95	(0.020730877001394532, 1.7017315601694047)	(3.0303669594274716, 4.7941742947001362)	(-2.3181333675769, -7.9194393610522056)	(-5.8740494267113252, 7.5159113859620525)	1.0	z	0.77309
16	M	A	B	M	N	A	B	N	A	8	3	shapes	M	4	False	95	(-4.9651308233835172, 6.220764656318627)	(3.1667757699766739, -5.6839252359773216)	(6.7096076408356851, 3.0825789317856422)	(-3.40163320842204, -2.996678591142671)	1.0	slash	0.566775
17	M	B	N	N					N	4	3	shapes	N	4	True	95	(-5.6762580962271283, 0.57203889299613842)	(2.8212947488511944, -3.0447779782818936)	(0.44297365302071157, 5.6929133436552615)	(-0.59068776628063446, -5.5482246777422413)	1.0	z	0.79254
18	M	B	A	A	N	M	B	N	A	8	1	shapes	B	4	False	95	(-2.0646629890299213, -3.2107311760890545)	(1.2555550042234245, 8.3888750973243802)	(5.8409367393455831, -1.2094417797893335)	(6.2059201530896431, 7.0101231949179912)	1.0	slash	0.926165
19	N	A	B	A	M	M	N	B	M	8	4	shapes	M	4	True	95	(1.1658063651725712, 8.3447765564527714)	(-7.0243374960297791, 3.9605265394251337)	(-7.1556397614789962, -1.9076359093364994)	(0.58433950744831975, -3.4002919802480918)	1.0	z	0.865704
20	M	A	B	A					M	4	3	shapes	A	4	False	95	(1.0028708873722394, -1.1962801007155592)	(4.0140165557312564, 5.6045138073027658)	(-2.566678894443406, -3.4148681654818027)	(-0.77224301216793112, 6.9097001920500496)	1.0	slash	0.703332
21	M	A	N	N					N	4	2	shapes	N	4	True	95	(-3.4077642411166131, 0.72600327454182434)	(-0.81433679941171366, -4.6606628122592628)	(3.2164484092416217, -0.062422206141873104)	(5.2501913972003784, 3.9691399628142641)	1.0	z	0.781048
22	M	B	N	A					A	4	1	shapes	B	4	False	95	(5.7914624422111221, -1.5146170510484991)	(-0.94509000837145152, 5.1745591166672966)	(-3.0350492915693543, -7.7118868840595436)	(7.2170644456900543, 4.231795020343327)	1.0	slash	1.35471
23	M	A	A	B	M	B	N	N	N	8	3	shapes	B	4	False	95	(-0.46319413596849301, -7.0243662715643085)	(-1.3448265629652232, 3.3335758906699322)	(6.2007935053609096, -3.6594284755961484)	(6.5064982846730199, -8.5463282843283608)	1.0	slash	1.00039
24	M	B	A	M	N	A	N	B	B	8	3	shapes	M	4	False	95	(-4.5514683862143759, 4.7830506576348721)	(0.28054216721615077, -6.6599285649756048)	(4.7033989737422814, -7.6079942161209111)	(5.7241850066718225, 2.5737868664643475)	1.0	slash	0.917892
25	N	A	A	B	N	M	M	B	B	8	7	shapes	B	4	True	95	(7.3489803013735937, 0.97823565825456704)	(5.1568372803147238, -4.3901675418403441)	(-5.2597109445923174, -7.9406756618658552)	(-5.1368178706300345, 4.4623771839636817)	1.0	z	0.715388
26	M	A	B	A	M	N	B	N	B	8	6	shapes	B	4	True	95	(-1.8565164544401842, -0.46135316909179913)	(2.8492018283039471, -8.4411421780805291)	(-5.3933347419964148, 1.9783272937336118)	(5.103512055623753, -0.44246135414976528)	1.0	slash	0.809065
27	M	B	B	A	M	N	N	A	M	8	7	shapes	A	4	False	95	(6.9482327058365065, -7.2003885316551601)	(-6.6374942392627414, -0.41778738166861551)	(0.51763834308943402, 6.7932329761365473)	(0.50934206464822118, -0.73489189477565198)	1.0	slash	0.764816
28	N	B	M	N					B	4	3	shapes	N	4	False	95	(3.0812398993958983, 5.9706478405034797)	(5.2932207010987646, -1.4611090187670541)	(-1.7917785351367215, 3.597299910795611)	(-3.0283053201714196, -0.39899854430011672)	1.0	slash	0.566598
29	M	B	M	A	B	N	A	N	A	8	6	shapes	A	4	True	95	(4.8814558122628053, -0.65079278214141567)	(4.0349528045985039, -4.6112233066300057)	(1.2508361649708402, 1.4267352049646611)	(6.8816416600622503, 8.3548653856806183)	1.0	z	0.818195
30	N	A	M	N					N	4	0	shapes	N	4	True	95	(-0.9228624442630915, -2.6003052749597737)	(6.1529601102587748, 4.0669304750006212)	(8.6324758910508876, -1.651527759996954)	(-3.5844500575361815, 4.1682517842597679)	1.0	slash	0.599757
31	M	B	B	M					M	4	3	shapes	M	4	True	95	(0.020038244636081615, -1.8865410876716302)	(-7.351032943491, -2.1405155020295874)	(-3.3520713161199014, 6.3512104115970551)	(3.0647384809110534, 8.0412393269201274)	1.0	z	0.705626
32	N	A	A	B					N	4	0	shapes	N	4	True	95	(-6.0545512100965269, 4.1806933852069417)	(-6.9122774970958405, -7.2151925798075114)	(6.4514822918613497, -6.3096638519847943)	(6.156866704188463, 7.9853077581472647)	1.0	slash	1.03917
1	M	B	M	N					M	4	0	shapes	M	5	True	95	(0.82781493503238934, -3.7614576542812639)	(6.0305012424622095, 4.5152072386382525)	(-6.733337621896597, -5.5011747365905999)	(-8.4242981274039526, 0.50245939729742162)	1.0	z	0.682899
2	M	A	N	A					N	4	0	shapes	M	5	False	95	(1.6689633268607569, 3.3105339177682982)	(8.5399203989460659, -6.4501750350802354)	(-5.1745606022016775, -6.2316493266456021)	(-7.7338674542833257, 3.0805354057471099)	1.0	z	0.828405
3	M	A	A	B					A	4	3	shapes	B	5	False	95	(-8.025695214176972, 1.9827264874153023)	(2.7818556310435749, 1.6964884659902602)	(-1.4203488658682399, -0.035531844522488143)	(3.2896070482280191, -5.6615920759869418)	1.0	slash	0.944226
4	N	A	B	B	A	N	M	M	A	8	4	shapes	A	5	True	95	(-0.02206481263401372, -0.39023073976737166)	(-2.8547876429562171, 5.8730067680206623)	(7.9326183342460936, 0.54575915586899093)	(-7.5512421486123742, -8.0671062089749963)	1.0	z	1.1598
5	N	B	M	M					M	4	2	shapes	M	5	True	95	(1.7533657870032133, 0.88989643280979536)	(-5.3228772959339583, 0.46393015919910141)	(-0.93208633218077974, -5.1317755850858298)	(6.438546133277308, -0.26335596998463551)	1.0	slash	0.86542
6	N	B	M	N	A	A	M	B	M	8	1	shapes	B	5	False	95	(-2.2426156980043004, -5.0680267951187243)	(-5.6917555112068001, -1.7989246175361346)	(5.3087559849747983, -1.9355478458946829)	(8.7327828017269127, 4.5849162529085827)	1.0	slash	0.777118
7	M	B	B	M	N	N	A	A	N	8	6	shapes	A	5	False	95	(-4.3370676382105966, -5.1185834450248269)	(4.1473329529088545, 5.5239558317656758)	(-5.042301954258015, 1.0461728824456404)	(2.9751042481296395, -1.4150428263579942)	1.0	slash	0.818637
8	N	B	A	N	M	A	M	B	N	8	0	shapes	N	5	True	95	(8.7070604261249471, -6.5687220149080021)	(3.9815698999608422, 2.8699580557597582)	(-8.1265277132702973, -5.67293676188409)	(-3.609118690719872, 7.5590680337760361)	1.0	z	0.924334
9	N	A	B	N	B	A	M	M	B	8	2	shapes	B	5	True	95	(2.5041484916365224, -5.421608157191951)	(0.51628708448585492, 3.1940891632765549)	(7.758825098504925, -4.0669985582097858)	(-4.9918525656397463, 4.4007789228436547)	1.0	z	0.81601
10	N	A	N	B	B	A	M	M	A	8	0	shapes	N	5	False	95	(-8.55195231631164, 1.8809333273275897)	(-0.34007547999899046, 5.4963839180906913)	(-2.1158682024501481, -8.0852101828602141)	(7.3660932237076722, -4.2548030596585429)	1.0	slash	0.82554
11	N	A	M	M	A	B	B	N	N	8	6	shapes	B	5	False	95	(-5.5245864513983918, 1.5904013351550859)	(-8.3114513417261087, -3.2986585318463089)	(5.1318435288646924, -6.8158331869605027)	(5.8973629619446335, 3.2513742563234356)	1.0	slash	0.721349
12	N	A	B	B					N	4	2	shapes	B	5	False	95	(-3.7004288636903739, -8.204030007856181)	(2.4567457326847748, -3.2589477977514871)	(7.9760198224113097, 5.2107919339938373)	(-6.8608703873102144, 7.9355926376420847)	1.0	slash	0.626927
13	M	B	N	M	B	N	A	A	M	8	0	shapes	M	5	True	95	(-6.3835687897753282, 1.1238703259280456)	(-2.5002688903799859, 3.546174273287706)	(-2.0607209909175106, -7.3927992174193182)	(6.3987353808981915, 0.72264998030211025)	1.0	z	0.930665
14	N	B	A	N					B	4	2	shapes	A	5	False	95	(-5.5116932026976704, 1.9630330529515785)	(3.8058833226793816, 0.41882256101028759)	(4.3855439525942348, -8.1916929956279088)	(-3.7961003515753182, -6.9841447772172671)	1.0	z	0.681881
15	M	A	M	N					M	4	2	shapes	M	5	True	95	(6.0295053228220681, 2.8235757909301302)	(-3.692316903051803, -3.2204744683517914)	(-0.95018650043340713, 4.4996910319665435)	(3.564349067127095, -6.4102477333482728)	1.0	slash	0.843948
16	N	A	M	A	M	N	B	B	B	8	5	shapes	N	5	False	95	(2.4438268671527243, 7.4131952915056196)	(-6.8791742108484399, 6.3733821245790363)	(-6.6776846330555211, -5.7237231008985603)	(4.5279800828300285, -6.2113014200655661)	1.0	slash	0.99165
17	M	A	A	N	B	B	M	N	M	8	6	shapes	M	5	True	95	(5.0631014946936226, -7.2600108656647393)	(0.54363544530007424, 1.6252493933225498)	(6.8607691298580384, 2.9487969970087686)	(2.1364490762925836, -3.9185987223296159)	1.0	z	1.01331
18	N	B	M	B	A	A	N	M	A	8	5	shapes	A	5	True	95	(3.7178450379184156, -0.24170275375112027)	(5.7780786553077448, 6.6310047585741607)	(6.415999476886272, -6.8674315760219624)	(-6.6119677662780276, 4.8829378287044314)	1.0	slash	1.12689
19	N	B	M	N					A	4	2	shapes	M	5	False	95	(-0.37752968597106396, 4.2968467892408579)	(-4.6349702875716741, -8.6547984037419727)	(7.2980637543217419, -1.465839435942895)	(7.5220743194383779, 5.4910357617494228)	1.0	slash	0.616535
20	N	A	B	M					M	4	3	shapes	M	5	True	95	(0.16960567166301743, -5.9482587013129873)	(1.8281562495180399, 8.2617876475475427)	(-3.76130627535162, 6.8248778067070983)	(-5.300568052919175, -8.0374683560516615)	1.0	slash	1.12023
21	M	B	B	M					M	4	0	shapes	M	5	True	95	(3.128960570632275, -0.0095856970437377953)	(1.6135726991029102, 8.3228773409236254)	(-1.6500854768618556, 0.5781897257904518)	(-7.5618513258708315, -1.5299300423458977)	1.0	z	1.16976
22	N	A	N	A	B	B	M	M	B	8	7	shapes	M	5	False	95	(7.2265834648730696, 4.35041814820136)	(-1.4343182712130211, 1.2932265700800087)	(-4.1367858316724719, -8.2494608792929718)	(-2.403555159401634, 5.7108410408664891)	1.0	slash	0.989401
23	N	B	N	M	M	B	A	A	M	8	1	shapes	B	5	False	95	(-2.6410341664482111, 6.8961868947253091)	(-7.7600720459320041, 3.0978289489485977)	(8.5225536831739426, 3.6313998252362509)	(-5.7320263025070428, -5.3320665609850693)	1.0	slash	0.677017
24	N	B	N	B					N	4	2	shapes	N	5	True	95	(2.6550304518137544, -8.2226255664379462)	(0.44302157699250344, 1.6890487725775518)	(-7.2415410428132283, 8.5505521037713379)	(-2.6148116089501947, -5.9368014374318925)	1.0	z	1.00076
25	N	A	M	N	B	A	B	M	A	8	5	shapes	A	5	True	95	(6.0505466636959842, 3.8316235930324485)	(-5.7812823268495652, 4.3403106852285518)	(-2.378167036188886, -0.74347026670363014)	(3.3150956120095092, -4.2431777032626536)	1.0	slash	1.10242
26	M	A	B	B					N	4	0	shapes	M	5	False	95	(-4.6672007175363177, -5.040358410161855)	(2.9520945494670361, -6.4825422095240182)	(2.6817072298902591, 3.2464216636438721)	(-2.6614081615100913, 1.6880476982807213)	1.0	z	0.763913
27	N	A	M	N					A	4	1	shapes	A	5	True	95	(-4.1278277059507804, 1.3793772526775037)	(4.8095909988912418, -1.9016012939557676)	(-5.7820256565208457, -3.0124459759378235)	(1.5915126639938926, 8.3784664589931026)	1.0	z	1.02166
28	M	A	B	M					B	4	0	shapes	M	5	False	95	(-0.63570036945291264, 0.51126620594966532)	(2.7986566175534087, 4.8039623796505904)	(-5.3310944856016613, -6.0917754239012902)	(7.1781401368369995, -6.9852269594270915)	1.0	slash	1.40322
29	M	B	A	A					M	4	3	shapes	A	5	False	95	(3.5655683176373252, 1.1568119446096041)	(3.171932421036459, -3.5413703412957016)	(-5.5611342521498344, -5.7821308782709959)	(-7.3436188295560205, 4.3470086270959207)	1.0	slash	0.556938
30	N	B	N	M					N	4	2	shapes	N	5	True	95	(-1.5788676795580798, 0.36209382533065693)	(6.2229190608204785, -6.1895217029186469)	(-4.0543911491713267, -7.4396736026865966)	(5.4926960248204146, 5.8279183861178065)	1.0	slash	0.976657
31	M	B	B	A	A	N	M	N	N	8	7	shapes	N	5	True	95	(-3.0747113407676752, 7.3415635628485028)	(5.0696864621991651, -2.5799540098109315)	(0.52460673591607865, -1.0408329370982701)	(-1.2946655311867064, 3.1978419024192597)	1.0	slash	1.29237
32	M	B	B	N	N	M	A	A	M	8	6	shapes	A	5	False	95	(5.6595048171207694, -7.9740887229117474)	(-4.5270663566676017, -2.4365566049554177)	(-0.43242627398203659, 0.63426622017966316)	(3.2038268377167345, 5.6469768258509099)	1.0	slash	0.701838
1	M	B	N	A					N	4	1	shapes	B	6	False	95	(-3.095547206888499, 5.0699332961340975)	(6.1805133093240965, -4.2994003836969998)	(-4.1472148453464168, -6.3410733752057382)	(5.5893782415897366, 2.8916616255539864)	1.0	slash	0.683542
2	N	B	A	M					N	4	2	shapes	A	6	False	95	(6.0114599796716828, 7.0784312657397752)	(-6.2418095552417538, 0.32682734928127744)	(-0.57474651061790638, -1.8479122753035915)	(5.5284326233346164, -4.840788268412215)	1.0	slash	0.733185
3	M	B	A	B	M	A	N	N	M	8	3	shapes	B	6	False	95	(-5.2185540756922322, 1.3849951781124386)	(5.6528684459534997, 0.86821723173931176)	(0.92315250411280658, 7.6578041431847232)	(-6.088895806525902, -4.6986060201920719)	1.0	slash	0.614966
4	M	A	M	N					B	4	2	shapes	M	6	False	95	(-8.180178849038354, -2.3676308540961957)	(3.7701067501202647, -5.1335087641907187)	(-3.6979596371460293, 6.8713407664090269)	(1.3418419631191583, 6.4083146377462299)	1.0	slash	0.566483
5	M	B	B	A					B	4	1	shapes	B	6	True	95	(6.2563891654746246, 0.168185871724706)	(8.0914766594267071, -5.2782124826141636)	(-1.0012271248615212, 6.5975267533052246)	(-1.6069286207229396, -6.437546089232173)	1.0	z	0.9762
6	M	B	M	N					A	4	3	shapes	N	6	False	95	(3.4829597748738781, -3.4032860141671355)	(-1.9207186557869855, 6.8263667465418667)	(8.0370896169434545, 1.7676079446128856)	(-0.72925980194646733, -6.4255914824576852)	1.0	slash	0.583853
7	N	A	M	B					B	4	1	shapes	A	6	False	95	(-8.6518832648214374, -7.8698623167583799)	(-6.2335115293063135, 3.262254432353993)	(6.0232674142085063, 3.7943407221693626)	(2.8914698212791574, -0.8650961916200508)	1.0	z	1.05353
8	M	A	A	B					B	4	3	shapes	B	6	True	95	(-0.79888485550223987, -3.3352182892273134)	(-2.6758258693509749, 5.2087195523046113)	(6.5413488432834654, 6.2721726649011131)	(3.8473886253879694, -6.4253550481890365)	1.0	z	1.07717
9	N	A	M	B					M	4	2	shapes	M	6	True	95	(-3.453121082464655, -4.9400124770867375)	(1.3184164785064763, 3.7719918780607493)	(5.6932340829572095, -0.32740607960673174)	(-2.4444873952813309, 1.4241488070493968)	1.0	z	0.704839
10	N	A	A	N	M	M	B	B	M	8	5	shapes	M	6	True	95	(-0.86644026052205181, -7.6240522995783264)	(6.9076338862485507, -4.3837689502272061)	(1.0813968646050842, 4.6486522431935295)	(-1.0874335128449166, -0.20668473384310815)	1.0	z	1.03244
11	N	A	A	M	B	N	M	B	A	8	2	shapes	A	6	True	95	(1.1236779811264839, 1.3961787151650107)	(0.86677125880621908, -2.8255330497715159)	(-5.5321361578257466, 5.462295877891)	(5.8590419528587212, -7.9435254584035135)	1.0	z	0.902103
12	N	B	B	N	A	A	M	M	B	8	4	shapes	A	6	False	95	(1.9393177587686381, 3.1984605084182789)	(-4.5995378512979972, -6.9219877118320481)	(-3.8518860192402169, 4.3027697332430694)	(8.1956977315480195, 5.6006680166197942)	1.0	slash	0.979551
13	M	B	A	N	B	M	N	A	N	8	7	shapes	A	6	False	95	(3.1935994573011062, 0.80511742745226833)	(1.4906455245090626, -5.2599835455355253)	(-2.9180767884656538, 6.76815604364214)	(8.6667649152720792, 3.8578136025993182)	1.0	slash	0.653177
14	N	B	A	M					A	4	2	shapes	A	6	True	95	(1.8881558625363386, -2.504914087737264)	(-4.4547279090334309, 3.8372256326160574)	(-3.8794735975091799, -5.0218181202954728)	(6.5862107997223873, 2.9732336741230636)	1.0	slash	0.948996
15	M	B	A	M	B	N	A	N	N	8	5	shapes	N	6	True	95	(2.9898100696799368, -5.7116551126151158)	(-1.048035340066769, -5.6154147044978089)	(-7.9744745163520712, -2.9526359191042557)	(1.8836156745968715, 0.76779605039481602)	1.0	slash	1.12463
16	M	B	N	B	N	A	A	M	M	8	0	shapes	M	6	True	95	(7.044008677222898, -1.1164263263054517)	(-5.6823728737132804, -3.3748686130087489)	(2.6912530783676853, 7.5508067413960198)	(1.6654034175972505, 0.6355569598752222)	1.0	z	0.760184
17	N	A	M	N	B	M	B	A	A	8	1	shapes	A	6	True	95	(-6.3415260768089468, -1.6307790588345794)	(-7.4721952202052897, 7.871640469193796)	(0.2437995122193044, -3.0590001756819154)	(5.0703389973826436, -7.1527466567030142)	1.0	z	1.04587
18	N	B	A	N	B	A	M	M	M	8	0	shapes	N	6	False	95	(1.3601666428962602, 3.9079012060985647)	(6.2418753920693462, 7.4728219880496809)	(0.9491515819858396, -6.3905873996420528)	(-7.3928885316025941, 6.2195541405121411)	1.0	slash	0.84158
19	N	B	B	A	M	M	N	A	B	8	3	shapes	A	6	False	95	(-2.1213300327584168, -5.1763128026045617)	(-7.6484332423660817, -3.018215037757102)	(8.0927888740505267, -8.124246378534556)	(0.64281979878800755, 3.2399833141225969)	1.0	slash	0.829119
20	M	B	M	B					M	4	2	shapes	M	6	True	95	(7.1578527114252211, -7.0903157232500522)	(0.90900351573859517, 6.0612222092320973)	(-3.4832704794901037, -7.1365358464409603)	(-3.8779170161115006, 7.202814486313132)	1.0	slash	0.966813
21	M	B	M	N					M	4	0	shapes	M	6	True	95	(-1.0692423899755221, -3.4016911013651345)	(6.3269075297237354, -7.4434045028131841)	(5.9569051267707529, 0.17042096010226082)	(-6.02714692167023, 6.5536202548433717)	1.0	z	0.800573
22	N	B	B	M	N	A	M	A	N	8	7	shapes	A	6	False	95	(0.01286900357652776, 2.3918173763132469)	(5.0070781050301072, -3.5397220017626028)	(-4.1676370478806337, -2.4181055068656336)	(-7.8790973371958239, -4.1790628749161032)	1.0	slash	0.856185
23	N	A	M	N					N	4	0	shapes	N	6	True	95	(-7.7692453307727654, 6.690774530370927)	(-4.470207310139882, -0.70063192398501606)	(4.4134680172315122, 3.0357923496425201)	(5.3699872096057284, -6.9000400150070398)	1.0	z	0.719866
24	M	A	N	N					B	4	3	shapes	N	6	False	95	(6.1317550156430478, 2.9768030725446089)	(-4.1215103229348502, 6.6388054435375121)	(-6.3659818331813787, -2.5086242062486193)	(0.52501693775397662, -5.9790224693833363)	1.0	slash	0.60129
25	N	A	B	B					M	4	1	shapes	A	6	False	95	(5.2655595264749611, 8.1995396511585419)	(-2.504837341624425, -3.4857193561286595)	(8.2680477523900784, -4.7528242772476084)	(-2.5424206583334552, 7.8697483733184619)	1.0	slash	0.771165
26	N	B	N	A					M	4	1	shapes	B	6	False	95	(6.3772351671977781, 3.0843776326235144)	(-6.1551150212496868, -7.7555742410451636)	(6.9799367505683012, -6.8132400697111741)	(-5.0066497819198927, 6.3368013826466978)	1.0	slash	0.658848
27	M	A	A	M	B	B	N	N	A	8	7	shapes	N	6	False	95	(8.0570360233657894, 5.7225655178631829)	(-0.049051138453592102, 8.6887263540757544)	(-7.1121580840401997, -7.3836445879519328)	(-4.5220342792725594, 8.2094536134602833)	1.0	slash	0.986365
28	N	A	M	B					A	4	1	shapes	A	6	True	95	(-6.5574597120552305, -5.9648065798078065)	(8.0797524551321587, -2.9723109418972538)	(7.2745438514868397, 2.2315755167583138)	(-8.7034760383736938, 2.7444722243619832)	1.0	z	0.752178
29	N	A	N	A	M	M	B	B	B	8	7	shapes	B	6	True	95	(7.3320251024038718, 6.4936023314252989)	(-6.3818053294964914, 4.5274826647221964)	(-2.7314991112770333, 6.5080355526756524)	(3.1318255357864899, -4.3204738019174691)	1.0	slash	1.31785
30	N	B	B	M	M	N	A	A	B	8	2	shapes	B	6	True	95	(8.4977743066299531, -7.6372036146264239)	(-3.8368541886138745, 3.7152875459437809)	(2.4903860525576622, 4.6231812831539667)	(-1.76958252685725, -4.1295798639667227)	1.0	z	1.11538
31	M	A	M	B	A	N	N	B	N	8	6	shapes	N	6	True	95	(-6.0508705054714795, -3.9054630123640353)	(-1.0789310713619438, 4.006327352394992)	(1.7863023733850483, -7.3283465202986502)	(7.0595687972584695, -5.1403418013306705)	1.0	z	1.08094
32	N	A	N	M	M	B	A	B	M	8	7	shapes	B	6	False	95	(-5.8923358878204279, 0.50223842309385347)	(-5.5361250267893123, -4.571883918609041)	(-1.1376279145334198, 8.6200294686969485)	(2.4155869907650889, 2.084166279982707)	1.0	slash	0.670706
1	N	A	N	M					N	4	2	shapes	N	7	True	95	(-1.114636967890049, -6.3200059642322213)	(-5.2687762665774471, 8.6186961675280287)	(5.6871348787977567, -7.417177092725197)	(6.552555198650051, 7.1268580460995725)	1.0	z	1.67446
2	N	A	M	N					B	4	1	shapes	A	7	False	95	(5.4326377528462846, -1.2551113553303095)	(-5.3664585250718062, -4.9670062426237847)	(1.6413332406768841, 7.2460710768586374)	(-5.5895408541141673, 0.63901508726808665)	1.0	slash	1.34782
3	M	B	A	M	B	A	N	N	B	8	7	shapes	N	7	False	95	(-3.6474441515679068, 2.1301775729198695)	(8.5356074836894642, -6.5829395798161325)	(5.9230446741939069, 3.1714601900166421)	(1.7744588436496063, -8.6486044268817004)	1.0	slash	1.07536
4	N	B	N	A	M	B	M	A	M	8	1	shapes	B	7	False	95	(-6.6382608010430646, -1.7727654875700276)	(2.2404604493604783, -6.7770421176194011)	(-1.4112128777787474, 0.27480987990893979)	(4.0540006879670898, 8.0301121291858344)	1.0	z	1.31309
5	M	B	B	N					A	4	2	shapes	B	7	False	95	(-1.6286549503322032, -0.15110987819221045)	(-6.3227121428273074, 4.751642786330148)	(7.0906834617724943, 0.32900337582983141)	(0.67646909931139554, -5.2153966096987858)	1.0	z	0.860852
6	M	A	N	A					A	4	1	shapes	A	7	True	95	(8.128131072635874, 3.5794072671947319)	(-1.6679721591961068, -0.77880194630796229)	(4.0540434685796285, -4.8415435904968591)	(-2.9148575007847812, 7.4998444680495808)	1.0	z	0.91435
7	M	A	M	A					M	4	0	shapes	M	7	True	95	(4.2666206456650109, -2.1874711000059275)	(-1.1147065175795294, -1.4927721791480009)	(3.192824884376817, 7.8285476248449122)	(-8.0969380839362284, 4.514358186338594)	1.0	z	1.06997
8	N	B	M	B					N	4	0	shapes	N	7	True	95	(-5.6631513953846753, -2.1799852578292489)	(7.9567930696199376, -3.5498399763148738)	(4.2015741355782446, 4.7600074283926688)	(-0.23054006839951313, 2.1212994673611139)	1.0	z	0.873444
9	M	A	M	B	B	N	N	A	A	8	2	shapes	M	7	False	95	(8.7129664639409299, 0.87983720062049819)	(7.918578104439959, 8.4425454551079255)	(2.7811574301305324, -2.531553306494585)	(-0.34643090194775006, -7.9533986911632226)	1.0	slash	0.735288
10	N	A	A	B					B	4	2	shapes	A	7	False	95	(8.4073311248170235, -0.57741041997141807)	(3.8490341551264837, 2.1914711068330277)	(-4.768465660468225, -7.0170424049099038)	(-7.9739743541925456, 0.083166179859839318)	1.0	z	0.958985
11	M	A	N	A					B	4	0	shapes	M	7	False	95	(-1.784526440453881, -8.5233385310413272)	(1.4307399517635684, 3.8500901022781857)	(-5.564925360965657, 6.2826214931273547)	(4.285444995423255, -1.9443178908327816)	1.0	slash	0.680664
12	N	A	M	M	N	A	B	B	A	8	6	shapes	B	7	False	95	(-3.6815210217679271, -5.0091290247301892)	(-1.8333900362219264, 2.3971666365518818)	(-7.8460087962302971, -2.4618049568776295)	(-0.79616101417633356, 7.456832569411521)	1.0	slash	0.718213
13	M	B	M	N					M	4	0	shapes	M	7	True	95	(0.41933262426099027, -6.2764034477384705)	(-5.0087956069355588, -2.2191626342864925)	(-3.5969741299071449, 5.3195937799151825)	(5.1836836862827287, 0.42227780581993812)	1.0	z	0.711891
14	N	B	B	M					A	4	2	shapes	B	7	False	95	(2.249064653281625, -4.3647222322877326)	(6.5615697471239383, 4.925013641226192)	(-7.8761915806528986, 8.5812823599952601)	(-5.566144284971891, -4.2634989675042414)	1.0	slash	0.643675
15	M	A	N	B					A	4	2	shapes	N	7	False	95	(-7.6004792403190748, 3.0238061062095536)	(3.4039248831164226, -6.9993813322678244)	(-3.3675028145715276, -1.7845195751085887)	(4.8682512129625355, 8.1056261063280814)	1.0	slash	0.668917
16	N	B	B	N					N	4	3	shapes	N	7	True	95	(-5.3252034619634241, -8.2449382395577544)	(-2.3232118865530982, 1.4165814933836458)	(2.8306891828287224, 1.1805899122083474)	(7.9038961385905964, -3.1472366321135246)	1.0	z	0.617004
17	M	B	A	A	N	M	B	N	N	8	7	shapes	N	7	True	95	(4.1319447517693284, -1.7785612882715238)	(6.7425145109283608, 7.6581597463679607)	(0.51693859196716652, -5.2807263470481054)	(-3.6480761405226643, 7.3497784907177852)	1.0	z	0.818548
18	N	A	B	A	B	M	M	N	A	8	1	shapes	A	7	True	95	(7.3073332143421368, -5.1837106697581374)	(8.7222294773470068, 2.9521363046841991)	(-2.2267926937730946, 8.3665824534145692)	(-2.7411142421057262, 2.0196377932434917)	1.0	slash	1.15624
19	M	A	B	M					B	4	0	shapes	M	7	False	95	(5.9712143847531376, -2.5919026093389936)	(-7.2564367187215701, -3.7294766648162643)	(-6.8542036059407652, 4.004996379187082)	(0.75602717811555031, 7.6446748413724919)	1.0	slash	0.695823
20	M	A	B	B	M	N	N	A	A	8	1	shapes	A	7	True	95	(-7.530411447605311, 5.7852418444008915)	(-4.4807995776035696, -8.460101265795597)	(-8.6478685100077115, -8.1562987405545275)	(-2.8268838899906585, 4.8847890436454691)	1.0	z	0.966703
21	M	A	B	M	B	A	N	N	A	8	5	shapes	A	7	True	95	(-6.687545240747899, -6.2953799265025809)	(-0.79642219370607137, -2.4925339111399545)	(7.2280337280033553, 6.4555725612800927)	(2.363668049175276, 8.3457682930004999)	1.0	slash	0.779295
22	N	A	A	M					A	4	1	shapes	A	7	True	95	(4.0210986495012122, 3.8009996395317085)	(7.7287105247438319, -7.6569577383914682)	(-6.518178981539986, -7.0556742053282511)	(-1.5519811406634503, 7.8779502999577815)	1.0	z	1.1209
23	M	A	A	N	M	B	B	N	A	8	1	shapes	A	7	True	95	(5.9652422600811317, 6.3675483809751992)	(6.5789636731633241, 0.057216319670674309)	(-1.6060961085446364, 3.9657623560630633)	(-0.23120895724825807, -6.7065683101999021)	1.0	slash	0.958463
24	N	B	B	N					N	4	0	shapes	N	7	True	95	(3.6113000120568195, -8.5785736837944953)	(-4.0153919540436593, -3.6305063738569592)	(6.48590467688296, 0.51645282031752693)	(-1.7221188342065661, 1.3345385172364583)	1.0	z	0.692095
25	N	B	M	N	B	A	A	M	M	8	5	shapes	A	7	False	95	(1.9185240308557354, 2.0675767801667941)	(6.9308663475824872, -3.8297752890294561)	(-2.4961933482892649, -7.8627838395174567)	(0.69042070919902621, -4.3052865427809701)	1.0	slash	0.941728
26	N	A	M	A					N	4	2	shapes	M	7	False	95	(-0.097121720431720959, 4.6989652635406767)	(2.4644421831651346, 1.4876013524514171)	(-5.4168800371910573, -1.7397089819070359)	(4.7840771798676283, -2.0010990221984493)	1.0	slash	0.771278
27	M	A	M	A	N	N	B	B	M	8	2	shapes	M	7	True	95	(-0.14978490784559106, 7.1529519376342243)	(4.9624838594692413, -7.4196423999707211)	(-7.5728777509824088, -8.5064457289805926)	(-2.4633121580100212, -0.85718640822969761)	1.0	z	1.32502
28	N	B	B	N	A	A	M	M	N	8	3	shapes	N	7	True	95	(4.1507621288253702, 3.1785303579098994)	(-0.77185701740585344, 6.3946605092576405)	(-4.070477077117614, -2.2600849311654088)	(6.9319485445703339, -2.5788268218758592)	1.0	slash	1.09463
29	M	B	B	A	N	M	A	N	M	8	2	shapes	B	7	False	95	(4.4930300318985932, 4.2785042302079752)	(-3.632908802617842, -0.29213278973259094)	(-6.4441877339503728, 4.4737490782979812)	(6.3884438121291325, -7.6218347238856143)	1.0	slash	1.12826
30	M	A	A	B	M	N	N	B	B	8	7	shapes	B	7	True	95	(3.6097815516500447, 6.7884131689044445)	(-2.4225775886103964, -1.8758056568846362)	(-8.371924685833914, 7.168300272150061)	(0.75497450314732006, -6.3204675565390538)	1.0	slash	0.859831
31	N	A	M	N	B	A	B	M	M	8	0	shapes	N	7	False	95	(-5.5199792528377554, 8.3408717799924261)	(6.6031450641403975, -0.24547553411754208)	(-0.08138120413730654, -7.4192193759035536)	(0.16299951745590668, 3.7593843445517674)	1.0	slash	0.989608
32	M	A	M	B	N	B	N	A	M	8	3	shapes	B	7	False	95	(5.1033195104196079, 7.6981950493087261)	(-1.5131770849445942, 4.2432420579339585)	(7.7574914508623145, -6.2307678647197307)	(-8.1796950447376453, 3.8528939018707842)	1.0	slash	0.740992
1	N	A	A	N	M	B	M	B	B	8	4	shapes	M	8	False	95	(1.2969323336157945, -0.10166922539606205)	(-7.5367656951698034, -7.4188684114775638)	(-2.3907601866646129, 6.1702484317122899)	(7.8599189551226232, -4.6825757522927551)	1.0	slash	0.73284
2	M	A	B	A					N	4	0	shapes	M	8	False	95	(8.6983789431210532, -4.2932994170748655)	(-1.2750821552838083, 2.7128036520155927)	(-6.5397615247634953, -3.5860251401172594)	(7.8467842612446788, 4.747910090882236)	1.0	slash	0.596477
3	M	A	A	N					M	4	2	shapes	A	8	False	95	(-1.696251582998249, -8.2095018235895054)	(2.0505714049381005, -0.26236962695681676)	(-3.9479714739543548, 1.8865938259869033)	(1.0495432982691888, 6.3768613933250098)	1.0	slash	0.624237
4	N	A	N	B	A	M	M	B	A	8	6	shapes	M	8	False	95	(5.9980311717919044, -8.1661714356415374)	(-1.1329706214402693, -6.8569984673235487)	(-2.733594694241237, -1.7970211813635846)	(-7.1178026225893865, 8.2449579805956184)	1.0	slash	0.671198
5	N	B	B	N					N	4	3	shapes	N	8	True	95	(-7.8308439795529434, 0.20893290038188717)	(-6.5161785412411319, -7.8412140110565467)	(4.4560066283549933, 6.9601076643634165)	(4.5884022420534265, -6.1342112734152581)	1.0	z	0.995717
6	N	A	B	A					M	4	3	shapes	A	8	False	95	(1.5296083157547002, -8.4541289528740169)	(-5.0805476360075463, 8.4741952354608365)	(-3.6339846346494129, -4.8733563506347544)	(2.6511164465066503, 6.060362082423449)	1.0	slash	0.559155
7	N	B	B	N					N	4	3	shapes	N	8	True	95	(2.6627152534968825, 3.4879167553713746)	(-4.8067307283798684, -8.528980403681004)	(-8.4393781044466021, 5.0963243703511996)	(5.0145204118149902, -4.845733137061373)	1.0	slash	0.832713
8	M	B	A	B	M	A	N	N	B	8	5	shapes	A	8	False	95	(6.0800352604129628, 0.31147567859149383)	(-7.442631495535581, 3.868495236811837)	(-3.2860817079570275, 0.51007437037505987)	(1.4614370191413535, -1.0236300809186538)	1.0	slash	1.02854
9	N	A	B	N					B	4	0	shapes	N	8	False	95	(0.53379038815186775, 1.8857454387115808)	(0.48071373950212148, -7.944219435833765)	(-6.2938421521225436, 8.7164699270333443)	(-6.3008305235391395, -7.4106841138005226)	1.0	slash	0.672124
10	M	B	B	N					N	4	2	shapes	B	8	False	95	(4.6207906139799633, -2.5916858821688571)	(8.2276921466034523, 6.1061094781291914)	(-4.0214925191222646, -2.4360425401553716)	(-0.51357998933584881, 6.3865308887278083)	1.0	slash	0.595751
11	N	B	N	B					N	4	3	shapes	B	8	False	95	(7.0026347305042727, 7.6569587453804004)	(8.5072975614114696, -4.7855397175660714)	(-7.8371627808719655, 4.4662510060445939)	(-6.8283337675170035, -8.51342961366894)	1.0	slash	0.671367
12	N	A	M	B	M	B	N	A	M	8	6	shapes	N	8	False	95	(-7.1447247041090156, 1.2550461685136849)	(-1.1954754195310295, -6.4407633505661064)	(8.1697223753236052, -8.6072215503002258)	(5.2988201725572868, -1.4902885792215814)	1.0	slash	0.669086
13	M	B	A	A					A	4	2	shapes	A	8	True	95	(-4.5392799641050168, 5.8020278266688408)	(-0.20852148013264582, -2.2312442405523987)	(8.7065255537190609, -3.4681880953374868)	(8.117666348161908, 1.3766244228222355)	1.0	z	1.04682
14	M	B	N	B	M	N	A	A	B	8	3	shapes	B	8	True	95	(-6.0981859864939691, 6.3821483742179517)	(-7.2534265174643426, 0.59921087488785751)	(5.9621564757208159, -5.0908535791979546)	(-5.067990410500169, -8.4258489632767173)	1.0	z	0.970481
15	N	B	N	M					M	4	3	shapes	M	8	True	95	(6.5401036066898417, 0.89729952953798175)	(-1.3219315032442545, 3.785498105800059)	(3.3672986426230391, -7.5271414507517864)	(-1.3547919781941502, -1.2625725361094373)	1.0	z	1.12201
16	M	B	A	M					N	4	1	shapes	B	8	False	95	(3.3775500606485185, 4.1081618993707671)	(-4.6571771871148009, -5.1327607905892165)	(5.7786018424052266, -0.97148389857395667)	(-1.1320623918587582, 7.0620110280541706)	1.0	slash	0.721812
17	M	B	N	A					N	4	2	shapes	N	8	True	95	(5.4857050368275715, -2.3408171788057839)	(-5.2590359413676753, -6.3307790579641203)	(-0.57453603083397908, 2.4666415070829242)	(4.5821658016645301, 4.1306315003527807)	1.0	slash	1.16349
18	M	B	M	B					B	4	3	shapes	B	8	True	95	(-1.0201970085643337, 3.8698660660189166)	(7.1687022095099646, -5.2868144654319069)	(-5.0831144999001259, -1.8706325897417484)	(6.4936632559532921, 4.0763881923051706)	1.0	z	0.741058
19	M	A	B	N	N	A	B	M	A	8	5	shapes	A	8	True	95	(0.24164554077511369, -1.5398637112909954)	(2.2801659096843707, 3.9131220440115477)	(-3.8634253437882231, 3.6182317258818522)	(2.4674070142274172, -7.0570109338433387)	1.0	slash	1.29455
20	M	A	M	N	N	A	B	B	N	8	3	shapes	N	8	True	95	(-6.1053983670340655, 6.3090398470920395)	(0.21601722874152074, -1.0019655102242924)	(7.4367678927552632, 3.8705148844446757)	(5.940423078613545, 7.6787313217283)	1.0	z	0.766295
21	N	A	M	N	B	M	B	A	A	8	1	shapes	A	8	True	95	(4.9122896949127792, -7.176936127169224)	(-8.2729149859890168, -1.5830775425830614)	(-1.4795223515707532, -5.7430902060187936)	(2.5145929435193679, 6.2530500563401894)	1.0	slash	1.25009
22	M	B	M	N	B	A	N	A	N	8	3	shapes	N	8	True	95	(-2.865851838793656, 3.1359718529433209)	(-8.2011779258200868, 2.8594586070732788)	(-0.27390235503976612, -3.3575465628954433)	(6.4050388370620421, -5.577998394141094)	1.0	slash	0.997591
23	N	A	N	B					A	4	1	shapes	A	8	True	95	(8.2284201624262607, 4.2801847959314188)	(-6.5008308142467328, 0.43585602106591281)	(3.5134363657013754, -7.5559775536177867)	(-7.281828567986719, -6.8767976102550632)	1.0	z	0.969125
24	N	B	A	M	B	M	N	A	B	8	1	shapes	B	8	True	95	(8.3430457710016981, 6.8889573101891486)	(-4.2578306248767888, -4.3428904172896132)	(2.3123136528316905, -0.57448472285407526)	(-8.7374958407979317, -7.2513980873108919)	1.0	slash	1.10888
25	N	B	B	M	A	N	M	A	B	8	2	shapes	B	8	True	95	(-5.0740865157890447, -1.632009120360844)	(2.1804130295567781, -3.5947749629588097)	(7.5258225409138255, 1.6051711674354792)	(3.4142173768796287, 0.34003463346735252)	1.0	z	1.08256
26	N	A	N	B					M	4	0	shapes	N	8	False	95	(6.1142561806792823, 8.6546020330078868)	(-8.2467148419214809, -1.9658324660372459)	(4.4747459588692244, -1.3456291629614983)	(-3.9974386680438956, 5.3105232012393486)	1.0	slash	0.620002
27	M	B	A	M	A	B	N	N	B	8	5	shapes	B	8	True	95	(-4.9014360875314704, -4.966922351694711)	(5.8921663807348335, -0.55254325935527504)	(-5.9819895301401589, 1.5974972154614466)	(3.866567323250667, -4.2757657143642254)	1.0	z	0.869778
28	M	A	N	M	B	N	A	B	M	8	2	shapes	N	8	False	95	(-0.47171986234517149, -2.6021928088366399)	(-8.7318237664685441, 4.7370863222369355)	(-0.00073948156899916739, 8.1695584639380101)	(6.1922867464702573, -5.9180680150820075)	1.0	slash	0.893382
29	M	A	A	B	B	N	M	N	A	8	4	shapes	B	8	False	95	(-4.2788394248109327, 8.488631563633863)	(5.6602064223489474, -2.3140612010480623)	(0.78606420655716214, 0.68562482646946243)	(-1.8658179360275611, -5.1650204142960892)	1.0	z	0.958984
30	M	A	N	B					M	4	0	shapes	M	8	True	95	(-7.3444273622099132, -4.4741059259977716)	(3.2250885490411036, 3.5490918296665939)	(0.70064357473849093, -3.2786964443518274)	(-7.1106111337643014, 2.6425028124872227)	1.0	slash	0.720752
31	M	A	M	B	B	N	N	A	A	8	2	shapes	M	8	False	95	(2.195924581651612, -2.9291801857393667)	(6.5510729185668879, 7.8381117522326385)	(4.3236331642130068, 3.3291044611709388)	(-5.8001730966944987, 0.34081181431555052)	1.0	slash	0.83837
32	M	A	A	B	B	M	N	N	N	8	0	shapes	M	8	False	95	(6.0179640605647364, -3.0074671228669985)	(-0.44319302636805524, 7.9087248579194238)	(3.2497803585450491, 1.8322422277380657)	(-7.9955274250101835, -6.066140425244841)	1.0	slash	0.932032
